time,seconds_elapsed,z,y,x
1776228663875490800,0.08149072265625,-0.7792775690674781,0.19347411513775586,0.06917772725299
1776228663895341800,0.101341796875,-0.4044423859119415,0.3035115299150348,0.08803528019711375
1776228663915191800,0.12119189453125,-0.12539046673178672,0.22871143273562192,0.27659035137221216
1776228663935043000,0.14104296875,0.6012848084390163,0.0994143139541149,0.08501578624546527
1776228663954894000,0.16089404296875,0.23848843812346457,0.1042094392761588,0.34735900107845663
1776228663974744000,0.180744140625,-0.5645803408980369,0.1614002300068736,-0.15060571813955903
1776228663994595000,0.200594970703125,-0.6174649588674307,0.17173837640881537,-0.4719187160745263
1776228664014446000,0.220446044921875,-0.18774784644544124,0.15016045859009028,-0.34033363248631354
1776228664034296000,0.240296142578125,0.2923106292039156,0.04386807556003332,-0.16955884041264652
1776228664054147000,0.26014697265625,0.3305354381799698,0.06794307089149952,-0.005100099617987871
1776228664073998000,0.279998046875,0.08507190034687519,0.06670300770252943,-0.11348770136162638
1776228664093848000,0.29984814453125,-0.43080899931192396,0.10242401716411113,-0.16252397333979607
1776228664113699000,0.319698974609375,-0.2778092256426811,0.10034370375871658,-0.4064320984244346
1776228664133549800,0.3395498046875,0.11424304977357387,-0.00014759177714586256,0.0055669864773750305
1776228664153400000,0.359400146484375,0.07276829909086227,0.10671528461724519,0.18338000662475823
1776228664173250800,0.379250732421875,0.3455705102264881,0.09657499887496232,0.061857759628444905
1776228664193101800,0.399101806640625,0.373338807117939,0.1488862008705735,0.16554646296612918
1776228664212951800,0.418951904296875,0.1546791050583124,0.4272171122997999,0.3873422710943967
1776228664232802800,0.438802734375,0.1168517709672451,0.213502173165977,0.21035729926899074
1776228664252654000,0.458654052734375,0.16174305209517478,0.04384674051105976,-0.1726742690194398
1776228664272504000,0.478504150390625,0.5238099390923977,-0.15714403386712072,-0.3256063112147152
1776228664292355000,0.49835498046875,0.9351678034812212,-0.17563333802074194,-0.24325915965661404
1776228664312206000,0.5182060546875,0.5710094971626997,0.02285831301808357,-0.04525814167894423
1776228664332056000,0.53805615234375,0.15659867494404314,0.011519172880053519,-0.040410044060647486
1776228664351907000,0.557906982421875,0.03594049743115902,-0.12019698974192142,-0.2914951481025666
1776228664371758000,0.577758056640625,0.019348843592405317,-0.16612141330987215,-0.3461613157264888
1776228664391608000,0.597608154296875,-0.6105027186393738,-0.00029109190106391906,-0.36554413465373214
1776228664411459000,0.617458984375,-0.39920390073657036,0.06665069299340248,-0.45324419154711065
1776228664431309800,0.637309814453125,-0.19357377611994742,-0.0986021207883954,-0.3235219061560929
1776228664451160000,0.65716015625,-0.08824234707653522,-0.05006985280960798,-0.12706227240152657
1776228664471010800,0.6770107421875,-0.25564240202009675,0.0457622187435627,-0.08313399108685553
1776228664490861800,0.69686181640625,-0.020945757395029067,0.034842180800437925,0.039448067160695786
1776228664510711800,0.7167119140625,0.14669161343574524,-0.06704612205177544,0.16049144459888337
1776228664530562800,0.736562744140625,0.057020694860816,0.10290040250420569,0.28379904064200817
1776228664550414000,0.7564140625,0.027667174604535102,0.15258242504000663,0.2512866910286248
1776228664570263800,0.776263916015625,0.344472193595767,0.04372369865328073,0.17596899971589444
1776228664590115000,0.796114990234375,0.4090624469280243,-0.0448711151227355,0.14365597206689418
1776228664609966000,0.815966064453125,0.12488485529720783,-0.008286766830086707,0.05734495837911963
1776228664629816000,0.835816162109375,-0.4222983605980873,0.22154782471656798,0.11544314627833664
1776228664649667000,0.8556669921875,-0.5039028770953417,0.31936931652128697,0.07467018718943
1776228664669518000,0.87551806640625,-0.0426642527282238,0.15488018058836459,0.0018588526744395494
1776228664689368000,0.8953681640625,0.30871055986285206,0.0034355274066329,-0.034801702659577126
1776228664709219000,0.915218994140625,0.3219832984119653,-0.14145751217454672,-0.10024082790613174
1776228664729069000,0.935069091796875,0.13355039231181143,-0.040831776604056354,-0.15727533209659159
1776228664748920300,0.95492041015625,0.15063304453790186,0.16865297761410475,0.05146437590792775
1776228664768771000,0.97477099609375,0.3102215489476919,0.02994125701636076,0.19435966580063105
1776228664788621300,0.994621337890625,0.3089274174839258,-0.220980838483572,0.019176336569711565
1776228664808472000,1.01447216796875,-0.013504793739318847,-0.24448329462409019,-0.3092890904031694
1776228664828323000,1.034322998046875,-0.3491290794909,-0.08848112426847218,-0.46621692423634226
1776228664848173000,1.054173095703125,-0.19441724120676515,0.10061346061080693,-0.31167879855129865
1776228664868024000,1.074024169921875,-0.0169184015750885,0.055229719790816305,-0.20866474307216704
1776228664887875000,1.093875,0.0812152249187231,-0.011200023928284645,-0.3233039890890941
1776228664907725000,1.11372509765625,0.22537118239700793,0.10919979490935802,-0.21748006382100282
1776228664927576000,1.133576171875,0.2419949849396944,0.16052169360667465,-0.17292707473672925
1776228664947427000,1.153427001953125,0.19945055919885635,0.02558627667725086,-0.43634372748751193
1776228664967277000,1.173277099609375,0.06931377472281455,-0.0023249358162283898,-0.46408414999134834
1776228664987128000,1.193128173828125,-0.06379647260606289,0.08301642912179232,-0.34867625768948346
1776228665006979000,1.21297900390625,-0.008116086438298226,0.18982202237099408,-0.10780607552863657
1776228665026829000,1.2328291015625,0.22699089255332947,0.23352350919246673,0.15074424982741474
1776228665046680300,1.252680419921875,0.34701544833779335,0.03837444657981395,0.05209306573290377
1776228665066531000,1.272531005859375,0.09250584973990916,-0.07214169162511826,-0.15260083747953176
1776228665086381300,1.29238134765625,-0.5017214414030313,-0.07616437126994133,-0.30551304246317595
1776228665106232000,1.312232177734375,-0.38675007735490796,0.07083616198450327,-0.2676324438149109
1776228665126082300,1.332082275390625,-0.042833764076232905,-0.01855798547565937,-0.05118932182621211
1776228665145933000,1.35193310546875,-0.0884521904349327,-0.0671241557240486,0.10875106476116925
1776228665165784000,1.3717841796875,-0.17980828561782836,0.0854743436679244,0.16000373414717614
1776228665185634000,1.391634033203125,-0.12371698056161402,0.1678945604622364,0.12432386041358112
1776228665205485000,1.411485107421875,0.034573300731182095,0.17072364640831947,0.25454547362886365
1776228665225336000,1.431336181640625,0.2118096900343895,-0.02153378641605377,0.3272409632118419
1776228665245186000,1.45118603515625,-0.31794951285123824,-0.10127806199938058,0.00019406126737594602
1776228665265037000,1.471037109375,-0.41558688026070595,0.005726560953259467,-0.14969123364314435
1776228665284888000,1.49088818359375,-0.05095101955831051,-0.02190641912072897,-0.0359511649556458
1776228665304738000,1.510738037109375,-0.01222936697602272,-0.007326689626276492,-0.16776896132118999
1776228665324589000,1.530589111328125,-0.24984277583062647,-0.028303426681458948,-0.32636012525670227
1776228665344440300,1.5504404296875,-0.06476034920215606,-0.09700228437632322,-0.23063034503422677
1776228665364290000,1.5702900390625,0.34949732828140256,-0.08036416104733944,-0.17485252637397497
1776228665384141300,1.590141357421875,0.34094518851339817,-0.046454877182841296,-0.10697868479378521
1776228665403992000,1.609991943359375,0.035601474735140796,0.13045096499174832,-0.07633808386903256
1776228665423842300,1.62984228515625,0.14883037903010846,0.34255145466625686,-0.07863057872038334
1776228665443693000,1.649693115234375,0.4104454257190227,0.31024872921556235,0.13191343875974415
1776228665463543300,1.669543212890625,0.6475310113072394,0.15724954006820915,0.033813531872443854
1776228665483394000,1.68939404296875,0.42936698381006716,-0.06537175909876823,-0.0953751580985263
1776228665503245000,1.7092451171875,-0.13362228850424288,-0.03172229521423578,-0.3497155010767281
1776228665523095000,1.729094970703125,0.057357963991165155,-0.03801759596616029,-0.3122436293598264
1776228665542946000,1.748946044921875,0.29691783073842526,-0.09873509951829909,-0.12671239951793103
1776228665562797000,1.768797119140625,0.3698965577095747,-0.14265665883123874,-0.010992482124827802
1776228665582647000,1.78864697265625,0.10931611476540565,-0.06965484324544667,-0.011451587536558509
1776228665602498000,1.808498046875,0.136755325832963,-0.04742167638838291,-0.0913948562907055
1776228665622349000,1.82834912109375,0.19176351182758808,-0.08706862712204456,-0.030651378047093746
1776228665642199000,1.848198974609375,0.157229374063015,0.044857378858327863,0.11934771596882492
1776228665662050000,1.868050048828125,0.026883915272355077,0.05022621241509914,0.17329305850490925
1776228665681901300,1.8879013671875,0.018650924456119537,0.08118862917274236,0.28756434799227865
1776228665701751000,1.9077509765625,0.08466273502409458,0.03960924907177686,0.27931141036655754
1776228665721602000,1.92760205078125,0.012625088295340538,-0.013036299444735049,0.22451222748011349
1776228665741453000,1.947453125,-0.18545535159409046,-0.039787820509076116,0.08404591830000281
1776228665761303000,1.967302978515625,-0.2325742456436157,0.04973609081059694,0.0436782155437395
1776228665781153800,1.98715380859375,-0.10514145942926406,0.05985504150390625,0.1226372955661267
1776228665801004000,2.007004150390625,0.017382511955499648,0.025956571294367313,0.12110975720528512
1776228665820854800,2.026854736328125,-0.06610591859221458,0.05759440309554338,0.08615637111533432
1776228665840705800,2.046705810546875,-0.2581412330985069,-0.13119243100881575,-0.1266265113327652
1776228665860555800,2.0665556640625,-0.168870712018013,0.00424333665817976,-0.2038154764100909
1776228665880407000,2.086406982421875,-0.019995909324288366,0.11698825682848692,-0.05536485394518822
1776228665900258000,2.106258056640625,0.02788812387883663,0.10415127934813499,-0.12350995021481066
1776228665920108000,2.12610791015625,0.570402763441205,-0.06647738225311041,-0.05498681441303342
1776228665939959000,2.145958984375,1.0242115300685166,-0.08977174860090016,0.1700474641798064
1776228665959810000,2.16581005859375,0.7012450658380985,-0.019666238978505134,0.2395484685704112
1776228665979660000,2.185659912109375,0.7609072151184082,0.12540157264769078,-0.055973743091151114
1776228665999511000,2.205510986328125,0.972337550446391,-0.14084230288565158,-0.37638982871901244
1776228666019362000,2.225362060546875,0.4776140051066875,-0.24638299076557157,-0.4120276899417862
1776228666039212000,2.2452119140625,0.0800736536681652,-0.009049860157072544,0.02373586303759366
1776228666059063000,2.26506298828125,-0.44409635090827937,0.5013216284304857,0.060152891939319664
1776228666078913000,2.2849130859375,-0.8382225099891424,0.9322329190731048,-0.2676213013663888
1776228666098764000,2.304763916015625,-0.3565688741028309,0.7127645309790969,-0.32093817327320573
1776228666118615000,2.324614990234375,0.5826835683435201,0.6539098986893892,-0.64835533330217
1776228666138465000,2.344465087890625,1.25593237375319,0.25473785439580676,-0.7822792351014912
1776228666158315800,2.364315673828125,0.963617068374157,-0.08032499808073043,-0.7763329669829457
1776228666178166800,2.384166748046875,0.5172270535707474,-0.09992635512948035,-0.47893034840226173
1776228666198016800,2.404016845703125,0.8256202180474996,0.33037732500880956,0.5934340949386357
1776228666217868000,2.423867919921875,1.0599415996193886,1.0801648879587649,0.5014656765436754
1776228666237719000,2.443718994140625,1.7771172250390053,0.8285907582908868,0.19939570547277108
1776228666257569000,2.463569091796875,2.0321616611659525,-0.017121230670809746,-0.38192791789546604
1776228666277420000,2.483419921875,1.4567606510460376,-1.320217506659031,1.5611343409731984
1776228666297271000,2.50327099609375,1.3810545449376106,-2.1700468678116795,6.32380671544075
1776228666317121000,2.52312109375,0.8288748359292745,0.8084913885921239,1.1589333773124961
1776228666336972000,2.542971923828125,-0.27037878338098525,-0.4405640851289034,1.1123976169131695
1776228666356823000,2.562822998046875,-0.215825939938426,-0.7323737790733575,1.6005080277234316
1776228666376673000,2.582673095703125,-0.6607014585256576,-0.14678776728659867,2.9760110760137435
1776228666396524000,2.60252392578125,0.07016250050663948,0.5193494525521993,4.006800815428793
1776228666416374000,2.6223740234375,0.31249183196723457,-1.0953352768227458,2.0422375033698974
1776228666436225000,2.64222509765625,-1.9239678284287451,-2.509434597750008,-0.12751143180797808
1776228666456076000,2.662075927734375,-3.9400574757158755,-2.9036589565083384,-0.8725302916519343
1776228666475926000,2.681926025390625,-2.7323481578618285,-0.5554892719477414,-0.383260116347298
1776228666495776800,2.70177685546875,-1.0820546472281216,0.4265551412597298,1.272169953457266
1776228666515628000,2.7216279296875,0.7507493937194347,0.3839204068869352,0.9105220955897122
1776228666535477800,2.741477783203125,0.33507717326283454,-0.13666998563706875,0.9721393975257873
1776228666555329000,2.7613291015625,-0.6803647748947144,0.4490183174803853,1.1395984891802071
1776228666575180000,2.781179931640625,-0.4577770857363939,1.0398849000185728,1.1123661257963626
1776228666595030000,2.801030029296875,-0.33647476510107516,0.996325452016294,0.43447742215897883
1776228666614881000,2.820881103515625,-0.4595774131566286,0.7918906746640801,-0.01539466260652989
1776228666634732000,2.84073193359375,-0.06123860481679439,0.9856476983964443,-0.02035670546069741
1776228666654582000,2.86058203125,0.30036826345324513,1.0776777473181485,0.5897056490000337
1776228666674433000,2.88043310546875,0.7834083852618933,0.7263149174258112,0.5601999338567256
1776228666694284000,2.900283935546875,0.8527057933717965,0.4078074784308672,-0.2538206299530342
1776228666714134000,2.920134033203125,0.5489578243523836,-0.1425929459452629,-0.8031118875108659
1776228666733984500,2.939984619140625,0.7336790164530277,-0.31176468673646446,-1.2015436348311603
1776228666753834500,2.95983447265625,0.9266571647673845,0.3653422554060817,-1.2303941740013657
1776228666773685500,2.979685546875,0.36172085003852844,0.8977689239352941,-0.9911945919338613
1776228666793536500,2.99953662109375,0.8127560602992773,0.618568536195159,-0.5868439028933644
1776228666813386500,3.019386474609375,1.2755489283710717,0.03175648974478244,-0.8882968928433954
1776228666833237500,3.039237548828125,0.7408095989853143,0.9494219542831182,-1.693488070846349
1776228666853088500,3.059088623046875,1.18750531873703,1.287064886380732,-1.9496166489481925
1776228666872938800,3.078938720703125,2.0253847143769264,1.1531491678878665,-1.387094117362797
1776228666892789500,3.09878955078125,3.0495652647852896,1.316291565386951,-0.7035405563641339
1776228666912640500,3.118640625,3.6862744378268717,1.2333163450583815,-0.2771072148531675
1776228666932490500,3.138490478515625,3.8439609080076216,1.909771545293927,-0.5678156695574522
1776228666952341500,3.158341552734375,5.056828047016262,2.8474118763685223,-1.0727436519168316
1776228666972192500,3.178192626953125,5.656428847891092,3.9651451552212236,-1.241034956611693
1776228666992042500,3.19804248046875,5.622915285345911,4.518780908256769,-1.0293336953878403
1776228667011893500,3.2178935546875,5.637090525692701,4.71404570620358,-0.5797480994135141
1776228667031744500,3.23774462890625,5.675789966443181,5.087879603362083,-0.70010466363132
1776228667051594500,3.257594482421875,4.972317872205377,6.324501127445697,-1.2948556863874197
1776228667071445500,3.277445556640625,2.8700492401123046,6.987668099302053,-0.5029243874520063
1776228667091296500,3.297296630859375,1.296725571912527,6.95869101114273,-0.9554185643494129
1776228667111146500,3.317146484375,1.3155793254643677,6.3151984615713355,-0.5610363846808671
1776228667130997500,3.33699755859375,0.24801965205669402,6.075614629426598,-1.0380530084162949
1776228667150848500,3.3568486328125,1.0546063760712743,7.946295104303956,-1.2823919261336325
1776228667170698500,3.376698486328125,0.8265870172530412,7.429956524005532,-0.716117640799284
1776228667190549500,3.396549560546875,0.5626781605385244,7.669283751040696,-1.031240405791998
1776228667210400500,3.416400390625,-0.41227848636507985,7.650339396595954,-3.490707442063093
1776228667230250500,3.43625048828125,-1.1853519400954247,7.738420415630936,-5.617769739151001
1776228667250101500,3.4561015625,-1.854304509615898,6.665354546022415,-7.518412221571802
1776228667269951500,3.475951416015625,-1.2279495573282242,5.3724003093421455,-9.061765698921679
1776228667289802500,3.495802490234375,-2.9275942511081694,3.2847651827573774,-11.618808143281935
1776228667309653500,3.515653564453125,-6.167887839454412,1.4005489344805477,-11.412241614598035
1776228667329503500,3.53550341796875,-7.650223661261797,-0.24202947173118589,-10.977007784581184
1776228667349354500,3.5553544921875,-6.307399185997247,-1.7082026787668465,-9.115392659690976
1776228667369205500,3.57520556640625,-4.509548969531059,-2.662682500961423,-8.147494552996754
1776228667389055500,3.595055419921875,-2.9701088662326334,-3.7753187489360567,-7.411580324837565
1776228667408906500,3.614906494140625,-1.840520314413309,-4.741304300007224,-6.507590334430336
1776228667428757500,3.634757568359375,-1.4612521172463893,-5.5803264359414575,-6.664924922433495
1776228667448607500,3.654607421875,-0.8526596161425113,-6.278325651726126,-6.7121618899047375
1776228667468458500,3.67445849609375,0.6578127513468265,-6.690156978845596,-7.256480948540568
1776228667488309500,3.6943095703125,0.7275567341804504,-7.638985058888792,-8.241934585669636
1776228667508159700,3.71415966796875,-1.3340250827372073,-7.858589348322153,-8.272478777015209
1776228667528010500,3.734010498046875,-2.664640064769983,-7.482610255828499,-7.552430811029672
1776228667547861500,3.753861572265625,-2.6804677484989163,-8.153757120522856,-8.0782906683892
1776228667567711500,3.77371142578125,-2.0385035775385796,-8.953602845844626,-9.62365314747393
1776228667587562500,3.7935625,-3.1573534393310547,-9.163756585365533,-10.559062943017482
1776228667607413500,3.81341357421875,-5.004971018528938,-9.31359468013346,-11.050023920953272
1776228667627263500,3.833263427734375,-5.4940697097241875,-8.446006959450244,-10.074627567458153
1776228667647114500,3.853114501953125,-3.1553567125558852,-7.211178748524189,-7.914580115613341
1776228667666965500,3.872965576171875,-2.128384631732851,-5.555501206764578,-7.419588274726271
1776228667686815500,3.8928154296875,-3.3654619367599485,-4.629532024261355,-8.255696569040417
1776228667706666500,3.91266650390625,-3.0389713900566098,-2.999421469956636,-8.833503471258283
1776228667726518300,3.932518310546875,-1.4272947564564644,-1.3378104464948177,-8.813420468172431
1776228667746368300,3.9523681640625,-1.7212825250923633,0.16746844400465488,-9.189225957664847
1776228667766219300,3.97221923828125,-3.5172131716728208,2.0216502040237185,-9.726482822829484
1776228667786070000,3.992070068359375,-4.297747462803125,4.520749870242178,-8.776050814720987
1776228667805920000,4.011919921875,-3.1135633974432944,5.93034632679224,-7.0696683371186255
1776228667825771000,4.03177099609375,-1.804111614948511,6.819777045971155,-6.490790590798855
1776228667845622000,4.0516220703125,-0.6548398730158805,7.816429537984728,-6.8598103656739
1776228667865472000,4.071471923828125,0.4000080567263066,8.227451302286982,-6.704021253547072
1776228667885323000,4.091322998046875,0.0843299959383905,8.727712023487687,-4.863036828753352
1776228667905174300,4.11117431640625,-0.883347015351057,9.501891392633318,-1.9009727372884748
1776228667925024000,4.13102392578125,-0.9534041557870805,9.863748436272143,1.2312345703482628
1776228667944875300,4.150875244140625,-0.7585773108661175,9.817698632758855,3.2279286122918127
1776228667964726300,4.170726318359375,-0.3152314860641956,9.061966189929842,4.450678847411274
1776228667984576300,4.190576171875,-0.05698496596030891,8.454733871263265,5.009457808554172
1776228668004427300,4.21042724609375,0.4248164808988571,7.876783176660537,5.363475829130411
1776228668024278300,4.2302783203125,0.1273440119523555,7.46580525150001,5.852806575515866
1776228668044128300,4.250128173828125,-0.4019816948868334,7.597710799214243,5.69709052862525
1776228668063979300,4.269979248046875,-0.13801833150610326,7.297701432201266,5.235417019972205
1776228668083830000,4.289830078125,-0.2279132680952549,7.419296598303317,5.08070518168807
1776228668103680300,4.30968017578125,-0.7469837575756013,7.452309225589037,4.602682595780491
1776228668123531000,4.329531005859375,-0.8367080137729644,7.603678183186053,4.416612327158451
1776228668143382000,4.349382080078125,0.24592355656027792,7.393360193014145,4.3395863706231115
1776228668163232000,4.36923193359375,1.0818119975786655,7.165240004169941,3.458759229138493
1776228668183083000,4.3890830078125,0.9672305096309631,7.386073543137312,2.6188708317637444
1776228668202934300,4.408934326171875,0.3291979790311306,7.699212440836429,2.250816687050462
1776228668222784000,4.428783935546875,-0.223550323645398,7.343008892914653,2.533700147217512
1776228668242635300,4.44863525390625,-0.26070385012812913,6.478855822855234,2.4879127940326926
1776228668262486300,4.468486328125,0.11067805076837539,5.779236312392354,1.74760413030684
1776228668282336300,4.488336181640625,0.5406781448502094,5.260943675416708,0.9719903444439172
1776228668302187300,4.508187255859375,0.6557845334548503,5.043735925731062,0.7927934687227011
1776228668322038300,4.528038330078125,-0.040028059005737304,4.660028284811974,0.8506669810205697
1776228668341888300,4.54788818359375,-0.8471440675914287,4.229689533360302,1.135428510019183
1776228668361739300,4.5677392578125,-0.746659932448715,3.8715553096368907,-0.5351338816612958
1776228668381590000,4.587590087890625,-1.520024624210596,2.7516020166471598,-1.8570903409421442
1776228668401440300,4.607440185546875,-0.5868048860572278,2.1908494173437356,-3.2289702302992342
1776228668421291000,4.627291015625,0.28799970720224083,2.0936635930940506,-2.4809675049394366
1776228668441142000,4.64714208984375,-0.11539645759239792,2.252962759168446,-2.192939083099365
1776228668460992000,4.666991943359375,-0.939824981637299,2.5199635905489326,-4.128713669177889
1776228668480843000,4.686843017578125,-4.2176188640773296,1.2879139044255017,-5.311026095446944
1776228668500694000,4.706694091796875,-2.059642373287678,0.4035018901914358,-6.721561586412787
1776228668520544000,4.7265439453125,-1.3928934512913227,-0.6266022050470114,-6.201246503698825
1776228668540395300,4.746395263671875,-2.227007356917858,-1.141376020246744,-4.650958258649706
1776228668560246300,4.766246337890625,-1.505814897072315,-1.0449445214956998,-3.8217245262801645
1776228668580096300,4.78609619140625,-0.9915455242633819,-1.1137532693058252,-3.4848803433448072
1776228668599947300,4.805947265625,-0.8397907822191715,-1.4802894106715916,-4.110559003806114
1776228668619798300,4.82579833984375,-0.7100631630659103,-2.349775073930621,-4.327863784125447
1776228668639648300,4.845648193359375,-0.31556349449753757,-3.1971886061131953,-3.7761867639422415
1776228668659499300,4.865499267578125,-0.8230921608746051,-3.3108418733000753,-2.966786443811655
1776228668679350000,4.88535009765625,-0.9420435344696044,-3.033624768331647,-2.334845215824246
1776228668699200300,4.9052001953125,-1.037644427615404,-3.536692948168516,-2.4895471172362567
1776228668719051000,4.925051025390625,-1.2864976078867911,-4.153849279478192,-2.7155618582338095
1776228668738902800,4.94490283203125,-1.599481022763252,-4.479369519844651,-3.0810481982856985
1776228668758752800,4.964752685546875,-1.715747687318921,-5.066383810868859,-3.3138270265907046
1776228668778603800,4.984603759765625,-1.7025597044438123,-4.847106269171833,-2.7779011177688835
1776228668798454800,5.004454833984375,-1.4744377620339393,-3.991941392210126,-2.8623499177813527
1776228668818304800,5.0243046875,-1.2430156090348958,-3.5634617126286026,-2.666850726556778
1776228668838155800,5.04415576171875,0.05517185212373733,-3.4722172611266373,-2.926069818019867
1776228668858006800,5.0640068359375,0.44592422392256553,-3.3121155464977026,-3.4916993757098913
1776228668877856800,5.083856689453125,-0.08807217814140021,-2.5024364094257354,-3.657808806321025
1776228668897707800,5.103707763671875,1.0413210703015328,-1.5075556032598019,-2.3555016348838804
1776228668917558800,5.123558837890625,1.518195801348239,-1.2997872975707054,-1.6247452278792858
1776228668937408800,5.14340869140625,3.4366882671058177,-2.7708126208126544,-2.67781226555407
1776228668957259800,5.163259765625,7.611521882423758,-3.117262251961231,-3.2080425930827854
1776228668977110800,5.18311083984375,6.478776327878236,-2.3673797042042017,-0.5835106668174267
1776228668996960800,5.202960693359375,2.7921055842101574,-0.9810819979161024,0.9366045582860708
1776228669016811800,5.222811767578125,2.970537320777774,-0.46345220876336096,0.4608797279268503
1776228669036662800,5.242662841796875,2.0606172096692026,-0.45662616213560103,-0.1340010586887598
1776228669056513800,5.262513671875,0.9477443764597177,-0.22543547980487344,-0.6875947261482477
1776228669076363800,5.28236376953125,0.7155547462195158,-1.0172118804395198,-0.21499358076751232
1776228669096214800,5.30221484375,0.3231289613157511,-0.9247779268920421,0.15489128650426864
1776228669116065800,5.322065673828125,0.21119250798411665,-1.5941577819138764,-0.8302122220128774
1776228669135915800,5.341915771484375,1.7570289612561463,-2.6495178989619017,-2.7740543792128562
1776228669155766800,5.361766845703125,0.768421170945093,-2.7840257381290194,-4.212250615042448
1776228669175617800,5.38161767578125,-0.5602320825606584,-1.7271002714604138,-5.3750172138422725
1776228669195467800,5.4014677734375,-1.479818870550394,-1.6021756686747073,-6.728187142032384
1776228669215318800,5.42131884765625,-2.3330057254374026,-1.277971187081933,-7.523376565980911
1776228669235169800,5.441169677734375,-3.0305390772759915,-0.7252309215813875,-8.069554988747834
1776228669255019800,5.461019775390625,-3.4958559108674523,-0.057821782110631464,-7.5829580512404435
1776228669274870800,5.480870849609375,-2.3796447270154952,0.8118947672948241,-7.038726086366176
1776228669294721800,5.5007216796875,-1.2788918090581893,1.3128066458806396,-5.204339744663238
1776228669314571800,5.52057177734375,-0.9650608374416828,1.8870938495397567,-3.740041683849692
1776228669334422800,5.5404228515625,-1.007216483060643,2.2917241592392323,-2.1743349203944207
1776228669354273800,5.560273681640625,-0.899297594807297,2.4689506116703153,-1.384813605210185
1776228669374123800,5.580123779296875,-1.2728268099308013,2.6095211118772625,-0.6407347752958535
1776228669393974800,5.599974853515625,-1.9560709396541118,2.889953379499912,0.6175842013329267
1776228669413825800,5.61982568359375,-1.957275054746866,3.2533547299712895,1.548266383832693
1776228669433675800,5.63967578125,-0.6770517048239707,3.645228433950245,2.700443199557066
1776228669453526800,5.65952685546875,0.062416379891894753,3.853010475903749,3.6812107246965167
1776228669473377800,5.679377685546875,0.011317549360729753,4.165077944979071,4.215442104560137
1776228669493228800,5.699228759765625,-1.1180196945786476,4.407504599334299,4.205806261208653
1776228669513078800,5.719078857421875,-2.0000281548023224,4.726937044219673,4.083097580906749
1776228669532929500,5.738929443359375,-1.7615408857226371,4.9447752007633445,4.077205015736818
1776228669552780800,5.75878076171875,-0.902447948596999,5.172297423714399,4.064709106779098
1776228669572630800,5.778630859375,-0.7723324261046945,5.39522004391551,4.141485472467542
1776228669592481800,5.798481689453125,-1.5534055002868175,5.790342812818288,4.349464790558815
1776228669612332800,5.818332763671875,-2.224813207874447,6.489517502123117,4.400405288723111
1776228669632182800,5.838182861328125,-1.274657678619772,7.079968781858682,3.581078033339977
1776228669652033800,5.85803369140625,-0.5449953504621983,6.8431567525148385,2.4140982007592915
1776228669671884800,5.877884765625,-0.3322995252430439,5.718081878727674,2.3423902243763206
1776228669691734800,5.89773486328125,0.12178981189131736,4.905321726775169,2.88283273383975
1776228669711585800,5.917585693359375,0.038284868600219485,4.879529990653693,3.204188255742192
1776228669731436500,5.9374365234375,-0.7876724724471569,5.215328756189346,3.196201933163404
1776228669751286500,5.95728662109375,-0.8492917471446096,5.5889183231979604,3.1024492982327936
1776228669771137800,5.9771376953125,-0.38689511184878644,5.781287984225154,2.699265972471237
1776228669790988800,5.99698876953125,-0.6816987269122153,5.553534290605783,2.482084526270628
1776228669810838800,6.0168388671875,-0.8401696985341608,4.4690006860435005,2.1894120780169963
1776228669830689800,6.036689697265625,-1.2335060224115848,4.053131481710076,1.4241197796821594
1776228669850540500,6.05654052734375,-1.1145429583787918,4.190634703300893,0.6644459057509898
1776228669870391600,6.0763916015625,-0.7817150253474712,4.5101030962824815,-0.4704723166584968
1776228669890241500,6.096241455078125,-0.5048270062029362,4.579646880368888,-1.9406144273251293
1776228669910092500,6.116092529296875,-0.3423275097172707,4.029460391004383,-3.4009780712991953
1776228669929943600,6.135943603515625,-0.9485913486778735,3.69651701489985,-4.392898858615756
1776228669949793500,6.15579345703125,-1.3424959739625453,3.57197118229866,-4.378385764616728
1776228669969644500,6.17564453125,-0.8857587526679038,3.5691286523491144,-4.613826505607366
1776228669989495600,6.19549560546875,-0.048666123491525645,2.2314538149327037,-5.252283399099111
1776228670009345500,6.215345458984375,0.4400222333371639,0.7436334242343902,-5.811916346722841
1776228670029196500,6.235196533203125,0.279672699693311,-0.8520265789359808,-6.141537008145451
1776228670049047800,6.2550478515625,-0.2938508626495488,-2.0517618491709233,-5.793202878424525
1776228670068898600,6.274898681640625,-0.37605449581742284,-3.062699471646547,-5.667301539561152
1776228670088748800,6.294748779296875,0.4206523469567299,-3.7631928423345085,-5.117956761717796
1776228670108599600,6.314599609375,1.0803443361788987,-4.7147360265552996,-4.866726330921054
1776228670128450600,6.334450439453125,1.5299860462546349,-5.276784803149104,-5.686155877634882
1776228670148300500,6.354300537109375,1.2528519433945418,-6.170416481149196,-6.414543217420578
1776228670168151600,6.374151611328125,0.8444324705451727,-6.130571962016821,-6.451459281885623
1776228670188002600,6.39400244140625,0.8353045767158269,-6.30110914594233,-5.95309942587018
1776228670207852500,6.4138525390625,1.0627373678177594,-6.23648557486236,-6.279962897539138
1776228670227703600,6.43370361328125,1.558322498422861,-6.339984527781605,-6.3666206057727335
1776228670247554600,6.453554443359375,1.733603077483177,-5.826378002795576,-6.619822044381499
1776228670267404500,6.473404541015625,2.1562585809558628,-5.454425097078085,-6.490075720527768
1776228670287255600,6.493255615234375,2.365213466081023,-5.501041886824369,-6.707207482367753
1776228670307106600,6.5131064453125,2.0385832186460493,-5.977662789240479,-6.690905166864395
1776228670326957800,6.532957763671875,1.3124842820584772,-5.9260319707244635,-6.282834069061279
1776228670346807800,6.552807861328125,0.4126514113306999,-5.123763402169943,-6.326233650326729
1776228670366658600,6.572658447265625,0.322099618268013,-4.474029912382364,-5.930785887253284
1776228670386509600,6.592509521484375,0.06480946730719879,-3.5487399443149563,-5.290470214152336
1776228670406359600,6.612359619140625,-0.24870295814573765,-3.283178205826878,-4.897192196333408
1776228670426210600,6.63221044921875,-1.0073732079923152,-2.434491000446677,-4.986323016682267
1776228670446061600,6.6520615234375,-2.2078502365052697,-1.226468963381648,-6.605268618372082
1776228670465911600,6.67191162109375,-3.03695712762475,-0.04249883303344249,-7.7721864916324614
1776228670485762600,6.691762451171875,-3.055687547057867,1.8847738821595905,-7.807489275681972
1776228670505613600,6.711613525390625,-2.4665865128874778,3.414356023788452,-7.823015346115827
1776228670525464600,6.731464599609375,-2.5188626435697077,3.865310570028424,-7.832890843442082
1776228670545314600,6.751314453125,-2.393664922931045,5.7745186362206935,-7.065860177007317
1776228670565165600,6.77116552734375,-2.0824387269854543,6.903375951156019,-5.446235360881686
1776228670585016600,6.7910166015625,-2.105140388137102,7.513917832762003,-3.731822721558809
1776228670604866600,6.810866455078125,-2.2129168722450734,7.301988900262117,-1.899236122754216
1776228670624717800,6.8307177734375,-2.083940948241949,7.461499078738689,-0.12706862907707692
1776228670644568600,6.850568603515625,-1.8102900113224982,7.349575411823391,1.3833207363039255
1776228670664418800,6.870418701171875,-2.1420085218071936,6.928041021335124,2.305527935925126
1776228670684269600,6.89026953125,-2.3366437896788117,6.53915743908286,3.2072552420973777
1776228670704120600,6.91012060546875,-2.4552350977897643,6.950155822509527,3.743892514058947
1776228670723971600,6.9299716796875,-2.6665760012686253,6.9338704581409685,4.565770622968674
1776228670743821300,6.9498212890625,-2.084567555707693,6.7243065012067555,5.2150481856822966
1776228670763672300,6.96967236328125,-1.1963093874394892,6.7713570061951875,5.437911184650659
1776228670783523300,6.9895234375,-0.6973205858707427,7.218502807801961,5.579934806275367
1776228670803373300,7.009373291015625,-0.8123287747979163,7.484929054164886,5.989953531014919
1776228670823224300,7.029224365234375,-1.2290063729047775,7.587543625465035,5.979597556695341
1776228670843075300,7.049075439453125,-1.5383096379637717,7.95701114410758,6.054112407192587
1776228670862925300,7.06892529296875,-1.3637901064038276,7.518067353656887,5.844395305523276
1776228670882776300,7.0887763671875,-1.1772095501720905,6.829049901229142,5.759943582901358
1776228670902627300,7.10862744140625,-1.1679741043150424,6.659567779314518,5.492766810432076
1776228670922478000,7.12847802734375,-1.3372516435682773,6.850350463411211,5.049133985382318
1776228670942328300,7.148328369140625,-1.4907809940695762,6.82381375414133,4.599194753664731
1776228670962179000,7.168178955078125,-1.036118825483322,6.295199045115709,4.232477410513162
1776228670982030300,7.1880302734375,-0.5825789389252662,6.030139995452761,3.8402912795841693
1776228671001880000,7.207880126953125,-0.1944727707862854,5.847772673001885,3.2752579342216253
1776228671021731300,7.2277314453125,-0.061171384799480436,6.398634869670867,2.3885382275670763
1776228671041582300,7.247582275390625,-0.4374340069422498,6.7545046555936334,2.192581355702877
1776228671061433300,7.267433349609375,-0.8597674023211002,6.192251880860328,1.5408254201769829
1776228671081283300,7.287283447265625,-1.2836042245328425,5.601566207846999,-0.40461774247884746
1776228671101134300,7.30713427734375,-1.035166054803133,4.807224925160408,-2.216792836895585
1776228671120985300,7.3269853515625,-0.6429694024801254,4.3079824410915375,-3.4976737739443777
1776228671140835300,7.34683544921875,-0.4576186803042888,4.384465376791358,-4.222416619747877
1776228671160686300,7.366686279296875,-0.7647399251490831,4.204724895712733,-4.976014973157644
1776228671180537300,7.386537353515625,-1.0401567026972771,3.5373423519879577,-5.467008684319257
1776228671200387300,7.40638720703125,-0.8513584704160689,2.959904283082485,-6.181479142433404
1776228671220238300,7.42623828125,-0.6337853945493698,1.8109756554991006,-6.969506419667601
1776228671240089000,7.446089111328125,-0.31050796467363834,0.4489104731917381,-7.3625167264610525
1776228671259940400,7.4659404296875,0.098142430854775,-0.7370236507058143,-7.750248216068744
1776228671279790000,7.4857900390625,0.8025707663714885,-2.2745599662095306,-7.928247990959882
1776228671299641300,7.505641357421875,1.368332426008582,-3.324326793295145,-7.841445905819535
1776228671319492400,7.525492431640625,1.668990027797222,-4.065514577943087,-7.6596730421304695
1776228671339342300,7.54534228515625,1.9573183093667028,-4.47968925331831,-7.614235817557573
1776228671359193300,7.565193359375,2.43756207845509,-5.039513339599966,-7.445168121662736
1776228671379044400,7.58504443359375,3.068708941194415,-5.324079638287425,-6.8739633941888805
1776228671398895400,7.604895263671875,3.360782254511118,-5.402003420445323,-6.244475404572486
1776228671418745300,7.624745361328125,3.3096295749008653,-5.232175261572003,-5.730335795623064
1776228671438596400,7.644596435546875,2.733052506738901,-5.267691980633139,-5.077686710649728
1776228671458447000,7.664447021484375,2.0538199507445096,-4.941936177945137,-4.6844577926695345
1776228671478297300,7.68429736328125,1.7946382686823605,-4.24579807985723,-3.2867978576287626
1776228671498148000,7.704148193359375,2.8186083912104367,-3.8205209957093,-2.4546564211189748
1776228671517999000,7.7239990234375,4.028549998161196,-3.2934634529978033,-3.265225200507045
1776228671537850400,7.743850341796875,3.181916218179464,-2.949419129425287,-4.387552821412682
1776228671557700000,7.7637001953125,1.2632447425931692,-3.000289484962821,-5.246213723796606
1776228671577551400,7.78355126953125,0.4278302026968449,-2.2526111692517996,-6.063754095762968
1776228671597402400,7.80340234375,-0.5078624649086967,-1.9520722254067657,-6.25110797445476
1776228671617253400,7.82325341796875,-2.044692056915164,-1.2077040571570397,-5.850614033907652
1776228671637103400,7.843103271484375,-2.9136066422879696,0.34057518615722654,-5.0435687524706125
1776228671656954400,7.862954345703125,-2.8855589439332485,2.0285884788542985,-4.247033174610138
1776228671676805400,7.882805419921875,-2.2201883245527743,3.094582218119502,-2.8890561383992432
1776228671696655400,7.9026552734375,-1.5934394045114517,4.1950335227817295,-1.4402280339181421
1776228671716506400,7.92250634765625,-1.1216694492578505,4.9178340023458,-0.8178963457971811
1776228671736356600,7.942356689453125,-0.8258908516824245,5.1514738313943145,-0.26189035649895664
1776228671756207600,7.96220751953125,-0.6741887166082858,4.9758361094594,0.6089496439784765
1776228671776057600,7.9820576171875,0.17953538696058094,5.439076721298695,1.8808581700205802
1776228671795908600,8.00190869140625,0.39542080200128255,5.638282950347661,2.664023394176364
1776228671815759600,8.021759521484375,0.11518069594986736,5.36679825155139,2.91013692035079
1776228671835609600,8.041609619140624,0.14910108573026953,5.225991604501009,3.0662369981229305
1776228671855460600,8.061460693359376,0.4738591095525771,4.998296947592497,3.0069536190271378
1776228671875311600,8.0813115234375,0.5613016114883125,4.445554636265337,2.8975913270324467
1776228671895163000,8.101162841796874,0.8855759434469044,3.6312609911352394,2.1366075395464894
1776228671915012900,8.121012939453125,1.922020347622782,2.7459575810194012,0.7325988200008868
1776228671934864000,8.14086376953125,3.5178660826236006,1.8622125062614678,-0.5618693283736705
1776228671954715000,8.16071484375,3.9058231976807116,2.348784893849492,-0.4878700261831283
1776228671974564900,8.18056494140625,2.275146826186776,2.9038711379542943,0.39986967116892336
1776228671994415900,8.200415771484375,1.221170856973529,3.307396409021318,2.291150451004505
1776228672014266600,8.2202666015625,1.0151794978290796,3.808756323635578,3.8793332501620053
1776228672034117600,8.24011767578125,2.2937696935921905,3.6134009247958656,4.469513311740756
1776228672053967600,8.259967529296874,1.7749106549054383,3.0732819481983777,3.7652182106822725
1776228672073818600,8.279818603515626,0.8172814287692308,2.1527306990906596,2.2619173422574996
1776228672093669600,8.299669677734375,1.5571896950006483,1.8585393707066773,1.628823437103629
1776228672113520600,8.319520751953124,2.382701776498556,1.6635437450900672,1.3935557145923376
1776228672133370600,8.33937060546875,2.53957868386209,1.7624983325779437,1.4627566765904425
1776228672153222000,8.359221923828125,2.791776498386264,2.0311472234264016,1.6354589295953512
1776228672173073000,8.379072998046874,1.2674158907979727,2.1061153706490994,1.618461617565155
1776228672192923000,8.3989228515625,-0.3584457738906145,1.828166736535728,0.787832631444931
1776228672212774000,8.41877392578125,-1.2254951499134301,1.1958552139312029,0.48044426009654995
1776228672232625000,8.438625,-0.6606430063366889,1.357549166187644,1.5817267548859117
1776228672252475600,8.4584755859375,-1.5726608203768728,2.0777660589992997,3.268193987184763
1776228672272325600,8.47832568359375,-3.0169127029836176,1.2223150585725904,2.3628391381651164
1776228672292176600,8.4981767578125,-2.0427625501573083,-0.11389993542432784,1.0240332508921623
1776228672312027600,8.518027587890625,0.314566884675622,-0.0487029483705759,0.6028647711068391
1776228672331877600,8.537877685546874,-0.06922668096125126,0.4203589169681072,0.6820499515026808
1776228672351728600,8.557728759765626,-0.572068066304922,1.0256269498243928,0.8750742770463228
1776228672371579600,8.57757958984375,-1.058207907694578,1.684395102199912,1.114095214611292
1776228672391430700,8.5974306640625,-0.8586883749127387,-0.8599746153309941,-2.282647411075234
1776228672411280600,8.61728076171875,0.973960183212161,-2.2484540495723486,-5.492852150627971
1776228672431132000,8.6371318359375,2.7415573002338407,-0.9740405549719929,-3.8376685298651454
1776228672450983000,8.65698291015625,3.774254919096827,-1.1901380053281783,-2.651620424199104
1776228672470833700,8.676833740234375,2.2547312301456928,-0.7765425911456346,-1.941855367296934
1776228672490684000,8.696683837890625,1.880660601621866,-1.4637643923282622,-2.0609891117215153
1776228672510534700,8.71653466796875,3.2655349971085785,-0.8438195993438362,-1.5286960064440964
1776228672530385700,8.7363857421875,3.073037910309434,0.17993863399922846,0.008738602250814437
1776228672550236700,8.756236572265625,1.174008123782277,0.8140849708154797,0.8029197259396315
1776228672570086700,8.776086669921876,-0.3180079650402069,0.5135512876674533,0.722450935474038
1776228672589937700,8.795937744140625,-1.300783907392621,0.3052744479343295,-0.3799900817006826
1776228672609788700,8.81578857421875,-1.4107739758968352,1.20015934086591,-0.2850923683881759
1776228672629638700,8.835638671875,0.4448328484892845,0.9496016947641969,-0.488094482588768
1776228672649489700,8.85548974609375,0.3697404903650284,-0.9358324048697948,-2.6729291696876287
1776228672669341000,8.8753408203125,-0.4299655342251062,-1.0389213156834245,-3.4629251166462898
1776228672689192000,8.89519189453125,-0.7614584192603826,-0.4203799597561359,-2.848431282544136
1776228672709042000,8.9150419921875,0.5270452677518129,-0.7791776158243418,-1.9845020843684673
1776228672728892700,8.934892578125,2.0270833349883555,-2.040062643548846,-1.9879227064669132
1776228672748743400,8.954743408203125,5.145936655533314,-0.8241615436717867,2.720584654831886
1776228672768594400,8.974594482421875,4.174429710692167,0.015099077193439005,2.509680973726511
1776228672788444400,8.9944443359375,0.5639210002064704,-0.743387632779777,1.0898837334185838
1776228672808295400,9.01429541015625,-1.859498571127653,-0.31891105135977266,1.6110393586099148
1776228672828146700,9.034146728515625,-0.6373708518207073,-0.4025035268038511,2.5953058317810296
1776228672847996700,9.05399658203125,-0.162884038823843,-1.61215784124583,1.9427993701487778
1776228672867847700,9.07384765625,-0.5031576116859913,-1.330071961197257,1.7674919030815361
1776228672887698700,9.09369873046875,-1.3549340152531861,-1.452692086432874,0.8045277456581592
1776228672907549700,9.1135498046875,-2.040288853520155,-1.8269991540610788,-0.6655652651697397
1776228672927399700,9.133399658203125,-2.3219933330357074,-2.435542847587168,-2.280031091096997
1776228672947250700,9.153250732421874,-1.76640293880105,-2.3170427248910066,-2.93585471445322
1776228672967101700,9.173101806640625,-1.4399369420170782,-2.1573186114028093,-2.45274386549592
1776228672986952400,9.192952392578125,-1.2885410964131354,-1.731247746528685,-1.6056535739183424
1776228673006802400,9.212802490234376,-0.4744944117814302,-1.9166113281860946,-1.1683540435433386
1776228673026653400,9.2326533203125,0.3015408143639564,-1.6055550819799302,-0.7708692216843366
1776228673046504400,9.25250439453125,-0.8923007216572761,0.05540975253283977,0.1953957308501005
1776228673066355700,9.272355712890626,-3.4897593475580213,2.610556300143897,2.483841014549136
1776228673086205700,9.292205810546875,-5.097915844208002,2.3439140729427335,2.32886964854598
1776228673106056700,9.312056640625,-4.164204961536824,1.4933061286330223,1.4566379014492035
1776228673125907700,9.33190771484375,-2.5740380028247833,0.7219888709202409,0.0401806192189455
1776228673145758700,9.3517587890625,-2.326438037484884,0.9297681363947689,-0.07957213388681411
1776228673165608700,9.371608642578124,-3.7314658709451556,2.0026086728148162,0.28422610694766043
1776228673185459700,9.391459716796875,-3.055670595923066,1.5302430897556245,-0.4225970512837171
1776228673205310500,9.411310546875,-1.7900687688097356,1.1815234678484499,-1.547678939333558
1776228673225160700,9.43116064453125,-0.9702905547887086,0.6444317301176488,-1.5391168626934288
1776228673245011500,9.451011474609375,-0.8000923935592174,-0.009319178617745637,-1.8518097701907157
1776228673264862500,9.470862548828125,-0.38767420646250245,0.10972710671909153,-1.507079802441597
1776228673284713500,9.49071337890625,-0.5979588788866996,0.07253215224742889,-1.2573644523829222
1776228673304563500,9.5105634765625,-0.5125584772378206,-0.19875464935656637,-0.6965308967977761
1776228673324414500,9.53041455078125,-0.4337567432016134,-0.5010970624269917,-0.550486349093914
1776228673344265700,9.550265625,0.30965748532414433,-0.7882954266510903,-0.4460696968078613
1776228673364116700,9.57011669921875,1.545036315870285,-0.7390864284545183,-0.7059551432251929
1776228673383966700,9.589966796875,2.279886129668355,-0.4326002666428685,-0.3744301094859838
1776228673403817700,9.609817626953125,2.4458406619787216,-0.025724954495579003,0.311476517444849
1776228673423668700,9.629668701171875,2.0450936234533788,0.25730032529495656,0.8998930764824151
1776228673443519500,9.64951953125,2.041616887253523,0.4742566575028002,1.2022674190610647
1776228673463369700,9.66936962890625,2.0420108550071716,0.7540782458811998,1.3572960682094097
1776228673483220500,9.689220458984375,1.8768629629045723,0.9685309977702796,0.8537275376349687
1776228673503071500,9.709071533203126,1.5805173790961502,1.0844535250633955,0.7928203567296266
1776228673522922500,9.728922607421875,1.4107605318933725,0.9740674429789185,0.8299240527212619
1776228673542772500,9.7487724609375,1.1004723474502562,0.755118694844842,0.1746218228906393
1776228673562623500,9.76862353515625,1.0796996085345745,0.594214285530895,-0.2361258006453514
1776228673582474800,9.788474853515625,1.7229460743904113,0.2072960120022297,-0.29678105261623855
1776228673602325800,9.80832568359375,1.988999395787716,-0.1463593127414584,0.18344284272789954
1776228673622175700,9.82817578125,1.486922565075755,0.021440262913703916,0.6030512335896492
1776228673642026800,9.84802685546875,0.5980734451770782,0.6048182432621717,0.7288906131327152
1776228673661877800,9.867877685546874,-0.1708919887125492,0.27545155660063025,0.2878957353711128
1776228673681728500,9.887728515625,-0.3464765191555023,0.039079379978775974,-1.3447002060085533
1776228673701578500,9.90757861328125,-0.17637421951591967,-0.08237287052124738,-1.087718079817295
1776228673721429500,9.927429443359374,-0.24592121847271917,0.7989578365713358,0.04679857605397701
1776228673741281300,9.94728125,0.13399813607931135,0.6713938251927495,-0.045727731952071186
1776228673761132300,9.96713232421875,0.4363105193376541,0.43005818094462156,-0.5718991394788027
1776228673780982300,9.986982177734374,0.7424146960943937,0.4720917345538735,-0.7716928130269051
1776228673800833300,10.006833251953125,0.5750801076024771,0.5282245406642556,-0.7680570868730544
1776228673820684300,10.026684326171875,0.6194248607635497,0.5501698304906487,-0.23936989713311194
1776228673840535000,10.04653515625,0.2862567359924316,0.7471028539106249,0.4836620530992746
1776228673860385300,10.06638525390625,0.048341713842749594,0.9973296606227755,0.6474719745963812
1776228673880236000,10.086236083984375,0.14284370583593844,0.7830912821367383,0.6808803232014179
1776228673900087000,10.106087158203126,0.42993280099928377,0.25357114870399233,-0.23288696485459803
1776228673919937000,10.12593701171875,-0.23616204100251195,-0.01611146910637617,-0.8678013634338975
1776228673939788300,10.145788330078124,-0.2946013704895973,0.34396219824701546,-0.45643443895578384
1776228673959639300,10.165639404296876,0.2537760236263275,0.7783101853400468,0.2508645200937986
1776228673979490300,10.185490234375,0.33749943197369575,0.7213216391831636,0.4458320886597037
1776228673999340300,10.20534033203125,0.03984685721993446,0.583094194971025,-0.09162672881782054
1776228674019191300,10.22519140625,-0.18957681543827057,0.6663780428573489,-0.19171821138113737
1776228674039042300,10.245042236328125,0.18095687113106249,0.8458785777002572,0.1332841425910592
1776228674058893300,10.264893310546874,0.3822410754978657,0.9125415456533431,0.5291144752413034
1776228674078743300,10.284743408203125,-0.22529928620457648,0.961108300423622,0.5758496306702494
1776228674098594300,10.30459423828125,-0.6518681637287139,0.8413087855666875,0.018655892892181874
1776228674118445000,10.324445068359376,-0.6112526602238416,0.6132634155243635,-0.37808395581841464
1776228674138296000,10.344296142578125,-0.5046826292961836,0.41861411912739277,-0.7422279413506389
1776228674158146000,10.36414599609375,-0.09810673848688602,0.27321488358974455,-0.6141796535864472
1776228674177997000,10.3839970703125,-0.2838233713656664,0.565785040512681,-0.1672074549809098
1776228674197848300,10.403848388671875,-0.43222821846008297,0.49835225723087784,-0.11404197424352168
1776228674217699300,10.42369921875,-0.4811187983572483,0.09171031544804573,-0.5856295586675405
1776228674237549300,10.44354931640625,-0.3289747647345066,-0.11614099234938621,-0.6148422091484069
1776228674257400300,10.463400390625,-0.2752607102036476,0.22563246368169784,-0.29063159007579087
1776228674277251300,10.483251220703124,-0.6409796899676322,0.45298225267529485,-0.38709114587754007
1776228674297102300,10.503102294921876,-0.4742079960554838,0.11462824969887733,-0.6937804290458559
1776228674316952300,10.522952392578125,-0.2631926712691784,0.07332768653929234,-0.7063368360191583
1776228674336803000,10.542802978515626,0.26874913635253905,0.13708207356929777,-0.3354752326697111
1776228674356654000,10.562654052734375,-0.003356324690580368,0.34710254209935665,0.10431786808669566
1776228674376505000,10.582505126953125,-0.09944821622371673,0.36209026787281035,0.1575219272688031
1776228674396355000,10.60235498046875,-0.12094225515127181,0.27206805164217945,0.06961188088655472
1776228674416206000,10.6222060546875,-0.4358434863477945,0.4136141188830137,0.12777356247603894
1776228674436057300,10.642057373046875,-0.6871984203070401,0.20113982746005057,-0.2849035678178072
1776228674455908400,10.661908447265626,-0.8395008593618869,-0.09770400290489197,-0.5464306439623237
1776228674475758300,10.68175830078125,-0.6133125153630972,0.04717091649770736,-0.308805836930871
1776228674495609300,10.701609375,-0.455814845752716,0.15555004267394543,0.06770283239483833
1776228674515460400,10.72146044921875,-0.8493459615498781,-0.07143500466048718,-0.2761430459961295
1776228674535311000,10.74131103515625,-1.2628314856171607,-0.061086044603586194,-0.5965376139119267
1776228674555161300,10.761161376953124,-1.3361188401460646,-0.08169336382448673,-0.6189771169960498
1776228674575012000,10.78101220703125,-1.2201380067944525,0.0718868400812149,-0.3906961846321821
1776228674594863000,10.800863037109375,-1.1616162597209214,-0.03912380364239216,-0.5256394926071166
1776228674614714000,10.820714111328124,-1.0982920808017254,-0.31002807220220563,-0.5732064226850867
1776228674634564000,10.840564208984375,-1.0483341639339923,-0.2780564784020185,-0.421385045145452
1776228674654415000,10.8604150390625,-1.3860101215183733,-0.304109788069129,-0.7781850976556539
1776228674674266400,10.880266357421876,-2.2941320971637964,-0.6746545805543661,-1.4938365822479127
1776228674694117400,10.900117431640625,-2.9398084205150603,-0.6071738664776086,-1.90996180716902
1776228674713967400,10.91996728515625,-2.604355984199047,-0.2314630695313215,-1.5804329156830905
1776228674733819000,10.93981884765625,-0.12770575793683528,0.012464344775676726,-0.6406450511857867
1776228674753669600,10.959669677734375,-0.7322726567864417,2.4277403571426865,-0.48499213265925645
1776228674773521000,10.97952099609375,3.504821892133355,2.23642225099504,3.151640030120313
1776228674793371000,10.999370849609376,3.805286017176509,2.112673121729493,3.218847187952697
1776228674813222000,11.019221923828125,2.00432205260396,0.740623721024394,0.178980894882977
1776228674833073000,11.039072998046874,-1.7868290562361477,-0.03204728938490152,-1.602834717105329
1776228674852924000,11.058923828125,-2.959697362333536,-0.04416910433322191,-2.55576760211885
1776228674872774000,11.07877392578125,-1.4256027117162942,-0.5929670619487762,-2.1835253580659626
1776228674892625000,11.098625,0.1532417657315731,-0.3232441121280193,-0.8681570450037718
1776228674912476000,11.118475830078125,1.3833598992705345,-0.23801439087092874,0.2449696168363094
1776228674932327000,11.138326904296875,1.2967226493030786,-0.2651286077678203,0.020068390038609503
1776228674952177000,11.158177001953124,0.678007982635498,-0.5072562791764735,-0.49378655675053595
1776228674972028000,11.17802783203125,0.9844856688797473,-0.726181061913073,-0.3272930952578783
1776228674991878700,11.197878662109375,1.033422426006198,-0.32954496583789583,0.04458908331096172
1776228675011730000,11.21772998046875,1.5054332042783498,-0.0724377519622445,0.3792933316081762
1776228675031580000,11.237579833984375,3.1508518023520704,-0.21249124255776405,0.8001210351318121
1776228675051431000,11.257430908203125,2.8559891505777832,-0.42161213189959523,1.498845642581582
1776228675071282000,11.277281982421876,1.9690555089116095,-0.49672524055093525,1.1356330926805733
1776228675091133000,11.2971328125,-1.4043015650123356,-0.9490262329638004,-0.07357084764540195
1776228675110984000,11.31698388671875,-3.0642110452532765,-1.1078851079247891,-0.9972802685230969
1776228675130834000,11.336833984375,-2.3863263967365027,-0.9504530508965253,0.32738194258511066
1776228675150685000,11.356684814453125,-1.4977596009105443,-1.0887503454744816,1.2966188966676593
1776228675170535700,11.37653564453125,-1.058911087527871,-0.008767974475771188,1.735820753532648
1776228675190386000,11.396385986328125,-0.16461656170487404,-0.9462154133267701,-0.20908698707222936
1776228675210236700,11.416236572265625,-0.18335633348822591,-1.5322874550648033,-1.604820922486484
1776228675230087700,11.436087646484374,0.6117547645270824,-1.8789456143975256,-2.6429551794454453
1776228675249939000,11.45593896484375,0.4748562308311462,-1.4630540521018207,-1.1840148462727664
1776228675269790000,11.4757900390625,-2.3288632188051936,0.47020372885018585,1.68337277341485
1776228675289640000,11.495639892578126,-1.709197535023093,0.9076192868202925,0.7463108267500996
1776228675309491000,11.515490966796875,-0.560337296500802,-0.2720730200782418,0.6053031041696667
1776228675329342000,11.535342041015625,-0.058140638801455494,-1.214775310717523,-0.35797990994453427
1776228675349193000,11.55519287109375,-1.2673954325318335,-1.0678180320829151,-0.6288795023292303
1776228675369043000,11.57504296875,-2.6160247946828603,-0.2731470790505409,0.5252294505015015
1776228675388894000,11.59489404296875,-2.2542039914011953,-0.2693471022456884,-0.39484497487470505
1776228675408744700,11.61474462890625,-1.1261731904178858,-0.8816355352580547,-0.5537950352504849
1776228675428595700,11.634595703125,-0.48714054286479946,-0.33939474420100446,-0.21167013543322682
1776228675448445700,11.65444580078125,-0.8133698082834482,0.5577797209724784,0.21596578680053352
1776228675468296700,11.674296630859375,-0.6163391697078943,0.2928589107364416,-0.5732715968757868
1776228675488148000,11.69414794921875,0.051069092980027195,0.06797989577054978,-0.4624202353671193
1776228675507999000,11.7139990234375,1.6308201638787985,0.5179378321886062,-0.1388859081208706
1776228675527849000,11.733848876953125,1.4395762920111417,-0.45364714632481334,0.24814298617541788
1776228675547700000,11.753699951171875,0.6076783088684081,-0.6121501935854554,0.5004550747290253
1776228675567551000,11.773551025390624,1.4830337409436702,0.2836629201069474,0.2193032606601715
1776228675587402000,11.793402099609375,0.3669102353751659,1.0020499671429395,-0.05083849909454584
1776228675607252000,11.813251953125,1.2032558455765248,0.8605629366129637,-0.5286397704016417
1776228675627103000,11.83310302734375,1.155581655731797,0.6269023570373654,-0.9807862298399209
1776228675646953700,11.85295361328125,1.5447791262388229,0.5715650852188467,-0.4568931425087154
1776228675666804700,11.8728046875,1.0349965434551238,0.715884416565299,-0.2926545472707599
1776228675686654700,11.89265478515625,0.8674971197903156,1.5155745129339395,-0.5740243149392307
1776228675706505700,11.912505615234375,0.5046054724067449,1.6896555069461463,-0.8532634272545575
1776228675726356700,11.932356689453124,1.0235878452122211,1.119311926346272,-0.3830353676807135
1776228675746206700,11.952206787109375,1.481105403229594,0.3522438505105674,0.017319383591413495
1776228675766056700,11.972056640625,1.2114116795033216,0.18495251663848758,0.15253053045598788
1776228675785907700,11.99190771484375,1.1931354335784912,0.17141762002184985,0.21338486692924052
1776228675805758700,12.0117587890625,0.409935722631216,0.2762361311070621,-0.2243569638531655
1776228675825609700,12.031609619140625,0.5727835210978984,-0.09519844982475041,-0.19592435783408582
1776228675845459700,12.051459716796876,0.8849252244532108,-0.06569646100848912,0.062291662100260145
1776228675865310700,12.071310791015625,1.0646744733601807,0.12006605683863163,0.2500647114856169
1776228675885162000,12.091161865234374,1.2540847000598907,0.1337207804426551,0.4212875761203468
1776228675905012700,12.1110126953125,0.7386585584312677,0.17323840570822358,0.2649923959012143
1776228675924863000,12.130863037109375,0.40720249827504157,0.4504147402748465,-0.11067689999090508
