time,seconds_elapsed,z,y,x
1776228663875490800,0.08149072265625,-8.553469555303455,-4.520245427851378,1.60496792974174
1776228663895341800,0.101341796875,-8.547327983808517,-4.5225437679216265,1.631001657925546
1776228663915191800,0.12119189453125,-8.539374394455551,-4.52974478534162,1.6525374901682137
1776228663935043000,0.14104296875,-8.541953889554739,-4.529435573261976,1.6400065098971128
1776228663954894000,0.16089404296875,-8.557291159418225,-4.520613384380936,1.5834147079728542
1776228663974744000,0.180744140625,-8.571693194258213,-4.514507760982215,1.5217350813902915
1776228663994595000,0.200594970703125,-8.57507231530249,-4.5182618528187275,1.4912500728860496
1776228664014446000,0.220446044921875,-8.572187115254998,-4.526162250679731,1.48386405428797
1776228664034296000,0.240296142578125,-8.56996359398663,-4.5340433593183755,1.4726030939526855
1776228664054147000,0.26014697265625,-8.57272429087162,-4.540012496855855,1.4377305180139839
1776228664073998000,0.279998046875,-8.577005913713574,-4.54804996509999,1.3858562461309134
1776228664093848000,0.29984814453125,-8.57513018296957,-4.567610113355517,1.332091484326124
1776228664113699000,0.319698974609375,-8.565174606144428,-4.5950081156298515,1.3015642441153525
1776228664133549800,0.3395498046875,-8.555748606151342,-4.6181174807995555,1.2816155349336564
1776228664153400000,0.359400146484375,-8.547493988025188,-4.639986782780289,1.2574806261084972
1776228664173250800,0.379250732421875,-8.542269531375169,-4.657978074283897,1.2260730959318578
1776228664193101800,0.399101806640625,-8.542055011841654,-4.670784656625986,1.177899797458574
1776228664212951800,0.418951904296875,-8.543363171830773,-4.6838083888500925,1.1150194167841225
1776228664232802800,0.438802734375,-8.542795601075888,-4.700834926974773,1.0455511821519583
1776228664252654000,0.458654052734375,-8.543843064302205,-4.71044505136311,0.9923891354806721
1776228664272504000,0.478504150390625,-8.5538126696527,-4.697099832099676,0.9694968471277504
1776228664292355000,0.49835498046875,-8.58374428205788,-4.644792429496348,0.9568809650521725
1776228664312206000,0.5182060546875,-8.62794641187787,-4.565556395696103,0.9405399249736219
1776228664332056000,0.53805615234375,-8.674419409239292,-4.47969772888571,0.9258156724419444
1776228664351907000,0.557906982421875,-8.718961730799078,-4.39272350204885,0.9241630098640918
1776228664371758000,0.577758056640625,-8.765816420954465,-4.297418669240177,0.9289997823707759
1776228664391608000,0.597608154296875,-8.805592551025748,-4.212306729143858,0.9425468078166246
1776228664411459000,0.617458984375,-8.83164059999585,-4.150410537201166,0.9729355163395405
1776228664431309800,0.637309814453125,-8.848727343875169,-4.104418893615901,1.0120045210547746
1776228664451160000,0.65716015625,-8.861283458587527,-4.067807365055382,1.049278824372962
1776228664471010800,0.6770107421875,-8.867014111194013,-4.044976816827059,1.088399413144961
1776228664490861800,0.69686181640625,-8.867378268331288,-4.034056778883934,1.125331113570556
1776228664510711800,0.7167119140625,-8.868020073366164,-4.025243065570295,1.1515309921015053
1776228664530562800,0.736562744140625,-8.870077005895972,-4.015175260542333,1.1706784679029136
1776228664550414000,0.7564140625,-8.870501368787885,-4.010538832913339,1.1832888700857758
1776228664570263800,0.776263916015625,-8.871271768638492,-4.010317299117148,1.1782513143099844
1776228664590115000,0.796114990234375,-8.875258792448044,-4.011205772389471,1.1447237963046877
1776228664609966000,0.815966064453125,-8.8824250308156,-4.012026441122591,1.0846892335154115
1776228664629816000,0.835816162109375,-8.883963492429256,-4.025335420028865,1.0209047436080871
1776228664649667000,0.8556669921875,-8.876728865000604,-4.0537253559499975,0.9702491998650133
1776228664669518000,0.87551806640625,-8.865561574298143,-4.087506044998765,0.9297848683338612
1776228664689368000,0.8953681640625,-8.859302513903378,-4.10994028738588,0.8896814060043543
1776228664709219000,0.915218994140625,-8.86045460654795,-4.115433039583266,0.8520201491951942
1776228664729069000,0.935069091796875,-8.866101672524213,-4.11131245252192,0.8122391237530857
1776228664748920300,0.95492041015625,-8.869417665204406,-4.112950575117766,0.7664548393081874
1776228664768771000,0.97477099609375,-8.868295383176207,-4.125372834317386,0.7106485617384314
1776228664788621300,0.994621337890625,-8.865055962863565,-4.143050237566232,0.6452144779931753
1776228664808472000,1.01447216796875,-8.859556196403503,-4.165336888176203,0.5732498965006322
1776228664828323000,1.034322998046875,-8.850290939930082,-4.192351444090902,0.5166449063012376
1776228664848173000,1.054173095703125,-8.838606347355245,-4.221034517739713,0.48196642816253005
1776228664868024000,1.074024169921875,-8.827861081457138,-4.245681175479293,0.4620011697048321
1776228664887875000,1.093875,-8.822146210941671,-4.25736226092279,0.4636640248831361
1776228664907725000,1.11372509765625,-8.82399680724442,-4.25161757979095,0.4808422099055722
1776228664927576000,1.133576171875,-8.83164235356152,-4.234106180758774,0.4947975604239851
1776228664947427000,1.153427001953125,-8.842518552362918,-4.210201865819096,0.5044288737308233
1776228664967277000,1.173277099609375,-8.853789303439855,-4.184834492589533,0.5176544121373444
1776228664987128000,1.193128173828125,-8.863133470368386,-4.162586128163338,0.5367707256155089
1776228665006979000,1.21297900390625,-8.869882944628596,-4.145192802552879,0.5594124002082274
1776228665026829000,1.2328291015625,-8.874697651433944,-4.133378738379478,0.5703593992235139
1776228665046680300,1.252680419921875,-8.879800527530907,-4.123630666825175,0.5614211096821352
1776228665066531000,1.272531005859375,-8.887007097908853,-4.11082788387537,0.5409103461708873
1776228665086381300,1.29238134765625,-8.891928772220014,-4.100370787268877,0.5393965806070715
1776228665106232000,1.312232177734375,-8.893324610492586,-4.094142414273321,0.5631666747078299
1776228665126082300,1.332082275390625,-8.89397284526825,-4.089592788144945,0.5855452048523351
1776228665145933000,1.35193310546875,-8.895190988886355,-4.085468986213207,0.5957427737398072
1776228665165784000,1.3717841796875,-8.896310932826996,-4.082294740091264,0.6007538433674723
1776228665185634000,1.391634033203125,-8.89539031085074,-4.083761013251543,0.6044113064290956
1776228665205485000,1.411485107421875,-8.894466181743145,-4.086440461593866,0.5998853169046342
1776228665225336000,1.431336181640625,-8.896028024232386,-4.085569523978233,0.5824060665763914
1776228665245186000,1.45118603515625,-8.898679415524006,-4.081990496447682,0.5667829289762303
1776228665265037000,1.471037109375,-8.897109389728307,-4.084099451425671,0.5761584043584763
1776228665284888000,1.49088818359375,-8.89333746997416,-4.090433915144205,0.5893109140614047
1776228665304738000,1.510738037109375,-8.889262767881155,-4.099925966110825,0.5848089264670386
1776228665324589000,1.530589111328125,-8.881343080797791,-4.118154573501647,0.5770031115543097
1776228665344440300,1.5504404296875,-8.869203145670891,-4.144625231797993,0.5741982467340305
1776228665364290000,1.5702900390625,-8.859237631973624,-4.166351033654808,0.5707935528570786
1776228665384141300,1.590141357421875,-8.857270131292939,-4.171380259993672,0.5645704770911485
1776228665403992000,1.609991943359375,-8.859431108719109,-4.166925034150481,0.5635580486455932
1776228665423842300,1.62984228515625,-8.861629495546222,-4.162201220498979,0.5639054373111575
1776228665443693000,1.649693115234375,-8.863772937315701,-4.159676085935533,0.5486383831396698
1776228665463543300,1.669543212890625,-8.867124585831165,-4.157361963774264,0.5107176716767251
1776228665483394000,1.68939404296875,-8.872518553829192,-4.151864535401761,0.4591440997732803
1776228665503245000,1.7092451171875,-8.87321471939981,-4.154090394757688,0.4242351008143276
1776228665523095000,1.729094970703125,-8.868169710969925,-4.166499794475734,0.4077124936237931
1776228665542946000,1.748946044921875,-8.864269196400047,-4.175513414275646,0.4002499757234007
1776228665562797000,1.768797119140625,-8.866170061585306,-4.171994007977843,0.3948128992360085
1776228665582647000,1.78864697265625,-8.871645278126001,-4.160450577439367,0.3936261006042361
1776228665602498000,1.808498046875,-8.87933232549727,-4.142730504092574,0.4069806356852874
1776228665622349000,1.82834912109375,-8.89169379442036,-4.113707823225855,0.4307823670333251
1776228665642199000,1.848198974609375,-8.90698897870779,-4.077441162580252,0.45870234735514964
1776228665662050000,1.868050048828125,-8.92283945879042,-4.03971436625421,0.4837656596042216
1776228665681901300,1.8879013671875,-8.93705210853815,-4.005734062980115,0.5035696996182203
1776228665701751000,1.9077509765625,-8.94889510654509,-3.977921342425048,0.5136183250216767
1776228665721602000,1.92760205078125,-8.95766176584661,-3.957747153924405,0.5166428239420056
1776228665741453000,1.947453125,-8.961741728636621,-3.948054027427733,0.5200409419476986
1776228665761303000,1.967302978515625,-8.961010491752624,-3.9494416823938487,0.5221015642719343
1776228665781153800,1.98715380859375,-8.954816897809504,-3.9630020057126876,0.5255927673885599
1776228665801004000,2.007004150390625,-8.946108106175064,-3.9829730728566646,0.5229303797788918
1776228665820854800,2.026854736328125,-8.935044860368967,-4.008476055164635,0.5171823376461864
1776228665840705800,2.046705810546875,-8.919133005487918,-4.043547076284885,0.5188266707871109
1776228665860555800,2.0665556640625,-8.897072564849257,-4.09024774492234,0.5313721910402178
1776228665880407000,2.086406982421875,-8.868627391609548,-4.150619503776729,0.538694277556613
1776228665900258000,2.106258056640625,-8.833312332600354,-4.224422406612336,0.5451887176098301
1776228665920108000,2.12610791015625,-8.795681982386112,-4.299947603195905,0.5628567319758236
1776228665939959000,2.145958984375,-8.767658249428868,-4.356859284724295,0.5624285696916281
1776228665959810000,2.16581005859375,-8.750700684887171,-4.393146988157928,0.5439540977809578
1776228665979660000,2.185659912109375,-8.743923738098143,-4.408478705063462,0.5286789699008688
1776228665999511000,2.205510986328125,-8.746310340973734,-4.4046991865247485,0.5206404422108084
1776228666019362000,2.225362060546875,-8.754069869059323,-4.3887914232969285,0.5245552775669843
1776228666039212000,2.2452119140625,-8.75905408721268,-4.3780254068717355,0.531269972774759
1776228666059063000,2.26506298828125,-8.753678239393233,-4.387859110882878,0.5386967983072624
1776228666078913000,2.2849130859375,-8.732448988881707,-4.425822054052353,0.5716848756736144
1776228666098764000,2.304763916015625,-8.699648543041944,-4.482883957706392,0.6247025089055299
1776228666118615000,2.324614990234375,-8.664161634597182,-4.544038683632016,0.6740929280836134
1776228666138465000,2.344465087890625,-8.631270003342628,-4.6051516162425274,0.6812737794984132
1776228666158315800,2.364315673828125,-8.597977974593638,-4.672913485348224,0.63956419714652
1776228666178166800,2.384166748046875,-8.548426884961128,-4.768981996005773,0.5929542389998212
1776228666198016800,2.404016845703125,-8.485419516906141,-4.8907329371914265,0.49877077490389343
1776228666217868000,2.423867919921875,-8.42719938312769,-4.999772280842065,0.39366650567986067
1776228666237719000,2.443718994140625,-8.3949898889184,-5.060342192617059,0.29575508883567525
1776228666257569000,2.463569091796875,-8.404179742068052,-5.048710207012295,0.2251077822204679
1776228666277420000,2.483419921875,-8.45905231898427,-4.956032507836818,0.22927964281132443
1776228666297271000,2.50327099609375,-8.55767402125597,-4.779572363603115,0.3037921369547024
1776228666317121000,2.52312109375,-8.693228739127516,-4.521449542944133,0.3932574499549344
1776228666336972000,2.542971923828125,-8.820255282628535,-4.260301236984134,0.47256391864288594
1776228666356823000,2.562822998046875,-8.917155567935108,-4.052438238748908,0.48214806833975016
1776228666376673000,2.582673095703125,-8.989128332734108,-3.8931282590195533,0.4577229809289798
1776228666396524000,2.60252392578125,-9.041385758715867,-3.7808506641000506,0.3590260214639827
1776228666416374000,2.6223740234375,-9.088736707955599,-3.6796003668904302,0.16057762504499404
1776228666436225000,2.64222509765625,-9.129612323701382,-3.580516600064933,-0.021527658069366587
1776228666456076000,2.662075927734375,-9.145152422660589,-3.540484449405968,-0.039211614356585774
1776228666475926000,2.681926025390625,-9.131669256231188,-3.574658229425549,0.06947005212991499
1776228666495776800,2.70177685546875,-9.10587196715176,-3.6365810171142217,0.1695884318333119
1776228666515628000,2.7216279296875,-9.09169906489253,-3.6692139974325895,0.21969067080887034
1776228666535477800,2.741477783203125,-9.098902712661028,-3.650807403126359,0.22795425769276917
1776228666555329000,2.7613291015625,-9.118204794502258,-3.6020322663024067,0.23257833729684352
1776228666575180000,2.781179931640625,-9.13548969130218,-3.5573879456728696,0.2412557108797133
1776228666595030000,2.801030029296875,-9.15354206534326,-3.509788282369077,0.253855555135943
1776228666614881000,2.820881103515625,-9.16885420076549,-3.466213929058611,0.2964141555326059
1776228666634732000,2.84073193359375,-9.179481393241883,-3.4319229524001478,0.3597347542552277
1776228666654582000,2.86058203125,-9.185250624293088,-3.411425815555453,0.4046362279836088
1776228666674433000,2.88043310546875,-9.188851863655447,-3.4003388966128227,0.41603582960460334
1776228666694284000,2.900283935546875,-9.190961403155326,-3.400110348553955,0.3685926720367744
1776228666714134000,2.920134033203125,-9.18334625197649,-3.4286578131243584,0.28431837007468563
1776228666733984500,2.939984619140625,-9.165159437900781,-3.4831945822149515,0.19388402937920762
1776228666753834500,2.95983447265625,-9.14026523514092,-3.55217430267781,0.08940742706684394
1776228666773685500,2.979685546875,-9.10714037965238,-3.637333881308138,-0.013322637538868002
1776228666793536500,2.99953662109375,-9.071704324612021,-3.7225013509839773,-0.13246413144506514
1776228666813386500,3.019386474609375,-9.045480919075011,-3.776586869175732,-0.295037259422522
1776228666833237500,3.039237548828125,-9.028787558427453,-3.7998686683028935,-0.4608445104829967
1776228666853088500,3.059088623046875,-9.013701632976531,-3.813396550656855,-0.6177157918233424
1776228666872938800,3.078938720703125,-8.992062632620334,-3.8312136546373363,-0.7968665633805095
1776228666892789500,3.09878955078125,-8.949176846095918,-3.8683606052488084,-1.057544256154075
1776228666912640500,3.118640625,-8.869421756857633,-3.933526904903352,-1.425170165517926
1776228666932490500,3.138490478515625,-8.751625398516655,-4.016519368627667,-1.8566127865582704
1776228666952341500,3.158341552734375,-8.6207468557626,-4.063367044520378,-2.31131090324074
1776228666972192500,3.178192626953125,-8.494904553610086,-4.029489324837923,-2.787508319547772
1776228666992042500,3.19804248046875,-8.355297345477343,-3.936391062162816,-3.2960908788919445
1776228667011893500,3.2178935546875,-8.139330535763502,-3.8383664490014313,-3.8972596597358584
1776228667031744500,3.23774462890625,-7.780293225720524,-3.768374921147525,-4.629986782291532
1776228667051594500,3.257594482421875,-7.2557877055794,-3.722452835667133,-5.4467672758013
1776228667071445500,3.277445556640625,-6.590788257598876,-3.6312966469705104,-6.288527896788716
1776228667091296500,3.297296630859375,-5.834785181134939,-3.5071503350809214,-7.058722580212354
1776228667111146500,3.317146484375,-4.9655397563725705,-3.3387568851858376,-7.769588876354694
1776228667130997500,3.33699755859375,-3.984321564856171,-3.103513128072023,-8.406175884321332
1776228667150848500,3.3568486328125,-2.977450168906152,-2.768235756061971,-8.92424055776
1776228667170698500,3.376698486328125,-1.9467741189986467,-2.288558096423745,-9.335039619222282
1776228667190549500,3.396549560546875,-0.9310863793864845,-1.6288623078092932,-9.62550199021101
1776228667210400500,3.416400390625,-0.004312613062317541,-0.7987331609699875,-9.77406758082509
1776228667230250500,3.43625048828125,0.6882559665359557,0.15211993122794665,-9.781286426162719
1776228667250101500,3.4561015625,1.0426699276272207,1.1511151047769934,-9.682878658902645
1776228667269951500,3.475951416015625,1.1221564290571957,2.15422181443125,-9.501078322684764
1776228667289802500,3.495802490234375,1.0704419508457184,3.092340284411609,-9.244563814005256
1776228667309653500,3.515653564453125,0.9492764083325862,3.925950916691124,-8.936227348151803
1776228667329503500,3.53550341796875,0.7724301873907446,4.651401033981144,-8.598734345918894
1776228667349354500,3.5553544921875,0.5789722927354276,5.278555904474854,-8.244515834334493
1776228667369205500,3.57520556640625,0.4406035768890753,5.826020859920979,-7.876148970410227
1776228667389055500,3.595055419921875,0.3882616874942556,6.297461144828796,-7.507438407614827
1776228667408906500,3.614906494140625,0.4307849243165925,6.707841104096174,-7.1407052823722355
1776228667428757500,3.634757568359375,0.5219766227180138,7.0728124803632495,-6.7729808080047365
1776228667448607500,3.654607421875,0.6100975353719666,7.3979142030566925,-6.408511536040902
1776228667468458500,3.67445849609375,0.7104730590410531,7.67731625084877,-6.060068685248494
1776228667488309500,3.6943095703125,0.8876311224110424,7.876310298451781,-5.774619758507609
1776228667508159700,3.71415966796875,1.1026859318464994,8.000146521478891,-5.563462979423999
1776228667528010500,3.734010498046875,1.2822878812372684,8.092084215942025,-5.389276625341177
1776228667547861500,3.753861572265625,1.4182739762634038,8.175005660256742,-5.227634111011028
1776228667567711500,3.77371142578125,1.550685427673161,8.21663881637156,-5.1237318379879
1776228667587562500,3.7935625,1.7043717223018406,8.185874260273575,-5.124154447314143
1776228667607413500,3.81341357421875,1.813200784202665,8.086265885052084,-5.243565255114436
1776228667627263500,3.833263427734375,1.8225617561355232,7.930207308334111,-5.4736172888040535
1776228667647114500,3.853114501953125,1.8023339377515017,7.721593783992528,-5.770527520757914
1776228667666965500,3.872965576171875,1.8201316063791513,7.462032747223973,-6.097175888371467
1776228667686815500,3.8928154296875,1.8318262819565831,7.153769931128621,-6.452782639443874
1776228667706666500,3.91266650390625,1.7829134902276098,6.799318195310234,-6.838191823583841
1776228667726518300,3.932518310546875,1.7334537321403622,6.387481607493758,-7.2364102204144
1776228667746368300,3.9523681640625,1.7160449166998266,5.909613919886946,-7.6355772962719195
1776228667766219300,3.97221923828125,1.6950765090815723,5.348151418748498,-8.043281898850202
1776228667786070000,3.992070068359375,1.634347461222112,4.72176607132256,-8.438257952758669
1776228667805920000,4.011919921875,1.5589784781135618,4.069786263912916,-8.78503550068736
1776228667825771000,4.03177099609375,1.5037889442026615,3.408701359027624,-9.07136997809112
1776228667845622000,4.0516220703125,1.4622845290340483,2.7467884788855907,-9.29985373955071
1776228667865472000,4.071471923828125,1.4486151923827826,2.0613312031574544,-9.477489357304572
1776228667885323000,4.091322998046875,1.4515500767908989,1.3434975522205233,-9.605123219048977
1776228667905174300,4.11117431640625,1.4079761618718505,0.6324645942743867,-9.684419458603859
1776228667925024000,4.13102392578125,1.2914357949413358,-0.02013818103892263,-9.721224463909865
1776228667944875300,4.150875244140625,1.1332691400282084,-0.5769787077654153,-9.723846629106998
1776228667964726300,4.170726318359375,0.9935387439072132,-1.0361532392095774,-9.701013450530171
1776228667984576300,4.190576171875,0.9009411972958594,-1.4127886767201125,-9.662440266507863
1776228668004427300,4.21042724609375,0.8692501740027219,-1.7283241141669452,-9.613931963926554
1776228668024278300,4.2302783203125,0.8892943063829094,-1.9853284521900116,-9.562323941764236
1776228668044128300,4.250128173828125,0.9272091726269572,-2.172449398908764,-9.517935933983326
1776228668063979300,4.269979248046875,0.9623724020753055,-2.2977111246943474,-9.484976498189567
1776228668083830000,4.289830078125,0.982834467606619,-2.3705239935792983,-9.464937334245443
1776228668103680300,4.30968017578125,0.9572247369885444,-2.3884230767548082,-9.463062772545218
1776228668123531000,4.329531005859375,0.8555623518466949,-2.3431685152724384,-9.484089778482913
1776228668143382000,4.349382080078125,0.7348012984812259,-2.2269725778654217,-9.522135139238834
1776228668163232000,4.36923193359375,0.6780765178270638,-2.0621483647592362,-9.563374912121892
1776228668183083000,4.3890830078125,0.7016775389712303,-1.8607050243079661,-9.602905542999505
1776228668202934300,4.408934326171875,0.7558238474395126,-1.6130020369850098,-9.643512278676033
1776228668222784000,4.428783935546875,0.7719717760987579,-1.3024383966013788,-9.689071668323875
1776228668242635300,4.44863525390625,0.7393950560122728,-0.9299939810398965,-9.734411862263084
1776228668262486300,4.468486328125,0.6990110962409526,-0.5170804481742903,-9.768030638748407
1776228668282336300,4.488336181640625,0.6944310749743133,-0.0914136431895662,-9.781606159636377
1776228668302187300,4.508187255859375,0.75499879479222,0.3394773079179227,-9.771649413767456
1776228668322038300,4.528038330078125,0.8615383575163781,0.7917186790980398,-9.736596805086732
1776228668341888300,4.54788818359375,0.9578758213084191,1.2883468890152872,-9.674348730966448
1776228668361739300,4.5677392578125,1.039950147274509,1.8101845051214098,-9.581865677580236
1776228668381590000,4.587590087890625,1.1004405640725046,2.326798833621293,-9.462844161358476
1776228668401440300,4.607440185546875,1.1195150477029383,2.8001635107204317,-9.331461176213622
1776228668421291000,4.627291015625,1.164383094085753,3.23672712803632,-9.183582398819922
1776228668441142000,4.64714208984375,1.2366305841729044,3.6818139512866734,-9.004740912407636
1776228668460992000,4.666991943359375,1.3023968955472112,4.14384723316282,-8.792192386704683
1776228668480843000,4.686843017578125,1.2969916755028068,4.586260745550692,-8.570556299182773
1776228668500694000,4.706694091796875,1.2135918730866164,4.978812494921684,-8.361160684552788
1776228668520544000,4.7265439453125,1.07760753162615,5.285867688792943,-8.189550902959704
1776228668540395300,4.746395263671875,0.8844589951809495,5.548053813368082,-8.037861627367139
1776228668560246300,4.766246337890625,0.6587164952535182,5.80087648179233,-7.879487174922227
1776228668580096300,4.78609619140625,0.4449192481311038,6.0526920190006495,-7.703074376961588
1776228668599947300,4.805947265625,0.269671000437811,6.291138371548056,-7.517928821969032
1776228668619798300,4.82579833984375,0.13276128776073454,6.492641771623492,-7.348358437249064
1776228668639648300,4.845648193359375,0.06492046710073482,6.645437547153234,-7.211403789451718
1776228668659499300,4.865499267578125,0.039888600302697155,6.7685173988550895,-7.096192186906934
1776228668679350000,4.88535009765625,0.030002220822824163,6.892778569296002,-6.975606490108371
1776228668699200300,4.9052001953125,0.029984847279626407,7.022499758708476,-6.844995073857903
1776228668719051000,4.925051025390625,0.027745605569030156,7.1416627292275425,-6.720584850335121
1776228668738902800,4.94490283203125,0.011676397851936053,7.242876201558112,-6.6114277255237095
1776228668758752800,4.964752685546875,-0.033665490287437566,7.31289315611422,-6.533823676839471
1776228668778603800,4.984603759765625,-0.1070076916925609,7.356079971411824,-6.484367279753089
1776228668798454800,5.004454833984375,-0.21452157934159038,7.390511817845701,-6.442416728252172
1776228668818304800,5.0243046875,-0.35316889293361453,7.430098562824726,-6.390564375939965
1776228668838155800,5.04415576171875,-0.49375955914575603,7.464099032104015,-6.341435895633697
1776228668858006800,5.0640068359375,-0.614266235891357,7.462014627045392,-6.33335546503067
1776228668877856800,5.083856689453125,-0.7741395485918968,7.419527484449744,-6.3656654970049855
1776228668897707800,5.103707763671875,-0.9955319635510445,7.354046419757604,-6.410718690696358
1776228668917558800,5.123558837890625,-1.254683688866347,7.290528179571032,-6.437728278174996
1776228668937408800,5.14340869140625,-1.5225238936804235,7.22926619387865,-6.449034685087204
1776228668957259800,5.163259765625,-1.611951651149243,7.121714750698208,-6.546234245601296
1776228668977110800,5.18311083984375,-1.4778876102268694,6.978612101665139,-6.729428666526079
1776228668996960800,5.202960693359375,-1.3338874278321862,6.867974967429041,-6.871831058335304
1776228669016811800,5.222811767578125,-1.2359380718640982,6.801652775737643,-6.955601228433847
1776228669036662800,5.242662841796875,-1.1348097205337135,6.738263714888691,-7.034089658737182
1776228669056513800,5.262513671875,-1.0300453507885337,6.661049542304873,-7.123188914903998
1776228669076363800,5.28236376953125,-0.922653043692559,6.5636793013989925,-7.22753191743195
1776228669096214800,5.30221484375,-0.8133418973632156,6.461518903607129,-7.3319596756339065
1776228669116065800,5.322065673828125,-0.7464462896980345,6.373581676957011,-7.415567348647117
1776228669135915800,5.341915771484375,-0.6573421381603926,6.268503345891833,-7.512932328855991
1776228669155766800,5.361766845703125,-0.46839799460247156,6.1128638713687655,-7.654012532150745
1776228669175617800,5.38161767578125,-0.23913175926199182,5.928923600512743,-7.807755817663669
1776228669195467800,5.4014677734375,-0.021345291806361636,5.714814985886216,-7.969366767811775
1776228669215318800,5.42131884765625,0.17867270571663973,5.450615183401108,-8.15041307079196
1776228669235169800,5.441169677734375,0.3599569091059267,5.137146030834317,-8.345688974654674
1776228669255019800,5.461019775390625,0.47153081273548303,4.773949555285275,-8.553211781150102
1776228669274870800,5.480870849609375,0.5178531495798379,4.364817842513323,-8.766445951029658
1776228669294721800,5.5007216796875,0.5410285657230764,3.914932679070532,-8.975020312404633
1776228669314571800,5.52057177734375,0.5875247978296131,3.446738536477089,-9.162161425128579
1776228669334422800,5.5404228515625,0.6412035618513822,2.9797093460097908,-9.320977191600203
1776228669354273800,5.560273681640625,0.6896554580703377,2.5277476685538884,-9.450144254261255
1776228669374123800,5.580123779296875,0.7048023199282586,2.0802710275575516,-9.557516833743453
1776228669393974800,5.599974853515625,0.6479389345210045,1.6502011561751364,-9.645071198555826
1776228669413825800,5.61982568359375,0.5080349719313905,1.2417587408415973,-9.714437580248713
1776228669433675800,5.63967578125,0.35248796146474776,0.862454668643698,-9.762290049269795
1776228669453526800,5.65952685546875,0.30120277804862705,0.5199989659694955,-9.788219440296292
1776228669473377800,5.679377685546875,0.3865690216995775,0.22364311649538576,-9.796476981031894
1776228669493228800,5.699228759765625,0.5607695504382252,-0.021327180760935878,-9.790580908730625
1776228669513078800,5.719078857421875,0.7180825841967016,-0.21296914400150999,-9.778004920274018
1776228669532929500,5.738929443359375,0.8159807944994419,-0.35269634351842105,-9.766277073079348
1776228669552780800,5.75878076171875,0.8773093426220119,-0.4441983865106478,-9.757223998051881
1776228669572630800,5.778630859375,0.9342405325684696,-0.48680732885506,-9.749901692339778
1776228669592481800,5.798481689453125,1.0048335334468632,-0.46593723051212727,-9.743899821576475
1776228669612332800,5.818332763671875,1.0790377105597406,-0.3540766188956797,-9.740670922657847
1776228669632182800,5.838182861328125,1.166319761236757,-0.15444105851873755,-9.735821144539118
1776228669652033800,5.85803369140625,1.2723841807298362,0.09449158019702882,-9.723296594008803
1776228669671884800,5.877884765625,1.3701855065293609,0.3551097978683188,-9.70396177894175
1776228669691734800,5.89773486328125,1.4411745209880171,0.6140615070994943,-9.680719435042143
1776228669711585800,5.917585693359375,1.472306595224142,0.8680502236284315,-9.656561145341396
1776228669731436500,5.9374365234375,1.4333588788010179,1.1328965803887694,-9.634958385342358
1776228669751286500,5.95728662109375,1.3275330903694034,1.4305813769116997,-9.61048737643063
1776228669771137800,5.9771376953125,1.2000259968098252,1.7644873144380748,-9.571671031302213
1776228669790988800,5.99698876953125,1.0759942512106149,2.1484629586435853,-9.507719075873494
1776228669810838800,6.0168388671875,0.9646684040579945,2.573094584494829,-9.413764780890942
1776228669830689800,6.036689697265625,0.879164249773696,3.0151500772252677,-9.29011852747798
1776228669850540500,6.05654052734375,0.8044939164537936,3.4714091596141454,-9.13632848021388
1776228669870391600,6.0763916015625,0.7329326550651342,3.944720791351795,-8.94831701439619
1776228669890241500,6.096241455078125,0.6567094662800431,4.426441939516366,-8.726152519086003
1776228669910092500,6.116092529296875,0.5890803201759234,4.890437753637134,-8.479799923458694
1776228669929943600,6.135943603515625,0.5270627303432673,5.320345712456107,-8.221102810043096
1776228669949793500,6.15579345703125,0.438685212579742,5.734589361414313,-7.943072635126113
1776228669969644500,6.17564453125,0.3361404185801744,6.153724874067306,-7.628176664626598
1776228669989495600,6.19549560546875,0.2467867857934907,6.570529313424229,-7.2758257004797455
1776228670009345500,6.215345458984375,0.19159790946971625,6.960308967733383,-6.905633959215879
1776228670029196500,6.235196533203125,0.16220747300283983,7.3064949795097105,-6.539053978708386
1776228670049047800,6.2550478515625,0.12850158448964358,7.606758029022813,-6.187980194890499
1776228670068898600,6.274898681640625,0.06959614446130581,7.86816089426577,-5.852997714173793
1776228670088748800,6.294748779296875,0.0002780017538244465,8.099989289978145,-5.528160195374489
1776228670108599600,6.314599609375,-0.05293246199938002,8.307087149059772,-5.21151650442481
1776228670128450600,6.334450439453125,-0.07880080245444551,8.481572193828224,-4.922102181184291
1776228670148300500,6.354300537109375,-0.08956921176612377,8.614148188149928,-4.68602343455106
1776228670168151600,6.374151611328125,-0.11569744983296841,8.7098753380239,-4.50500577314347
1776228670188002600,6.39400244140625,-0.1602894009544514,8.782399891486763,-4.360522483406961
1776228670207852500,6.4138525390625,-0.21833226020354776,8.834792342025041,-4.250782882532477
1776228670227703600,6.43370361328125,-0.28610370085518805,8.863471908542513,-4.186571107123792
1776228670247554600,6.453554443359375,-0.3588826674705371,8.868659540313482,-4.169946720059216
1776228670267404500,6.473404541015625,-0.42914139489326625,8.856287549996376,-4.189560644328594
1776228670287255600,6.493255615234375,-0.4733453513441607,8.829280885127186,-4.241476709526777
1776228670307106600,6.5131064453125,-0.47187739768344905,8.784414738440512,-4.333794343218207
1776228670326957800,6.532957763671875,-0.42243992449324574,8.720513636416197,-4.465933699688315
1776228670346807800,6.552807861328125,-0.3532450269097462,8.634860136789083,-4.635169445626437
1776228670366658600,6.572658447265625,-0.2703247699051164,8.520529993253946,-4.847461073958874
1776228670386509600,6.592509521484375,-0.16626381745524704,8.379040040114521,-5.092583251008391
1776228670406359600,6.612359619140625,-0.04279085194969084,8.210742744070291,-5.362110970517993
1776228670426210600,6.63221044921875,0.10386119209406897,8.013280728340149,-5.652163007140159
1776228670446061600,6.6520615234375,0.26600334477573634,7.7726652150601145,-5.973717266485095
1776228670465911600,6.67191162109375,0.3991455946780741,7.461829333606362,-6.350759604296088
1776228670485762600,6.691762451171875,0.48521231474857773,7.084802777886391,-6.763171946173906
1776228670505613600,6.711613525390625,0.5560135150175541,6.6567030375331635,-7.179799859920144
1776228670525464600,6.731464599609375,0.6256480461273342,6.14933511467576,-7.613449635615944
1776228670545314600,6.751314453125,0.6836067524906247,5.555892251908779,-8.052028684407473
1776228670565165600,6.77116552734375,0.7292654377944767,4.909614455533028,-8.457790336224436
1776228670585016600,6.7910166015625,0.7506204335775226,4.23772174090743,-8.811848104289174
1776228670604866600,6.810866455078125,0.7509577027078718,3.563795474627614,-9.105262310820818
1776228670624717800,6.8307177734375,0.7409429430413991,2.9115292514920235,-9.335115607067943
1776228670644568600,6.850568603515625,0.7557942560188472,2.3074369844168423,-9.50131037787497
1776228670664418800,6.870418701171875,0.7812037148244678,1.7573745598234236,-9.616222705212236
1776228670684269600,6.89026953125,0.7853502400446682,1.2554654868938029,-9.694193833643197
1776228670704120600,6.91012060546875,0.7492171426508575,0.8030172680299729,-9.744958975240587
1776228670723971600,6.9299716796875,0.6419789301380515,0.4128872659131884,-9.776899004858732
1776228670743821300,6.9498212890625,0.45725832255929705,0.08614988657562062,-9.795606043416262
1776228670763672300,6.96967236328125,0.2652640341831371,-0.1835617381335236,-9.801343710285424
1776228670783523300,6.9895234375,0.14006982980896718,-0.4004149570267647,-9.797470668244362
1776228670803373300,7.009373291015625,0.09945504782330244,-0.5546132197655738,-9.790449391305446
1776228670823224300,7.029224365234375,0.13201274354890918,-0.6395702615611255,-9.78488182030618
1776228670843075300,7.049075439453125,0.21192213743291793,-0.6433235496800392,-9.783232299533486
1776228670862925300,7.06892529296875,0.30630128849772736,-0.565305732563138,-9.785549344304203
1776228670882776300,7.0887763671875,0.3920606779184192,-0.41932318071220065,-9.789832720711827
1776228670902627300,7.10862744140625,0.4527061391476542,-0.20973841845197602,-9.793951261946559
1776228670922478000,7.12847802734375,0.4726458247726783,0.06470272356367204,-9.795040226227044
1776228670942328300,7.148328369140625,0.43404041898120194,0.40592677925080056,-9.788628021097182
1776228670962179000,7.168178955078125,0.3603554069042206,0.8042075007278472,-9.766973823171853
1776228670982030300,7.1880302734375,0.28704419657569374,1.2455395745545625,-9.722994396191835
1776228671001880000,7.207880126953125,0.25477619537850843,1.7205983422204851,-9.651166592821479
1776228671021731300,7.2277314453125,0.26123731768401337,2.2281223324224353,-9.546602641019225
1776228671041582300,7.247582275390625,0.27402952444087714,2.7892314900785684,-9.397630807691812
1776228671061433300,7.267433349609375,0.2616656443649903,3.4170258275195953,-9.188354435527325
1776228671081283300,7.287283447265625,0.21100140585880725,4.07774277587533,-8.916160127156973
1776228671101134300,7.30713427734375,0.13210314351241104,4.723643263371288,-8.593028827753663
1776228671120985300,7.3269853515625,0.05474426066169981,5.324040475320816,-8.235410736858844
1776228671140835300,7.34683544921875,-0.008502392046121531,5.880075106191635,-7.848249740615486
1776228671160686300,7.366686279296875,-0.0644023341113003,6.399942445138096,-7.4301394793570035
1776228671180537300,7.386537353515625,-0.12971007436341606,6.8859642131060355,-6.981193934851884
1776228671200387300,7.40638720703125,-0.20657947949701919,7.335761406004428,-6.504946541923284
1776228671220238300,7.42623828125,-0.2902265712051652,7.740242954882979,-6.014548458567261
1776228671240089000,7.446089111328125,-0.3797700822744518,8.090159969881176,-5.529511025461554
1776228671259940400,7.4659404296875,-0.4815138255568221,8.383654255911708,-5.064865222999453
1776228671279790000,7.4857900390625,-0.5987646057790145,8.615752700737119,-4.645500577765703
1776228671299641300,7.505641357421875,-0.7314750036027282,8.789093251645564,-4.288029494126141
1776228671319492400,7.525492431640625,-0.8757610902667045,8.913774108803272,-3.9935052805259823
1776228671339342300,7.54534228515625,-1.0268714699927717,8.997098873221873,-3.76405822699219
1776228671359193300,7.565193359375,-1.1696825887333602,9.046358286431431,-3.600780220414698
1776228671379044400,7.58504443359375,-1.2860763137347995,9.069807551079988,-3.5007106574222444
1776228671398895400,7.604895263671875,-1.3577334367133675,9.078299485093355,-3.4512931310415267
1776228671418745300,7.624745361328125,-1.3808008624374866,9.080106242254375,-3.437361928583681
1776228671438596400,7.644596435546875,-1.3704526330329476,9.077615009960532,-3.448065693427622
1776228671458447000,7.664447021484375,-1.3533661814145743,9.066696725583077,-3.483361170953512
1776228671478297300,7.68429736328125,-1.355751176854968,9.049763710960745,-3.526202241553366
1776228671498148000,7.704148193359375,-1.3470720497064292,9.039282064434886,-3.5562861219108104
1776228671517999000,7.7239990234375,-1.269232730961591,9.03520736234188,-3.595060089202225
1776228671537850400,7.743850341796875,-1.1082380130156875,9.026202218109368,-3.6701328658431764
1776228671557700000,7.7637001953125,-0.9065086952298879,8.994172756642103,-3.8017727483585473
1776228671577551400,7.78355126953125,-0.6880500687003135,8.92390562671721,-4.007605702070892
1776228671597402400,7.80340234375,-0.44697512121498584,8.801434846824407,-4.30178534001708
1776228671617253400,7.82325341796875,-0.22321557526569813,8.613867617642878,-4.6820773272737854
1776228671637103400,7.843103271484375,-0.05385649977542925,8.366838145667314,-5.115029476094246
1776228671656954400,7.862954345703125,0.03556143041912001,8.071649330678582,-5.569342685112357
1776228671676805400,7.882805419921875,0.04251208067408297,7.737085367634892,-6.025454467985034
1776228671696655400,7.9026552734375,-0.01232154219643562,7.383325121212005,-6.454202443113923
1776228671716506400,7.92250634765625,-0.10281493444414809,7.027884958878159,-6.838759978860616
1776228671736356600,7.942356689453125,-0.22142277356479315,6.6706444691240785,-7.184974632209539
1776228671756207600,7.96220751953125,-0.3774642895501107,6.303696239826083,-7.502753464668989
1776228671776057600,7.9820576171875,-0.548092914618738,5.936223694393038,-7.78660430856347
1776228671795908600,8.00190869140625,-0.7050212233759462,5.594862910816073,-8.02314570427239
1776228671815759600,8.021759521484375,-0.8569342247217893,5.289643115678429,-8.213142790949345
1776228671835609600,8.041609619140624,-1.0066739006165415,5.012511935427785,-8.368495265224576
1776228671855460600,8.061460693359376,-1.13929724121131,4.75897264316678,-8.498503454884887
1776228671875311600,8.0813115234375,-1.2634012483291328,4.523275004805624,-8.60896055637896
1776228671895163000,8.101162841796874,-1.4179865376241505,4.309407797719538,-8.694175664588808
1776228671915012900,8.121012939453125,-1.6263362964630126,4.105798365275562,-8.75601749599576
1776228671934864000,8.14086376953125,-1.89684192109406,3.895992124018073,-8.79736365186274
1776228671954715000,8.16071484375,-2.2635503502868115,3.703008130484819,-8.794000312909484
1776228671974564900,8.18056494140625,-2.774487217672169,3.5633164589390156,-8.704906317439676
1776228671994415900,8.200415771484375,-3.4078254529759286,3.495278695501387,-8.505300859940052
1776228672014266600,8.2202666015625,-4.117017678426206,3.532464809079468,-8.169592987558245
1776228672034117600,8.24011767578125,-4.771169569177926,3.677541680794954,-7.738346765872835
1776228672053967600,8.259967529296874,-5.25967117126286,3.875289819990098,-7.313574124115705
1776228672073818600,8.279818603515626,-5.620498871853948,4.036280592413246,-6.949016004824638
1776228672093669600,8.299669677734375,-5.8871033973932265,4.140731439229846,-6.660836776337027
1776228672113520600,8.319520751953124,-6.0610927675992246,4.223199586819112,-6.4496607080310575
1776228672133370600,8.33937060546875,-6.1361179057061666,4.302313455544412,-6.325230026242137
1776228672153222000,8.359221923828125,-6.095924427005648,4.4023719126209615,-6.295173910674452
1776228672173073000,8.379072998046874,-5.949426874837279,4.523877939134836,-6.348955185222625
1776228672192923000,8.3989228515625,-5.725669557377696,4.607297688360512,-6.493065549993514
1776228672212774000,8.41877392578125,-5.438765755653381,4.587638463644683,-6.7486150130331515
1776228672232625000,8.438625,-5.130182621562481,4.522310835948586,-7.0285355317413805
1776228672252475600,8.4584755859375,-4.82554413344413,4.512722923392057,-7.2470578711569305
1776228672272325600,8.47832568359375,-4.624032257801294,4.541575800649822,-7.35953800291121
1776228672292176600,8.4981767578125,-4.54997128855139,4.547063584411144,-7.4021864735484115
1776228672312027600,8.518027587890625,-4.542577671168744,4.552645476196706,-7.403296480616927
1776228672331877600,8.537877685546874,-4.5960248914569615,4.604771092492341,-7.337780929133295
1776228672351728600,8.557728759765626,-4.7107381890907885,4.69292371545881,-7.208036943367123
1776228672371579600,8.57757958984375,-4.795166238576173,4.794015314975381,-7.0847852422296995
1776228672391430700,8.5974306640625,-4.830084699483216,4.8449736410573125,-7.026158281216025
1776228672411280600,8.61728076171875,-4.874713238021731,4.82715887516439,-7.007573992255329
1776228672431132000,8.6371318359375,-4.93838754555285,4.786507423563301,-6.990856666210293
1776228672450983000,8.65698291015625,-4.984822548991441,4.756151448266208,-6.978606256446242
1776228672470833700,8.676833740234375,-5.041432324963807,4.7221869270831345,-6.960982921472191
1776228672490684000,8.696683837890625,-5.138869785887002,4.665260924768448,-6.928041021335124
1776228672510534700,8.71653466796875,-5.247633527466655,4.608252504867315,-6.884528042823076
1776228672530385700,8.7363857421875,-5.327178773346543,4.592154187503457,-6.834008984941244
1776228672550236700,8.756236572265625,-5.399325141146779,4.620004609720409,-6.758197080370784
1776228672570086700,8.776086669921876,-5.479252079820633,4.6555300966098905,-6.668899671283364
1776228672589937700,8.795937744140625,-5.557705438810586,4.6441386417627335,-6.611676731848716
1776228672609788700,8.81578857421875,-5.668282367292046,4.6090722968176,-6.54197425006926
1776228672629638700,8.835638671875,-5.782256536996364,4.623650857268274,-6.430998677659034
1776228672649489700,8.85548974609375,-5.871764958485961,4.658666056548059,-6.323733065682649
1776228672669341000,8.8753408203125,-5.965395428341627,4.650574520029127,-6.2415218154639005
1776228672689192000,8.89519189453125,-6.124115333223343,4.620108946877718,-6.109024731597304
1776228672709042000,8.9150419921875,-6.341812327730655,4.585060137589275,-5.910078030267358
1776228672728892700,8.934892578125,-6.570080985134839,4.6006613190859555,-5.642547622054815
1776228672748743400,8.954743408203125,-6.746461049869656,4.6761327396556736,-5.365578938889503
1776228672768594400,8.974594482421875,-6.763609168547392,4.802483575852215,-5.230691160494088
1776228672788444400,8.9944443359375,-6.710884125053882,4.892090197019279,-5.215542106679082
1776228672808295400,9.01429541015625,-6.6999220015347,4.914431500425935,-5.208626628202199
1776228672828146700,9.034146728515625,-6.709536802098155,4.909288876840472,-5.201095063653588
1776228672847996700,9.05399658203125,-6.683485245996713,4.876053254453837,-5.265502361634374
1776228672867847700,9.07384765625,-6.614803923958539,4.82036906889379,-5.401740385594963
1776228672887698700,9.09369873046875,-6.526628212377428,4.7647708080515265,-5.556120215445756
1776228672907549700,9.1135498046875,-6.438477050715685,4.7046799119651315,-5.708098829373717
1776228672927399700,9.133399658203125,-6.365068115633726,4.61800729842335,-5.859207090207934
1776228672947250700,9.153250732421874,-6.305497736290097,4.5080362268805505,-6.007385727331042
1776228672967101700,9.173101806640625,-6.233030465972424,4.365221454878151,-6.1858349995553485
1776228672986952400,9.192952392578125,-6.124505209323764,4.1731838022843,-6.422254230189323
1776228673006802400,9.212802490234376,-5.9466042186319825,3.9259447792112825,-6.7375985289782285
1776228673026653400,9.2326533203125,-5.664551948592067,3.6307504112645983,-7.134485384944081
1776228673046504400,9.25250439453125,-5.306885926902294,3.316823285797238,-7.5502335932463405
1776228673066355700,9.272355712890626,-4.987210320910811,3.06025996953994,-7.86974670215249
1776228673086205700,9.292205810546875,-4.805549685424566,2.8661677225038407,-8.053704508665204
1776228673106056700,9.312056640625,-4.749706802171469,2.6803856231734153,-8.150226608309149
1776228673125907700,9.33190771484375,-4.700744033820927,2.4540692688807844,-8.249299561479686
1776228673145758700,9.3517587890625,-4.626173653744161,2.1964606813542544,-8.363280745446682
1776228673165608700,9.371608642578124,-4.602899453401565,1.9569518141418694,-8.435285074427723
1776228673185459700,9.391459716796875,-4.693611697722972,1.7546015879787504,-8.429813949540257
1776228673205310500,9.411310546875,-4.856833590199053,1.5650746030315756,-8.37449070624709
1776228673225160700,9.43116064453125,-5.028232067129015,1.381212365847826,-8.305390282014011
1776228673245011500,9.451011474609375,-5.188403924384713,1.1787369058698416,-8.237804938519
1776228673264862500,9.470862548828125,-5.323992544525861,0.9694592915963381,-8.178363153991103
1776228673284713500,9.49071337890625,-5.458473495686054,0.7646901677232235,-8.111146643808484
1776228673304563500,9.5105634765625,-5.6005865491598845,0.5592316002812237,-8.030633429679273
1776228673324414500,9.53041455078125,-5.734305283775925,0.3240756675813347,-7.9487799068570135
1776228673344265700,9.550265625,-5.852683825919032,0.05013306793866213,-7.868543171581625
1776228673364116700,9.57011669921875,-5.9491702697277065,-0.24642684817360713,-7.792114011895656
1776228673383966700,9.589966796875,-6.047461132609844,-0.5448324149854481,-7.700762592887878
1776228673403817700,9.609817626953125,-6.147724756869674,-0.8171835944179445,-7.596582671967148
1776228673423668700,9.629668701171875,-6.253800866800546,-1.0605551284078507,-7.47900960098803
1776228673443519500,9.64951953125,-6.3386103168189525,-1.2908292073503136,-7.370628721246123
1776228673463369700,9.66936962890625,-6.387486868190765,-1.5060073509044944,-7.2871350300014015
1776228673483220500,9.689220458984375,-6.43018560771048,-1.7032516322307287,-7.20569417963326
1776228673503071500,9.709071533203126,-6.496262300208211,-1.8761862326867877,-7.102738832071423
1776228673522922500,9.728922607421875,-6.587473433962464,-2.0234761042766274,-6.977186452776193
1776228673542772500,9.7487724609375,-6.687191699299216,-2.166051368434727,-6.838133371394872
1776228673562623500,9.76862353515625,-6.7934624550193545,-2.313700136464834,-6.6832666348099705
1776228673582474800,9.788474853515625,-6.905195567798614,-2.4559002837002275,-6.51591977135837
1776228673602325800,9.80832568359375,-7.011584981462359,-2.5742016689538954,-6.354647259384393
1776228673622175700,9.82817578125,-7.123172548291087,-2.644138544011116,-6.199946527016163
1776228673642026800,9.84802685546875,-7.255001523637771,-2.664430221411586,-6.036237143284082
1776228673661877800,9.867877685546874,-7.390595404475927,-2.678032922567427,-5.86324321385622
1776228673681728500,9.887728515625,-7.495282105875015,-2.7482684883102775,-5.695449775680899
1776228673701578500,9.90757861328125,-7.538342079922557,-2.899306021995842,-5.562177031266689
1776228673721429500,9.927429443359374,-7.52416099435687,-3.0852707844167946,-5.480738518986105
1776228673741281300,9.94728125,-7.494222952210903,-3.2583287189915775,-5.421282121410965
1776228673761132300,9.96713232421875,-7.485438757252693,-3.4090435965940356,-5.3401329474657775
1776228673780982300,9.986982177734374,-7.504238150268793,-3.5443010850846766,-5.224435022708773
1776228673800833300,10.006833251953125,-7.522005862149596,-3.6857276175990696,-5.099532631754875
1776228673820684300,10.026684326171875,-7.502604996109008,-3.8447409524694085,-5.009917242759466
1776228673840535000,10.04653515625,-7.455843244934082,-3.997680228123069,-4.959771694365143
1776228673860385300,10.06638525390625,-7.426373404821753,-4.111737107674777,-4.910497668108344
1776228673880236000,10.086236083984375,-7.42675275952816,-4.1883939386367794,-4.844696285420656
1776228673900087000,10.106087158203126,-7.4061875258833165,-4.2675995772987605,-4.806907529774308
1776228673919937000,10.12593701171875,-7.335350487115979,-4.387423934336006,-4.807653671966492
1776228673939788300,10.145788330078124,-7.24758218729198,-4.5291763378039,-4.809312837350368
1776228673959639300,10.165639404296876,-7.190227145910263,-4.643599128058552,-4.786230944709479
1776228673979490300,10.185490234375,-7.1730948093235485,-4.7149996459275485,-4.741927692602575
1776228673999340300,10.20534033203125,-7.169180850750207,-4.772498187433183,-4.69004289932549
1776228674019191300,10.22519140625,-7.157778582248091,-4.842015375773609,-4.635890161116421
1776228674039042300,10.245042236328125,-7.13491559305489,-4.919761755537986,-4.589042777484655
1776228674058893300,10.264893310546874,-7.110396653348207,-4.982235455107689,-4.559603332510591
1776228674078743300,10.284743408203125,-7.096618887886405,-5.022572141671181,-4.536757002191245
1776228674098594300,10.30459423828125,-7.090531092405318,-5.051662042555213,-4.5139191474393
1776228674118445000,10.324445068359376,-7.072488655236363,-5.089672331997752,-4.499503376334905
1776228674138296000,10.344296142578125,-7.036005136969685,-5.143720148527622,-4.495237535583973
1776228674158146000,10.36414599609375,-7.0054890026748176,-5.197787838801741,-4.480681186965108
1776228674177997000,10.3839970703125,-7.010860174319148,-5.225649659195542,-4.439685451970994
1776228674197848300,10.403848388671875,-7.044713344082236,-5.2303422009259455,-4.380173817077279
1776228674217699300,10.42369921875,-7.060915706342458,-5.24717467778325,-4.333706664934754
1776228674237549300,10.44354931640625,-7.045764898961782,-5.289816718679666,-4.306439303302764
1776228674257400300,10.463400390625,-7.030495433637499,-5.3312675039649005,-4.280198654370009
1776228674277251300,10.483251220703124,-7.031238945481181,-5.361843259492516,-4.240601095736027
1776228674297102300,10.503102294921876,-7.034457323005795,-5.3948903735697264,-4.19308443454057
1776228674316952300,10.522952392578125,-7.038673479396104,-5.434394116440415,-4.134589283213019
1776228674336803000,10.542802978515626,-7.042842874035239,-5.473008216995001,-4.076140309114754
1776228674356654000,10.562654052734375,-7.04502372520566,-5.506756757339835,-4.026618737837672
1776228674376505000,10.582505126953125,-7.049338665795326,-5.531919840168952,-3.984353713560104
1776228674396355000,10.60235498046875,-7.058669973242282,-5.549636698645353,-3.9429809619471428
1776228674416206000,10.6222060546875,-7.077610236033797,-5.558304573747515,-3.8965462507694957
1776228674436057300,10.642057373046875,-7.0944058880120515,-5.567742264178395,-3.852276608671248
1776228674455908400,10.661908447265626,-7.091141917780042,-5.595407685217261,-3.8180490526378152
1776228674475758300,10.68175830078125,-7.086739298906922,-5.627306798303127,-3.779143860182166
1776228674495609300,10.701609375,-7.097292257103324,-5.640964736777543,-3.738761873172223
1776228674515460400,10.72146044921875,-7.110327095243334,-5.642027982094883,-3.712297644616663
1776228674535311000,10.74131103515625,-7.111487371194362,-5.64863600205779,-3.7000069028422233
1776228674555161300,10.761161376953124,-7.105536938357353,-5.658854029211402,-3.6958231874167917
1776228674575012000,10.78101220703125,-7.106147179210185,-5.659205326867103,-3.6941111228018997
1776228674594863000,10.800863037109375,-7.119029457136988,-5.640521084663272,-3.697881873512268
1776228674614714000,10.820714111328124,-7.148086040273308,-5.596317201277613,-3.708972591847181
1776228674634564000,10.840564208984375,-7.2031322201907635,-5.516061176779866,-3.722678753377497
1776228674654415000,10.8604150390625,-7.26902887994647,-5.407707185044885,-3.753440094605088
1776228674674266400,10.880266357421876,-7.30975894974172,-5.305911528912186,-3.8190462469816207
1776228674694117400,10.900117431640625,-7.322188223204016,-5.2337803586810825,-3.894031929861009
1776228674713967400,10.91996728515625,-7.337117496788501,-5.182724709704518,-3.934012058071792
1776228674733819000,10.93981884765625,-7.366594351163506,-5.132314957416058,-3.9449993160322308
1776228674753669600,10.959669677734375,-7.400830382764339,-5.10071687310338,-3.9218350058048963
1776228674773521000,10.97952099609375,-7.419191384363174,-5.04601731466651,-3.9577375093132257
1776228674793371000,10.999370849609376,-7.432052619501948,-4.8817172715649,-4.1356764939278365
1776228674813222000,11.019221923828125,-7.452178292685747,-4.622822005228698,-4.389184514267742
1776228674833073000,11.039072998046874,-7.459877030494809,-4.3637069586619734,-4.634509520412982
1776228674852924000,11.058923828125,-7.464356806257367,-4.17456385846585,-4.798621347466111
1776228674872774000,11.07877392578125,-7.478882175216079,-4.040561338472366,-4.889844171658158
1776228674892625000,11.098625,-7.514812735775113,-3.917186303216219,-4.934938866403699
1776228674912476000,11.118475830078125,-7.572071915566921,-3.773320853117108,-4.959451960891485
1776228674932327000,11.138326904296875,-7.633276618114113,-3.6074928697958586,-4.988934660485387
1776228674952177000,11.158177001953124,-7.694365585327148,-3.451107545341551,-5.00569465662837
1776228674972028000,11.17802783203125,-7.736433625727892,-3.3243592342600223,-5.026590729662776
1776228674991878700,11.197878662109375,-7.752449525505304,-3.233775000232458,-5.060889889627695
1776228675011730000,11.21772998046875,-7.756393879216909,-3.171854842892289,-5.093924728745222
1776228675031580000,11.237579833984375,-7.76687260313332,-3.0898610348165034,-5.128239086279272
1776228675051431000,11.257430908203125,-7.79926739078164,-2.9438872142612933,-5.16481729709208
1776228675071282000,11.277281982421876,-7.866423110687732,-2.7267677273809907,-5.182133173552155
1776228675091133000,11.2971328125,-7.957026926198601,-2.5176281333386896,-5.149529711589217
1776228675110984000,11.31698388671875,-8.0591002302289,-2.397974164432287,-5.046881822541356
1776228675130834000,11.336833984375,-8.176741690269113,-2.311646711066365,-4.895668347766995
1776228675150685000,11.356684814453125,-8.282554180827736,-2.277048129763454,-4.731250815765559
1776228675170535700,11.37653564453125,-8.332644199642539,-2.307173072783649,-4.627567446190119
1776228675190386000,11.396385986328125,-8.367419744947552,-2.3643667861238122,-4.535023310266435
1776228675210236700,11.416236572265625,-8.457916008430718,-2.411262100550532,-4.3381861484363675
1776228675230087700,11.436087646484374,-8.607789759033919,-2.429121143976599,-4.021903692014515
1776228675249939000,11.45593896484375,-8.767322733864187,-2.438596828330308,-3.6548160542458294
1776228675269790000,11.4757900390625,-8.858792226293682,-2.490012104399502,-3.389989644294977
1776228675289640000,11.495639892578126,-8.903250961223245,-2.576826756760478,-3.203509918089211
1776228675309491000,11.515490966796875,-8.953771188148856,-2.6184765717491505,-3.0238956937387584
1776228675329342000,11.535342041015625,-9.011095249870419,-2.6105603917971254,-2.855786906003952
1776228675349193000,11.55519287109375,-9.051613138219714,-2.604288471920788,-2.7306340474203226
1776228675369043000,11.57504296875,-9.088030020990967,-2.6206945400595663,-2.590378019990027
1776228675388894000,11.59489404296875,-9.120648096001148,-2.670882174029946,-2.4187908886201677
1776228675408744700,11.61474462890625,-9.13657222584188,-2.7535107728779313,-2.260888145340234
1776228675428595700,11.634595703125,-9.133360278058051,-2.8585104857489463,-2.140333574332297
1776228675448445700,11.65444580078125,-9.126606712144612,-2.9546742734745144,-2.03600781520009
1776228675468296700,11.674296630859375,-9.127911365002394,-3.0375118388980624,-1.9039787872366607
1776228675488148000,11.69414794921875,-9.143798085442185,-3.093502313928306,-1.7296208759792149
1776228675507999000,11.7139990234375,-9.172256118163466,-3.0779379573106764,-1.601998120150715
1776228675527849000,11.733848876953125,-9.218187848255038,-2.9818825983956456,-1.5178180540770292
1776228675547700000,11.753699951171875,-9.279626359558105,-2.8277190416440368,-1.436288502512127
1776228675567551000,11.773551025390624,-9.34813524763882,-2.61860808917433,-1.3876736708164215
1776228675587402000,11.793402099609375,-9.402028750389814,-2.462213704630732,-1.3075716678366065
1776228675607252000,11.813251953125,-9.433623327571153,-2.3959945349223912,-1.198477452193573
1776228675627103000,11.83310302734375,-9.454932073059677,-2.3725746424987912,-1.0702964048951864
1776228675646953700,11.85295361328125,-9.474225387072563,-2.339832648847997,-0.966759092726931
1776228675666804700,11.8728046875,-9.498200136899948,-2.2784002750247714,-0.8737705009713769
1776228675686654700,11.89265478515625,-9.519992281991243,-2.2194698010198772,-0.7836376639731228
1776228675706505700,11.912505615234375,-9.528201891931891,-2.225058853198588,-0.6579267331153154
1776228675726356700,11.932356689453124,-9.527492866879701,-2.2667330719761547,-0.5091039528697728
1776228675746206700,11.952206787109375,-9.529363336926698,-2.2842149526529014,-0.37944238469004626
1776228675766056700,11.972056640625,-9.536200489470362,-2.2703021626345814,-0.2774779478617012
1776228675785907700,11.99190771484375,-9.539920971298217,-2.262303857357055,-0.20560369326742364
1776228675805758700,12.0117587890625,-9.530047812059522,-2.3084642816379666,-0.13986100936387666
1776228675825609700,12.031609619140625,-9.51003904325366,-2.39297547936216,-0.05666391731239855
1776228675845459700,12.051459716796876,-9.494025481563806,-2.4562957127586005,0.021954315666353794
1776228675865310700,12.071310791015625,-9.487176054060459,-2.4811975143030285,0.08676949804499745
1776228675885162000,12.091161865234374,-9.491634787034988,-2.462680445359647,0.12025092101939953
1776228675905012700,12.1110126953125,-9.507272501149773,-2.4007437752760947,0.1363357030482497
1776228675924863000,12.130863037109375,-9.52462169535756,-2.3300126811012625,0.15167763082054442
