time,seconds_elapsed,z,y,x
1776228663851920000,0.057919921875,-0.16694052517414093,-0.08857913315296173,-0.03621552884578705
1776228663871771100,0.077771240234375,-0.16306695342063904,0.057621218264102936,0.02792191132903099
1776228663891622100,0.0976220703125,-0.14116564393043518,0.07417675852775574,0.049555037170648575
1776228663911472000,0.11747216796875,-0.09813854843378067,0.044310204684734344,0.0635259822010994
1776228663931323100,0.1373232421875,-0.10374956578016281,-0.2228759527206421,-0.006584399379789829
1776228663951174100,0.157174072265625,-0.021506357938051224,-0.40450355410575867,-0.05420757830142975
1776228663971024100,0.177024169921875,0.01423672679811716,-0.3138367533683777,-0.02743242308497429
1776228663990875000,0.196875,-0.004728708881884813,-0.12172909826040268,0.040099482983350754
1776228664010726000,0.216725830078125,-0.021530592814087868,-0.04168353229761124,0.05317879840731621
1776228664030575900,0.236575927734375,-0.034690603613853455,-0.12327612936496735,0.04468917474150658
1776228664050427000,0.256427001953125,-0.014158429577946663,-0.25477156043052673,0.040705353021621704
1776228664070278000,0.27627783203125,-0.0029414615128189325,-0.338508278131485,0.05672825872898102
1776228664090128000,0.2961279296875,-0.0003384877636563033,-0.2934856712818146,0.1408870816230774
1776228664109979000,0.315978759765625,-0.08216917514801025,-0.17993754148483276,0.16942816972732544
1776228664129830000,0.335829833984375,-0.1037711352109909,-0.1831570416688919,0.14218910038471222
1776228664149679900,0.355679931640625,-0.06771539896726608,-0.1845991462469101,0.14212705194950104
1776228664169531000,0.37553076171875,-0.06732151657342911,-0.25339338183403015,0.10199933499097824
1776228664189382100,0.395382080078125,-0.07027709484100342,-0.3476245403289795,0.06942914426326752
1776228664209232100,0.415232177734375,0.02010553516447544,-0.38974857330322266,0.08971550315618515
1776228664229083100,0.435083251953125,0.07646627724170685,-0.36139920353889465,0.08403284847736359
1776228664248934100,0.45493408203125,0.08196171373128891,-0.2136872559785843,0.023502662777900696
1776228664268784000,0.4747841796875,0.05476178228855133,-0.057129863649606705,-0.1523173600435257
1776228664288635100,0.49463525390625,0.02707982063293457,-0.0756140649318695,-0.3785203993320465
1776228664308486000,0.51448583984375,0.044871069490909576,-0.0726611539721489,-0.49556899070739746
1776228664328336100,0.534336181640625,0.10976671427488327,-0.021763885393738747,-0.5112321376800537
1776228664348187000,0.554186767578125,0.11612927168607712,0.07739119231700897,-0.5265657901763916
1776228664368038000,0.574037841796875,0.06859610229730606,0.04807564988732338,-0.5645387768745422
1776228664387887900,0.593887939453125,0.034377679228782654,0.13480548560619354,-0.44774129986763
1776228664407739000,0.61373876953125,-0.03152357041835785,0.1737651377916336,-0.3149392902851105
1776228664427590000,0.63358984375,-0.09967999160289764,0.17851142585277557,-0.23022174835205078
1776228664447440000,0.65343994140625,-0.13621775805950165,0.139236181974411,-0.17416328191757202
1776228664467291000,0.673290771484375,-0.10318443924188614,0.1830981820821762,-0.09033841639757156
1776228664487142100,0.69314208984375,-0.07423081994056702,0.1570279598236084,-0.03816203400492668
1776228664506991900,0.712991943359375,-0.10726600140333176,0.08333004266023636,-0.04375014454126358
1776228664526843100,0.732843017578125,-0.07720131427049637,0.06131156161427498,-0.0434875562787056
1776228664546694100,0.752694091796875,-0.004318581894040108,0.050754256546497345,-0.013981861993670464
1776228664566544100,0.772544189453125,0.02208586037158966,-0.06746052950620651,0.0011193265672773123
1776228664586395100,0.79239501953125,0.02418469823896885,-0.23530679941177368,-0.0004141215467825532
1776228664606246000,0.812245849609375,0.004474110435694456,-0.3752359449863434,0.013727796263992786
1776228664626096000,0.83209619140625,0.02851952612400055,-0.3316967189311981,0.10296446830034256
1776228664645947000,0.85194677734375,0.07616667449474335,-0.22786538302898407,0.17591190338134766
1776228664665798000,0.8717978515625,0.09311263263225555,-0.18933583796024323,0.17246364057064056
1776228664685648000,0.89164794921875,0.09453929215669632,-0.1801053285598755,0.0863490030169487
1776228664705499000,0.911498779296875,0.0712217167019844,-0.18828068673610687,-0.005531918257474899
1776228664725349000,0.93134912109375,0.02576102316379547,-0.2114185094833374,-0.029759226366877556
1776228664745200000,0.9512001953125,0.0324825756251812,-0.2732491195201874,0.02641030214726925
1776228664765051100,0.971051025390625,0.04865781590342522,-0.3114074170589447,0.08452766388654709
1776228664784901000,0.990901123046875,0.0065622953698039055,-0.39148759841918945,0.10424544662237167
1776228664804752100,1.010752197265625,-0.05456257611513138,-0.4349413514137268,0.14163196086883545
1776228664824603100,1.03060302734375,-0.0985710471868515,-0.32207897305488586,0.16612611711025238
1776228664844453000,1.050453125,-0.0924130231142044,-0.21894140541553497,0.16706781089305878
1776228664864304000,1.07030419921875,-0.08017446100711823,-0.12417041510343552,0.12675288319587708
1776228664884155100,1.090155029296875,-0.1119246706366539,-0.0025238776579499245,0.045337121933698654
1776228664904005000,1.110005126953125,-0.1019950732588768,0.05505179986357689,-0.05384964868426323
1776228664923856100,1.129856201171875,-0.05401982367038727,0.036370258778333664,-0.10959174484014511
1776228664943707000,1.149706787109375,-0.07207392901182175,0.021738851442933083,-0.14087669551372528
1776228664963557000,1.16955712890625,-0.12217437475919724,0.019877834245562553,-0.1379789113998413
1776228664983408000,1.189408203125,-0.1465095430612564,0.05318811908364296,-0.10990439355373383
1776228665003259100,1.209259033203125,-0.12624181807041168,0.05819539725780487,-0.08279208838939667
1776228665023109000,1.229109130859375,-0.05024346336722374,0.0033726270776242018,-0.05270954966545105
1776228665042960100,1.248960205078125,-0.036795299500226974,-0.10822021216154099,-0.05463288351893425
1776228665062811100,1.26881103515625,-0.09064867347478867,-0.15612834692001343,-0.07004965841770172
1776228665082661000,1.2886611328125,-0.15129365026950836,-0.026276610791683197,-0.04290272668004036
1776228665102512000,1.30851220703125,-0.17320933938026428,0.07838082313537598,-0.01944560371339321
1776228665122362000,1.328362060546875,-0.17005908489227295,0.02225417271256447,-0.014997857622802258
1776228665142213000,1.348213134765625,-0.1657269150018692,-0.0345529168844223,-0.017616011202335358
1776228665162064100,1.368064208984375,-0.13981036841869354,-0.036685310304164886,-0.0008050735923461616
1776228665181914000,1.3879140625,-0.10791181772947311,-0.039623044431209564,0.019111642614006996
1776228665201765000,1.40776513671875,-0.0501188263297081,-0.06607302278280258,0.018033063039183617
1776228665221616000,1.4276162109375,-0.01918860897421837,-0.1400284767150879,-0.014937404543161392
1776228665241466000,1.447466064453125,-0.04127766564488411,-0.07047070562839508,-0.011126154102385044
1776228665261317000,1.467317138671875,-0.06610152125358582,0.05777302011847496,0.028494758531451225
1776228665281168100,1.487168212890625,-0.05137450620532036,0.026850523427128792,0.04284839704632759
1776228665301018000,1.50701806640625,-0.04689613729715347,-0.07878429442644119,0.0626833513379097
1776228665320869000,1.526869140625,-0.06950504332780838,-0.07179243117570877,0.12661440670490265
1776228665340720000,1.54672021484375,-0.10085097700357437,-0.055214252322912216,0.164435014128685
1776228665360570000,1.566570068359375,-0.12918967008590698,-0.09662960469722748,0.10557089745998383
1776228665380421000,1.586421142578125,-0.13002245128154755,-0.09275790303945541,0.005889846943318844
1776228665400272100,1.606272216796875,-0.1044454500079155,-0.0478450208902359,-0.022041385993361473
1776228665420122000,1.6261220703125,-0.07212692499160767,-0.04819176346063614,-0.024516262114048004
1776228665439973000,1.64597314453125,-0.012952283956110477,-0.1357591599225998,-0.010044378228485584
1776228665459823000,1.665822998046875,0.02027890644967556,-0.24446327984333038,-0.022657109424471855
1776228665479674000,1.685674072265625,0.00330338510684669,-0.2976793646812439,-0.030012227594852448
1776228665499525000,1.705525146484375,-0.044006071984767914,-0.17125830054283142,0.038660842925310135
1776228665519375000,1.725375,-0.10285820811986923,-0.12672998011112213,0.08522435277700424
1776228665539226000,1.74522607421875,-0.1337876319885254,-0.0956820473074913,0.040287766605615616
1776228665559077000,1.7650771484375,-0.14755509793758392,-0.10892115533351898,-0.035235218703746796
1776228665578927000,1.784927001953125,-0.14203409850597382,-0.054611314088106155,-0.06570044904947281
1776228665598778000,1.804778076171875,-0.1450115144252777,0.029742449522018433,-0.11452098935842514
1776228665618629000,1.824629150390625,-0.15528306365013123,0.07822795957326889,-0.1740705966949463
1776228665638479000,1.84447900390625,-0.13662229478359222,0.08601584285497665,-0.20505887269973755
1776228665658330000,1.864330078125,-0.11082664877176285,0.08463206142187119,-0.20398668944835663
1776228665678181000,1.88418115234375,-0.06688688695430756,0.06284128129482269,-0.17864884436130524
1776228665698031000,1.904031005859375,-0.04054689407348633,0.01780589483678341,-0.1414671093225479
1776228665717881900,1.9238818359375,-0.03265168517827988,-0.0035198999103158712,-0.09573451429605484
1776228665737732900,1.94373291015625,-0.04788922891020775,-0.008793758228421211,-0.0335390530526638
1776228665757582800,1.963582763671875,-0.053938332945108414,-0.010492322035133839,0.03368952125310898
1776228665777433900,1.983433837890625,-0.057979680597782135,-0.013128318823873997,0.0978115126490593
1776228665797283800,2.003283935546875,-0.0683542862534523,-0.0648876503109932,0.12347160279750824
1776228665817135000,2.023135009765625,-0.07488489151000977,-0.060752030462026596,0.16064614057540894
1776228665836986000,2.042986083984375,-0.11230789870023727,-0.018209896981716156,0.22411192953586578
1776228665856836000,2.062836181640625,-0.15262337028980255,-0.0007278419216163456,0.2941783666610718
1776228665876687000,2.08268701171875,-0.16306482255458832,-0.05106611177325249,0.37877020239830017
1776228665896538000,2.1025380859375,-0.1837754249572754,-0.031867120414972305,0.45298078656196594
1776228665916388000,2.12238818359375,-0.2392227053642273,-0.017788318917155266,0.42582985758781433
1776228665936239000,2.142239013671875,-0.2629743814468384,-0.18663565814495087,0.3050789535045624
1776228665956089900,2.16208984375,-0.21303264796733856,-0.22768428921699524,0.1859874427318573
1776228665975940000,2.181940185546875,-0.1965697854757309,-0.17098985612392426,0.0616934560239315
1776228665995790800,2.201790771484375,-0.29028189182281494,-0.18288379907608032,-0.041860632598400116
1776228666015641900,2.221641845703125,-0.41880151629447937,-0.16368107497692108,-0.07076764851808548
1776228666035491800,2.241491943359375,-0.496124267578125,-0.22846859693527222,-0.007507184520363808
1776228666055342800,2.2613427734375,-0.45558351278305054,-0.1577635258436203,0.13682416081428528
1776228666075192800,2.28119287109375,-0.343031644821167,0.0638924315571785,0.28159278631210327
1776228666095043800,2.3010439453125,-0.3436223566532135,0.14374837279319763,0.37913426756858826
1776228666114894800,2.320894775390625,-0.5055787563323975,-0.02726224809885025,0.39001035690307617
1776228666134744800,2.340744873046875,-0.6840537190437317,-0.4244000017642975,0.41437003016471863
1776228666154596000,2.36059619140625,-0.8540653586387634,-0.7357088923454285,0.4846833348274231
1776228666174447000,2.380447021484375,-0.9337700605392456,-0.8389080166816711,0.7006896734237671
1776228666194297000,2.400297119140625,-0.828769862651825,-1.1068449020385742,0.7886157631874084
1776228666214148000,2.420148193359375,-0.6425802707672119,-0.9901944398880005,0.6164725422859192
1776228666233999000,2.4399990234375,-0.5377177596092224,-0.888907790184021,0.2679249346256256
1776228666253849000,2.45984912109375,-0.6069562435150146,-0.7094882130622864,-0.20403675734996796
1776228666273700000,2.4797001953125,-0.5350402593612671,-0.07837843149900436,-0.6798213720321655
1776228666293550800,2.49955078125,0.23214082419872284,0.5792287588119507,-1.2281765937805176
1776228666313401000,2.519401123046875,0.5632337927818298,0.8632261157035828,-1.620909333229065
1776228666333251800,2.539251953125,0.7526178359985352,0.7304621934890747,-1.458414077758789
1776228666353102800,2.559102783203125,1.0007072687149048,0.3986235558986664,-1.1297433376312256
1776228666372952800,2.578952880859375,1.5446467399597168,0.5231694579124451,-0.9109049439430237
1776228666392803800,2.598803955078125,2.205751419067383,0.19368824362754822,-0.6473598480224609
1776228666412653800,2.61865380859375,2.107212543487549,-0.37924453616142273,-0.6360150575637817
1776228666432504800,2.6385048828125,1.2836675643920898,-0.31266096234321594,-0.5010697841644287
1776228666452356000,2.658356201171875,0.2819826900959015,0.36747682094573975,-0.06937534362077713
1776228666472205800,2.678205810546875,-0.1324155628681183,0.5929320454597473,0.2777312099933624
1776228666492057000,2.69805712890625,0.054905857890844345,0.5287213325500488,0.3460218608379364
1776228666511908000,2.717908203125,0.12238849699497223,0.19085383415222168,0.08413112163543701
1776228666531758000,2.737758056640625,0.13166002929210663,0.058689411729574203,-0.1973157376050949
1776228666551609000,2.757609130859375,0.1960880160331726,0.13792750239372253,-0.274507999420166
1776228666571460000,2.777460205078125,0.4300539195537567,0.19611278176307678,-0.2662806808948517
1776228666591310000,2.79731005859375,0.5797107815742493,0.318180114030838,-0.2756190598011017
1776228666611161000,2.8171611328125,0.5739085674285889,0.5159499049186707,-0.2481064796447754
1776228666631011800,2.83701171875,0.6322565674781799,0.5709774494171143,-0.19082960486412048
1776228666650862000,2.856862060546875,0.8653957843780518,0.5229023694992065,-0.12734170258045197
1776228666670712800,2.876712890625,1.0328689813613892,0.353640079498291,-0.09786105155944824
1776228666690563800,2.896563720703125,1.0626561641693115,0.02695758081972599,-0.010981811210513115
1776228666710413800,2.916413818359375,0.9139079451560974,-0.14752207696437836,0.18632780015468597
1776228666730264300,2.936264404296875,0.6118263602256775,-0.27599483728408813,0.31245511770248413
1776228666750114600,2.956114501953125,0.33945584297180176,-0.47425785660743713,0.40355199575424194
1776228666769965300,2.97596533203125,0.25880733132362366,-0.4488108158111572,0.4908032715320587
1776228666789816600,2.995816650390625,0.3840954601764679,-0.5684525370597839,0.4452826678752899
1776228666809666600,3.01566650390625,0.37771907448768616,-0.8114017844200134,0.23978570103645325
1776228666829517600,3.035517578125,0.2369861751794815,-0.7983062267303467,0.10760156065225601
1776228666849368600,3.05536865234375,0.12004358321428299,-0.8404331803321838,0.08461768180131912
1776228666869218600,3.075218505859375,0.15762664377689362,-1.0292634963989258,0.13140197098255157
1776228666889069600,3.095069580078125,0.3478703498840332,-1.5104643106460571,0.29363852739334106
1776228666908920600,3.114920654296875,0.5996224284172058,-1.995024561882019,0.510023832321167
1776228666928770600,3.1347705078125,0.8564885854721069,-2.1308250427246094,0.6493540406227112
1776228666948621600,3.15462158203125,0.8685985207557678,-2.2968828678131104,0.36375531554222107
1776228666968472600,3.17447265625,0.8745629191398621,-2.4274041652679443,-0.07470539957284927
1776228666988322600,3.194322509765625,0.8878509998321533,-2.75044584274292,-0.2791842222213745
1776228667008173600,3.214173583984375,0.9360654354095459,-3.5015599727630615,-0.1397288739681244
1776228667028024300,3.2340244140625,0.9389137029647827,-4.491568088531494,0.15778324007987976
1776228667047874600,3.25387451171875,0.9197764992713928,-5.279486656188965,0.3014596998691559
1776228667067725300,3.273725341796875,1.3179872035980225,-5.482876777648926,0.4100056290626526
1776228667087576600,3.29357666015625,1.6189947128295898,-5.329680919647217,0.75315260887146
1776228667107426300,3.31342626953125,2.004150629043579,-5.5269317626953125,1.1285091638565063
1776228667127277600,3.333277587890625,2.3445799350738525,-5.466089248657227,1.549709439277649
1776228667147128600,3.353128662109375,2.7459187507629395,-5.2569966316223145,1.6707417964935303
1776228667166978600,3.372978515625,3.266652822494507,-5.167332172393799,1.7233033180236816
1776228667186829600,3.39282958984375,3.9899353981018066,-4.979477405548096,1.6693847179412842
1776228667206680600,3.4126806640625,4.540775775909424,-4.385842323303223,1.4501588344573975
1776228667226530600,3.432530517578125,4.989852428436279,-3.0644078254699707,0.8190533518791199
1776228667246381600,3.452381591796875,5.241422653198242,-1.2535123825073242,-0.28991782665252686
1776228667266231600,3.4722314453125,5.4742302894592285,0.2683161497116089,-1.8193832635879517
1776228667286082600,3.49208251953125,5.271543025970459,1.3830701112747192,-3.0654819011688232
1776228667305933600,3.51193359375,4.870106220245361,2.2430026531219482,-3.5036606788635254
1776228667325783600,3.531783447265625,4.310149192810059,2.8036811351776123,-3.2117016315460205
1776228667345634600,3.551634521484375,3.8442981243133545,2.753141403198242,-2.6372265815734863
1776228667365485300,3.5714853515625,3.4346892833709717,2.2488229274749756,-2.106229543685913
1776228667385335600,3.59133544921875,3.073669672012329,1.4759886264801025,-1.6275405883789062
1776228667405186300,3.611186279296875,2.8328053951263428,0.6603198647499084,-1.238053560256958
1776228667425037600,3.63103759765625,2.6593687534332275,0.3437568247318268,-1.028031587600708
1776228667444887600,3.650887451171875,2.5599253177642822,0.6953492164611816,-1.1891543865203857
1776228667464738600,3.670738525390625,2.3285250663757324,1.2482789754867554,-1.7854409217834473
1776228667484589600,3.690589599609375,1.7989929914474487,1.1542118787765503,-2.156881809234619
1776228667504439600,3.710439453125,1.3140393495559692,0.8194922208786011,-1.9187886714935303
1776228667524290600,3.73029052734375,1.1536893844604492,0.5352565050125122,-1.3830668926239014
1776228667544141600,3.7501416015625,0.976787269115448,0.17438405752182007,-0.8879181146621704
1776228667563991600,3.769991455078125,0.38595834374427795,-0.4630294442176819,-0.5849295258522034
1776228667583842600,3.789842529296875,-0.5015552639961243,-1.3496605157852173,-0.09587539732456207
1776228667603693600,3.809693603515625,-1.4216539859771729,-2.026832103729248,0.7853710055351257
1776228667623543600,3.82954345703125,-2.1023550033569336,-2.027212619781494,1.5090829133987427
1776228667643394600,3.84939453125,-2.465866804122925,-1.9554047584533691,1.513175368309021
1776228667663245300,3.869245361328125,-2.6817264556884766,-1.8471949100494385,1.277958869934082
1776228667683095600,3.889095458984375,-2.928027629852295,-1.4789838790893555,1.3487826585769653
1776228667702946300,3.9089462890625,-3.145658016204834,-1.010552167892456,1.4432231187820435
1776228667722798000,3.928798095703125,-3.339707374572754,-0.897208034992218,1.297545313835144
1776228667742648000,3.94864794921875,-3.604886531829834,-0.8541814684867859,1.160492181777954
1776228667762499000,3.9684990234375,-3.9963462352752686,-0.6926647424697876,1.298439860343933
1776228667782350000,3.98835009765625,-4.165035247802734,-0.46663907170295715,1.6018314361572266
1776228667802200000,4.008199951171875,-4.077914714813232,-0.39406874775886536,1.6644240617752075
1776228667822051000,4.028051025390625,-3.917405366897583,-0.29128482937812805,1.4606966972351074
1776228667841902300,4.04790234375,-3.787393808364868,-0.15356318652629852,1.1139435768127441
1776228667861752000,4.067751953125,-3.819096803665161,-0.1381019502878189,0.6491860151290894
1776228667881603300,4.087603271484375,-3.8382599353790283,-0.036786776036024094,0.239787295460701
1776228667901454300,4.107454345703125,-3.64947509765625,0.34977051615715027,0.005450159311294556
1776228667921304300,4.12730419921875,-3.2291226387023926,0.7070889472961426,-0.14614015817642212
1776228667941155000,4.147155029296875,-2.7002429962158203,0.8288319110870361,-0.14508022367954254
1776228667961006000,4.167006103515625,-2.231656789779663,0.6538787484169006,-0.013983992859721184
1776228667980856000,4.18685595703125,-1.8574161529541016,0.4111664891242981,0.1349511593580246
1776228668000707000,4.20670703125,-1.5710903406143188,0.0865388885140419,0.12455098330974579
1776228668020558000,4.22655810546875,-1.2537394762039185,-0.1569424718618393,0.0952327772974968
1776228668040408000,4.246407958984375,-0.8741557002067566,-0.1747337281703949,0.139139786362648
1776228668060259000,4.266259033203125,-0.5858938097953796,-0.15690705180168152,0.07054793834686279
1776228668080110000,4.286110107421875,-0.28685227036476135,-0.08640679717063904,-0.05439107120037079
1776228668099960000,4.3059599609375,0.010635600425302982,0.23070591688156128,-0.12109153717756271
1776228668119811000,4.32581103515625,0.37471529841423035,0.6142218708992004,-0.1202787384390831
1776228668139662300,4.345662353515625,0.734768271446228,0.5472077131271362,-0.15900616347789764
1776228668159512000,4.365511962890625,0.9478296637535095,0.10354530066251755,-0.22700731456279755
1776228668179363300,4.38536328125,1.1384854316711426,-0.2834168076515198,-0.26703357696533203
1776228668199214300,4.40521435546875,1.4122918844223022,-0.32902076840400696,-0.3295632600784302
1776228668219064300,4.425064208984375,1.762953758239746,-0.05519933998584747,-0.48345428705215454
1776228668238915300,4.444915283203125,2.065911054611206,0.1517903208732605,-0.6165286898612976
1776228668258766000,4.46476611328125,2.218315601348877,0.14649009704589844,-0.6714111566543579
1776228668278616000,4.484615966796875,2.2425427436828613,-0.08769576251506805,-0.6558196544647217
1776228668298467000,4.504467041015625,2.28096342086792,-0.4073781669139862,-0.5948370099067688
1776228668318318000,4.524318115234375,2.436234474182129,-0.5462918281555176,-0.47304531931877136
1776228668338168000,4.54416796875,2.700469493865967,-0.4109843373298645,-0.4008864462375641
1776228668358019000,4.56401904296875,2.786170244216919,-0.36101117730140686,-0.39874976873397827
1776228668377870000,4.5838701171875,2.726609468460083,-0.18903276324272156,-0.14427489042282104
1776228668397720000,4.603719970703125,2.453618288040161,-0.09886959195137024,-0.00729466462507844
1776228668417571000,4.623571044921875,2.376776933670044,-0.2742616534233093,-0.12448866665363312
1776228668437422000,4.643422119140625,2.5661044120788574,-0.3172144293785095,-0.2918952405452728
1776228668457272000,4.66327197265625,2.6886379718780518,-0.13738475739955902,-0.4198310971260071
1776228668477123300,4.683123291015625,2.568340301513672,0.2597396969795227,-0.22204957902431488
1776228668496974300,4.702974365234375,2.243910312652588,0.7938593029975891,-0.23309797048568726
1776228668516824300,4.72282421875,1.8106722831726074,1.2445350885391235,-0.5211590528488159
1776228668536675300,4.74267529296875,1.6660709381103516,1.7172664403915405,-0.5705777406692505
1776228668556526000,4.762526123046875,1.6620543003082275,1.8857563734054565,-0.6200512647628784
1776228668576376300,4.782376220703125,1.682418704032898,1.8963587284088135,-0.7226026654243469
1776228668596227000,4.80222705078125,1.5664353370666504,1.7502089738845825,-0.7960031032562256
1776228668616078000,4.822078125,1.2953517436981201,1.545016884803772,-0.8385692238807678
1776228668635928000,4.841927978515625,0.9742844700813293,1.112693428993225,-0.8622745871543884
1776228668655779000,4.861779052734375,0.8486969470977783,0.8990592360496521,-0.8167417049407959
1776228668675630000,4.881630126953125,0.9262090921401978,0.8784125447273254,-0.8508967161178589
1776228668695480000,4.90147998046875,0.9444777965545654,0.9636712074279785,-0.9610035419464111
1776228668715331000,4.9213310546875,0.8635289072990417,1.1817699670791626,-1.0915130376815796
1776228668735182800,4.941182861328125,0.7140294313430786,1.4074782133102417,-1.1263493299484253
1776228668755032800,4.96103271484375,0.4518209993839264,1.5793061256408691,-1.0425761938095093
1776228668774883800,4.9808837890625,0.28332170844078064,1.6195957660675049,-0.8591048717498779
1776228668794734600,5.000734619140625,0.24490056931972504,1.6333107948303223,-0.629578709602356
1776228668814584800,5.020584716796875,0.3110918402671814,1.6418215036392212,-0.42392170429229736
1776228668834435600,5.040435546875,0.17812100052833557,1.6157361268997192,-0.4791540801525116
1776228668854286600,5.06028662109375,-0.1800358146429062,1.634892225265503,-0.5844959616661072
1776228668874136600,5.080136474609375,-0.4830782413482666,2.0170817375183105,-0.4815264046192169
1776228668893987600,5.099987548828125,-0.6259022355079651,2.4913177490234375,-0.5705130100250244
1776228668913838800,5.1198388671875,-0.5692296624183655,2.8182177543640137,-0.5984650254249573
1776228668933688800,5.139688720703125,-0.6009321808815002,2.316283702850342,-0.35036441683769226
1776228668953539800,5.159539794921875,-1.1685857772827148,0.7946228384971619,-0.6866976618766785
1776228668973390800,5.179390869140625,-1.3833733797073364,0.16901645064353943,-1.428428292274475
1776228668993240800,5.19924072265625,-1.0544506311416626,1.0059126615524292,-1.872127652168274
1776228669013091800,5.219091796875,-0.8589684963226318,1.6440974473953247,-2.3760826587677
1776228669032942800,5.23894287109375,-0.8818815350532532,1.6000466346740723,-2.452899694442749
1776228669052793900,5.2587939453125,-0.8885424137115479,1.2161881923675537,-2.0695652961730957
1776228669072643800,5.278643798828125,-0.9231898188591003,0.5559396743774414,-1.4747520685195923
1776228669092494800,5.298494873046875,-0.7664793133735657,0.055763129144907,-0.8627187609672546
1776228669112345600,5.318345703125,-0.6081027388572693,-0.12387027591466904,-0.2753351628780365
1776228669132195600,5.338195556640625,-0.7876317501068115,-0.9180930852890015,0.12348572164773941
1776228669152046600,5.358046630859375,-1.092161774635315,-1.7908821105957031,0.48924267292022705
1776228669171897900,5.37789794921875,-1.2022387981414795,-2.015395164489746,0.6486291289329529
1776228669191747600,5.39774755859375,-1.4375253915786743,-1.8090142011642456,0.6564146280288696
1776228669211598800,5.417598876953125,-1.750760793685913,-1.7142293453216553,0.7205080986022949
1776228669231449900,5.437449951171875,-2.043134927749634,-1.4861325025558472,0.7765690088272095
1776228669251299800,5.4572998046875,-2.25087833404541,-1.0425798892974854,0.8646338582038879
1776228669271150800,5.47715087890625,-2.4924840927124023,-0.5154678821563721,0.6993466019630432
1776228669291001900,5.497001953125,-2.6051387786865234,-0.4212718605995178,0.5762404203414917
1776228669310851800,5.516851806640625,-2.636869430541992,-0.4640590250492096,0.47895780205726624
1776228669330702800,5.536702880859375,-2.527390241622925,-0.4365901052951813,0.382589191198349
1776228669350553900,5.556553955078125,-2.417426824569702,-0.2918616831302643,0.22616548836231232
1776228669370403800,5.57640380859375,-2.3516623973846436,-0.00424374733120203,0.05005038529634476
1776228669390254800,5.5962548828125,-2.210827589035034,0.43963730335235596,-0.006488525774329901
1776228669410105600,5.616105712890625,-2.0848145484924316,0.8370397686958313,0.06518113613128662
1776228669429955800,5.635955810546875,-1.9084031581878662,0.6882268786430359,0.13718768954277039
1776228669449806600,5.655806640625,-1.70095694065094,0.03191559016704559,0.26238927245140076
1776228669469657600,5.67565771484375,-1.45586097240448,-0.6678627133369446,0.4226452708244324
1776228669489508900,5.6955087890625,-1.2028260231018066,-0.9536934494972229,0.6149265766143799
1776228669509358800,5.71535888671875,-0.9468770623207092,-0.7131058573722839,0.7753295302391052
1776228669529209900,5.7352099609375,-0.7000768780708313,-0.38261979818344116,0.8331614136695862
1776228669549060900,5.755060791015625,-0.46421322226524353,-0.2641405761241913,0.7704519629478455
1776228669568910800,5.774910888671875,-0.20449987053871155,-0.265804260969162,0.7500982284545898
1776228669588761900,5.794761962890625,0.14095446467399597,-0.34314724802970886,0.9170430302619934
1776228669608612900,5.81461279296875,0.6021209955215454,-0.33960604667663574,1.3002084493637085
1776228669628462800,5.834462890625,0.967374324798584,-0.4554082751274109,1.5388658046722412
1776228669648313900,5.85431396484375,1.138156533241272,-0.5764214992523193,1.5032367706298828
1776228669668164600,5.87416455078125,1.1807318925857544,-0.5068554878234863,1.2802449464797974
1776228669688014800,5.894014892578125,1.206100583076477,-0.379978209733963,0.8757999539375305
1776228669707865600,5.913865478515625,1.2649849653244019,-0.1064838320016861,0.400332510471344
1776228669727716600,5.933716552734375,1.4205248355865479,0.32761913537979126,0.03543948382139206
1776228669747566600,5.953566650390625,1.6479249000549316,0.6540875434875488,-0.20990130305290222
1776228669767417600,5.97341748046875,1.8879894018173218,0.7579183578491211,-0.48878273367881775
1776228669787268600,5.9932685546875,2.196939468383789,0.7943927049636841,-0.6540271043777466
1776228669807118600,6.01311865234375,2.38126540184021,0.7273292541503906,-0.6992835402488708
1776228669826969600,6.032969482421875,2.470417022705078,0.6225911378860474,-0.5995084643363953
1776228669846820600,6.052820556640625,2.5816104412078857,0.5947030186653137,-0.5462372303009033
1776228669866671600,6.072671630859375,2.735764980316162,0.6753829717636108,-0.6259230375289917
1776228669886521600,6.092521484375,2.8194565773010254,0.8069015741348267,-0.7594584226608276
1776228669906372600,6.11237255859375,2.7422022819519043,0.8631062507629395,-0.8745959401130676
1776228669926223600,6.1322236328125,2.6174659729003906,0.9446738362312317,-0.8580009937286377
1776228669946073600,6.152073486328125,2.647355794906616,1.0989805459976196,-0.7010512948036194
1776228669965924600,6.171924560546875,2.7929928302764893,1.1239820718765259,-0.5643062591552734
1776228669985775600,6.191775634765625,2.839249849319458,0.9789556264877319,-0.486972838640213
1776228670005625600,6.21162548828125,2.749666690826416,0.8331006765365601,-0.5187411904335022
1776228670025476600,6.2314765625,2.5314552783966064,0.8318402171134949,-0.5886662006378174
1776228670045327600,6.25132763671875,2.327500343322754,0.9904122948646545,-0.5581011176109314
1776228670065178600,6.2711787109375,2.1312415599823,1.1550952196121216,-0.4396125376224518
1776228670085028600,6.291028564453125,2.0128095149993896,0.978061854839325,-0.2578358054161072
1776228670104879600,6.310879638671875,1.894461750984192,0.5415716171264648,-0.06858571618795395
1776228670124730600,6.330730712890625,1.6467198133468628,0.07365851104259491,0.04812411963939667
1776228670144580600,6.35058056640625,1.2736109495162964,-0.2693369388580322,0.21563827991485596
1776228670164431600,6.370431640625,0.9730445146560669,-0.20252753794193268,0.29535043239593506
1776228670184282600,6.39028271484375,0.7760267853736877,-0.001216798322275281,0.2800915837287903
1776228670204132600,6.410132568359375,0.5529835820198059,0.08055316656827927,0.31370997428894043
1776228670223983600,6.429983642578125,0.2821824252605438,-0.0407482273876667,0.40979525446891785
1776228670243834400,6.44983447265625,0.02719806507229805,-0.2936140298843384,0.5652093291282654
1776228670263684600,6.4696845703125,-0.13359028100967407,-0.6409123539924622,0.673869252204895
1776228670283535600,6.48953564453125,-0.32035911083221436,-0.8294809460639954,0.5830370783805847
1776228670303386600,6.50938671875,-0.5623427033424377,-0.7904677391052246,0.28567835688591003
1776228670323237600,6.529237548828125,-0.7971357703208923,-0.5639470219612122,-0.06746399402618408
1776228670343087600,6.549087646484375,-1.0488582849502563,-0.2293735295534134,-0.2953818440437317
1776228670362938600,6.568938720703125,-1.317366123199463,-0.31286975741386414,-0.3485015332698822
1776228670382789600,6.58878955078125,-1.5017842054367065,-0.6347822546958923,-0.28704801201820374
1776228670402639600,6.6086396484375,-1.682702898979187,-0.9286543726921082,-0.19349808990955353
1776228670422490600,6.62849072265625,-1.8525464534759521,-1.1161537170410156,-0.20345617830753326
1776228670442341600,6.648341552734375,-2.2049310207366943,-1.1399855613708496,-0.17033737897872925
1776228670462191600,6.668191650390625,-2.687622547149658,-0.9934784173965454,0.032641299068927765
1776228670482042600,6.688042724609375,-2.9793100357055664,-0.8076049089431763,0.23410864174365997
1776228670501893600,6.7078935546875,-3.1854288578033447,-0.7237414717674255,0.2277522087097168
1776228670521744400,6.727744384765625,-3.6003615856170654,-0.5989648699760437,0.18063555657863617
1776228670541594600,6.7475947265625,-3.886557102203369,-0.43277034163475037,0.12246333062648773
1776228670561445600,6.767445556640625,-3.951826810836792,-0.22623659670352936,-0.02610643580555916
1776228670581296600,6.787296630859375,-3.8755829334259033,-0.02310718409717083,-0.11490794271230698
1776228670601146600,6.807146728515625,-3.7311320304870605,0.050392866134643555,-0.050942808389663696
1776228670620997600,6.82699755859375,-3.4770092964172363,0.006747118663042784,0.08396254479885101
1776228670640848600,6.8468486328125,-3.1308095455169678,-0.16388852894306183,0.13365685939788818
1776228670660698600,6.86669873046875,-2.8150064945220947,-0.15217489004135132,0.15610012412071228
1776228670680549600,6.886549560546875,-2.5480310916900635,0.006577741354703903,0.15719521045684814
1776228670700400600,6.906400634765625,-2.2600739002227783,0.25306475162506104,0.12810763716697693
1776228670720251600,6.926251708984375,-1.9092729091644287,0.6897779107093811,0.09849993884563446
1776228670740101400,6.946101318359375,-1.5840370655059814,1.03937828540802,0.05041204020380974
1776228670759952400,6.965952392578125,-1.3015365600585938,0.9137774109840393,0.05753040313720703
1776228670779803400,6.985803466796875,-1.0234078168869019,0.5121994018554688,0.1162983775138855
1776228670799653400,7.0056533203125,-0.6770468950271606,0.08553487807512283,0.21006321907043457
1776228670819504400,7.02550439453125,-0.3263094127178192,-0.24537141621112823,0.3838816285133362
1776228670839355100,7.045355224609375,0.11728242039680481,-0.4272370934486389,0.537968635559082
1776228670859205000,7.065205078125,0.501873791217804,-0.454916387796402,0.5656998753547668
1776228670879056100,7.08505615234375,0.836388885974884,-0.3952045738697052,0.5080733299255371
1776228670898907100,7.1049072265625,1.1630213260650635,-0.24849210679531097,0.40959498286247253
1776228670918758400,7.12475830078125,1.5010555982589722,-0.02069196291267872,0.3487872779369354
1776228670938608000,7.144608154296875,1.8469916582107544,0.274623841047287,0.33532845973968506
1776228670958459400,7.16445947265625,2.125032901763916,0.3839609920978546,0.30068233609199524
1776228670978310400,7.184310302734375,2.333331346511841,0.302977979183197,0.2790580093860626
1776228670998160400,7.204160400390625,2.521080255508423,0.036376383155584335,0.30360516905784607
1776228671018011400,7.224011474609375,2.725238800048828,-0.14409857988357544,0.2873721122741699
1776228671037862400,7.2438623046875,3.1078429222106934,-0.11077471822500229,0.20929010212421417
1776228671057713200,7.263713134765625,3.518428325653076,0.07935953885316849,0.1270889788866043
1776228671077563400,7.2835634765625,3.7243058681488037,0.31004148721694946,0.09138929843902588
1776228671097414100,7.3034140625,3.68959903717041,0.46168720722198486,0.032761674374341965
1776228671117265200,7.32326513671875,3.5501019954681396,0.47745150327682495,-0.04602528363466263
1776228671137115100,7.343115234375,3.4592082500457764,0.48149818181991577,-0.1640656292438507
1776228671156966100,7.362966064453125,3.4144139289855957,0.5810311436653137,-0.24113298952579498
1776228671176817200,7.382817138671875,3.382716655731201,0.7327597141265869,-0.2453349232673645
1776228671196667100,7.402667236328125,3.3388707637786865,0.8176950812339783,-0.20162978768348694
1776228671216518100,7.42251806640625,3.2023143768310547,0.7726780772209167,-0.05769605189561844
1776228671236369400,7.442369384765625,2.9891436100006104,0.5769006013870239,0.17177654802799225
1776228671256220400,7.462220458984375,2.733260154724121,0.25763899087905884,0.479533851146698
1776228671276070400,7.4820703125,2.353677988052368,-0.07578025013208389,0.7566027045249939
1776228671295921400,7.50192138671875,1.9547756910324097,-0.2724403142929077,0.914088249206543
1776228671315772400,7.5217724609375,1.568243384361267,-0.297264963388443,0.9654337167739868
1776228671335622400,7.541622314453125,1.1858224868774414,-0.13799674808979034,0.8997167348861694
1776228671355473200,7.56147314453125,0.7894432544708252,0.03700116276741028,0.7543898820877075
1776228671375324200,7.58132421875,0.43168002367019653,0.1807205080986023,0.5076214075088501
1776228671395175200,7.601175048828125,0.14992718398571014,0.3245597183704376,0.1879158467054367
1776228671415025200,7.621025146484375,-0.049920156598091125,0.4845011830329895,-0.13502679765224457
1776228671434876200,7.640876220703125,-0.19917409121990204,0.7018547654151917,-0.3634392023086548
1776228671454727200,7.66072705078125,-0.4055192768573761,1.103210687637329,-0.4972209632396698
1776228671474577200,7.6805771484375,-0.4697089195251465,1.6535474061965942,-0.6064451932907104
1776228671494428200,7.70042822265625,-0.4191381335258484,1.8187164068222046,-0.8320783376693726
1776228671514279400,7.720279541015625,-0.4837690591812134,1.522363543510437,-1.204445481300354
1776228671534130400,7.74013037109375,-0.6173526644706726,0.9600077867507935,-1.4052380323410034
1776228671553980400,7.75998046875,-0.8950777649879456,0.4232593774795532,-1.3371036052703857
1776228671573831400,7.77983154296875,-1.2950475215911865,-0.09825173765420914,-1.2359496355056763
1776228671593682200,7.79968212890625,-1.8251601457595825,-0.39536917209625244,-1.194570779800415
1776228671613533200,7.819533203125,-2.33621883392334,-0.26149338483810425,-1.098560094833374
1776228671633383200,7.839383056640625,-2.6544151306152344,0.10278923064470291,-0.9445934295654297
1776228671653234200,7.859234130859375,-2.833475112915039,0.6242878437042236,-0.8040871620178223
1776228671673085200,7.879085205078125,-2.9142448902130127,1.0383504629135132,-0.6897246241569519
1776228671692935200,7.89893505859375,-2.8076560497283936,1.2080527544021606,-0.561947226524353
1776228671712786200,7.9187861328125,-2.6473264694213867,1.2298650741577148,-0.47442829608917236
1776228671732636700,7.93863671875,-2.5444798469543457,1.2866673469543457,-0.4024837911128998
1776228671752487700,7.95848779296875,-2.5178165435791016,1.3634679317474365,-0.26861655712127686
1776228671772337700,7.978337646484375,-2.3619613647460938,1.2048298120498657,-0.1612059324979782
1776228671792188700,7.998188720703125,-2.070988178253174,1.0182160139083862,-0.08488879352807999
1776228671812039700,8.018039794921876,-1.8052202463150024,0.8782258033752441,0.08350101858377457
1776228671831889700,8.0378896484375,-1.5795669555664062,0.6816890835762024,0.3296828269958496
1776228671851741000,8.057740966796874,-1.4021638631820679,0.46206003427505493,0.5034080147743225
1776228671871591700,8.077591796875,-1.2515994310379028,0.4036119282245636,0.6267120838165283
1776228671891442700,8.097442626953125,-1.1001251935958862,0.6713184714317322,0.6223184466362
1776228671911292700,8.117292724609374,-1.1157329082489014,1.1528677940368652,0.2957954406738281
1776228671931143700,8.137143798828125,-1.3397599458694458,1.9605622291564941,-0.6289997696876526
1776228671950994700,8.15699462890625,-1.5121748447418213,3.148615837097168,-1.9728540182113647
1776228671970844700,8.1768447265625,-1.552770972251892,4.381209373474121,-2.8081164360046387
1776228671990695700,8.19669580078125,-1.3979201316833496,5.133203029632568,-3.0083186626434326
1776228672010546700,8.216546630859375,-0.945245623588562,5.64330530166626,-2.9054763317108154
1776228672030397700,8.236397705078126,-0.4685214161872864,5.155107021331787,-2.663168430328369
1776228672050247700,8.25624755859375,-0.10913847386837006,4.06760311126709,-2.085430383682251
1776228672070098700,8.2760986328125,-0.08172069489955902,3.154721260070801,-1.3753371238708496
1776228672089950000,8.295949951171876,-0.19684702157974243,2.4148781299591064,-1.0176663398742676
1776228672109800700,8.31580078125,-0.3376254439353943,1.7804046869277954,-1.0275018215179443
1776228672129651000,8.33565087890625,-0.4119310975074768,1.084826111793518,-1.0988987684249878
1776228672149501700,8.355501708984375,-0.3468437194824219,0.21205127239227295,-1.2412359714508057
1776228672169352700,8.375352783203125,-0.23958835005760193,-0.3882332146167755,-1.3379079103469849
1776228672189202700,8.39520263671875,-0.33285704255104065,-1.3762563467025757,-0.8373758792877197
1776228672209053700,8.4150537109375,-0.4354225695133209,-2.155015707015991,-0.0823284313082695
1776228672228904700,8.43490478515625,-0.38472744822502136,-2.352375030517578,0.07989776134490967
1776228672248755700,8.454755615234374,0.1156589537858963,-2.0246291160583496,0.016945160925388336
1776228672268605700,8.474605712890625,0.36671754717826843,-1.2611111402511597,0.2790739834308624
1776228672288456700,8.494456787109375,0.26698750257492065,-0.5757874250411987,0.4759731888771057
1776228672308307700,8.5143076171875,0.13542920351028442,0.007171093951910734,0.041416414082050323
1776228672328157700,8.53415771484375,0.16581213474273682,0.8164982795715332,-0.47533777356147766
1776228672348008700,8.5540087890625,0.26763808727264404,1.2348300218582153,-0.616269052028656
1776228672367860000,8.57385986328125,0.7810226082801819,0.3956463932991028,0.104183129966259
1776228672387710700,8.593710693359375,0.815311849117279,-0.42558059096336365,0.9240550994873047
1776228672407560700,8.613560791015624,0.33742356300354004,-0.20271901786327362,0.8388371467590332
1776228672427411700,8.63341162109375,0.0965406522154808,0.08501555770635605,0.5308188796043396
1776228672447262700,8.6532626953125,-0.06091368570923805,0.14804857969284058,0.18767082691192627
1776228672467113700,8.67311376953125,-0.2326769232749939,0.44448745250701904,0.06978040933609009
1776228672486963700,8.692963623046875,-0.5291112661361694,0.8501886129379272,-0.08452234417200089
1776228672506814700,8.712814697265625,-0.7825775742530823,1.1339737176895142,-0.5620359182357788
1776228672526665700,8.732665771484376,-0.7982378005981445,1.2050158977508545,-1.0337400436401367
1776228672546516700,8.752516845703125,-0.7547563314437866,1.4573720693588257,-1.3122388124465942
1776228672566366700,8.77236669921875,-0.8167864680290222,1.4651713371276855,-1.2501237392425537
1776228672586217700,8.7922177734375,-0.9882495403289795,1.2684260606765747,-0.9258666038513184
1776228672606068700,8.81206884765625,-0.9222284555435181,1.5028021335601807,-0.8096086978912354
1776228672625918700,8.831918701171874,-0.6661684513092041,1.5714192390441895,-1.0393846035003662
1776228672645769700,8.851769775390625,-0.8399487733840942,1.4952118396759033,-1.1282391548156738
1776228672665620700,8.871620849609375,-1.150579571723938,1.612035870552063,-1.0407060384750366
1776228672685471700,8.8914716796875,-1.3366961479187012,2.3047256469726562,-1.0995545387268066
1776228672705321700,8.91132177734375,-1.5307825803756714,2.7536725997924805,-1.1689578294754028
1776228672725172500,8.93117236328125,-1.8308755159378052,3.677090883255005,-1.8370863199234009
1776228672745023500,8.9510234375,-1.5160003900527954,2.844965934753418,-2.0257956981658936
1776228672764874800,8.970874755859375,-1.181875228881836,1.4697229862213135,-1.874718427658081
1776228672784724700,8.990724853515625,-1.0526127815246582,0.7189432382583618,-1.303157091140747
1776228672804575700,9.01057568359375,-0.8423543572425842,0.7437683939933777,-0.7125260829925537
1776228672824426800,9.0304267578125,-0.5289972424507141,0.34130245447158813,-0.3326362669467926
1776228672844276700,9.05027685546875,-0.49141180515289307,-0.3346102237701416,-0.05198623612523079
1776228672864127700,9.070127685546876,-0.39886483550071716,-0.8554456830024719,0.11635057628154755
1776228672883978500,9.089978515625,-0.3230443596839905,-0.9466083645820618,0.14209935069084167
1776228672903829500,9.10982958984375,-0.36502590775489807,-0.9322863817214966,0.19708722829818726
1776228672923679500,9.129679443359375,-0.6441411375999451,-0.7084421515464783,0.15834729373455048
1776228672943530500,9.149530517578125,-1.0711185932159424,-0.4517482817173004,-0.07482843101024628
1776228672963381500,9.169381591796874,-1.4847074747085571,-0.5130332112312317,-0.20288307964801788
1776228672983232500,9.189232421875,-1.8499544858932495,-0.8435951471328735,-0.20690017938613892
1776228673003082500,9.20908251953125,-2.2632272243499756,-1.381518006324768,-0.2923823297023773
1776228673022933800,9.228933837890626,-2.64813494682312,-1.9704164266586304,-0.559408962726593
1776228673042784800,9.24878466796875,-2.650256872177124,-2.1084837913513184,-0.7940033674240112
1776228673062635800,9.2686357421875,-2.05802059173584,-1.499285340309143,-0.8912588357925415
1776228673082485800,9.28848583984375,-1.541276216506958,-0.5816799402236938,-0.6488562822341919
1776228673102336800,9.308336669921875,-1.3674373626708984,-0.12256240099668503,-0.30606964230537415
1776228673122187500,9.3281875,-1.5048787593841553,-0.34634116291999817,-0.05252872034907341
1776228673142038500,9.34803857421875,-1.5551284551620483,-0.4799988269805908,0.04194052517414093
1776228673161888500,9.367888427734375,-1.2344776391983032,0.020480241626501083,0.2095993012189865
1776228673181739500,9.387739501953124,-1.0200088024139404,0.6725307106971741,0.26230937242507935
1776228673201590500,9.407590576171875,-0.9768953919410706,0.9997642636299133,0.2435135841369629
1776228673221440500,9.4274404296875,-0.9857445955276489,0.9710543155670166,0.2439463585615158
1776228673241291500,9.44729150390625,-1.1041327714920044,0.8931562900543213,0.2664511203765869
1776228673261142500,9.467142578125,-1.1201378107070923,0.7641008496284485,0.25328633189201355
1776228673280993800,9.486993896484375,-1.084883451461792,0.8411628603935242,0.24759541451931
1776228673300843800,9.50684375,-1.0541752576828003,0.8431461453437805,0.3767824172973633
1776228673320694800,9.52669482421875,-1.0857068300247192,0.7922810912132263,0.6800088882446289
1776228673340545500,9.546545654296875,-1.120091199874878,0.698156476020813,0.9323862791061401
1776228673360396500,9.566396484375,-1.2426495552062988,0.6222223043441772,0.9234859943389893
1776228673380246500,9.58624658203125,-1.3749325275421143,0.6936493515968323,0.6996116042137146
1776228673400097500,9.60609765625,-1.3735450506210327,0.7173117995262146,0.43617597222328186
1776228673419948500,9.625948486328125,-1.3258332014083862,0.7485772967338562,0.3260819613933563
1776228673439799600,9.645799560546875,-1.2439439296722412,0.5548880100250244,0.3524667024612427
1776228673459649500,9.6656494140625,-1.089820146560669,0.35652002692222595,0.4077526032924652
1776228673479500500,9.68550048828125,-1.0047030448913574,0.4161423444747925,0.3676062524318695
1776228673499351600,9.7053515625,-0.8701857328414917,0.6110343337059021,0.31587299704551697
1776228673519202800,9.725202880859374,-0.7330723404884338,0.7811229825019836,0.30249887704849243
1776228673539052800,9.745052734375,-0.6825346350669861,0.8563636541366577,0.3874020576477051
1776228673558903800,9.76490380859375,-0.6727474927902222,0.9673336148262024,0.4345703721046448
1776228673578754600,9.784754638671876,-0.7084192037582397,0.9785929322242737,0.3351375162601471
1776228673598605600,9.80460546875,-0.6906367540359497,0.8791443705558777,0.13805560767650604
1776228673618455600,9.82445556640625,-0.5324575304985046,0.906623125076294,-0.09969623386859894
1776228673638306600,9.844306640625,-0.29191893339157104,1.0531147718429565,-0.18722102046012878
1776228673658157600,9.864157470703125,-0.22280670702457428,1.1139923334121704,-0.031674306839704514
1776228673678008600,9.884008544921874,-0.48835235834121704,0.9101651310920715,0.2764957845211029
1776228673697858600,9.903858642578125,-0.7181123495101929,0.5049848556518555,0.6146093606948853
1776228673717709600,9.92370947265625,-0.5213585495948792,0.2438667267560959,0.8717620968818665
1776228673737561300,9.943561279296874,-0.34210142493247986,0.2552480101585388,0.865890622138977
1776228673757412000,9.963412109375,-0.3458343744277954,0.462874174118042,0.7208364605903625
1776228673777262300,9.983262451171875,-0.4801549017429352,0.6094276309013367,0.5517295002937317
1776228673797113000,10.003113037109374,-0.6408851742744446,0.49069833755493164,0.5518160462379456
1776228673816964000,10.022964111328125,-0.6991564631462097,0.13370533287525177,0.6210656762123108
1776228673836815000,10.042815185546875,-0.5546141862869263,-0.00941880140453577,0.6072113513946533
1776228673856665000,10.0626650390625,-0.33304479718208313,0.1921401470899582,0.4500182867050171
1776228673876516400,10.082516357421875,-0.15773344039916992,0.3486402630805969,0.3665819764137268
1776228673896367400,10.102367431640625,-0.21309150755405426,0.03412361443042755,0.4624704420566559
1776228673916217300,10.12221728515625,-0.40748655796051025,-0.2982458174228668,0.6509878635406494
1776228673936068400,10.142068359375,-0.48646605014801025,-0.27049994468688965,0.6497990489006042
1776228673955919400,10.16191943359375,-0.390066534280777,-0.038842469453811646,0.4374082386493683
1776228673975770000,10.18177001953125,-0.28205084800720215,0.15604472160339355,0.24112527072429657
1776228673995620400,10.201620361328125,-0.3162088394165039,0.15831400454044342,0.20118743181228638
1776228674015471000,10.22147119140625,-0.4011450409889221,0.10084006190299988,0.2646058201789856
1776228674035322000,10.241322021484375,-0.4093265235424042,0.012880911119282246,0.2703004479408264
1776228674055173000,10.261173095703125,-0.31116026639938354,-0.04352723807096481,0.19478653371334076
1776228674075023000,10.281023193359376,-0.1633969098329544,0.040413737297058105,0.1291009932756424
1776228674094874000,10.3008740234375,-0.1068476215004921,0.08002506196498871,0.14040903747081757
1776228674114725000,10.32072509765625,-0.13490508496761322,-0.03347114101052284,0.2207225263118744
1776228674134576400,10.340576416015624,-0.2161296308040619,-0.12817448377609253,0.27786996960639954
1776228674154426400,10.36042626953125,-0.2790207266807556,-0.059060122817754745,0.17183060944080353
1776228674174277400,10.38027734375,-0.19479931890964508,0.2081388235092163,0.0017097494564950466
1776228674194128400,10.40012841796875,-0.08789070695638657,0.3680459260940552,-0.03881876915693283
1776228674213979100,10.419979248046875,-0.13043203949928284,0.17351293563842773,0.10655014216899872
1776228674233829400,10.439829345703124,-0.23283430933952332,-0.00743181724101305,0.19599880278110504
1776228674253680000,10.45968017578125,-0.22779454290866852,0.03586478903889656,0.12692439556121826
1776228674273531100,10.47953125,-0.17837533354759216,0.1759990006685257,0.10245127230882645
1776228674293382100,10.499382080078124,-0.21368218958377838,0.1878894716501236,0.12222684174776077
1776228674313232100,10.519232177734375,-0.2971552312374115,0.20896919071674347,0.11631835252046585
1776228674333083100,10.539083251953125,-0.3569839596748352,0.12126970291137695,0.060087837278842926
1776228674352934100,10.55893408203125,-0.31881046295166016,0.07899042218923569,0.040876857936382294
1776228674372785400,10.578785400390625,-0.269543319940567,0.07812622934579849,0.007816378027200699
1776228674392635400,10.598635498046875,-0.25251907110214233,0.09842483699321747,-0.03805097937583923
1776228674412486400,10.618486328125,-0.19174467027187347,0.18601620197296143,-0.06541629135608673
1776228674432337400,10.63833740234375,-0.19208182394504547,0.13531094789505005,-0.005712480284273624
1776228674452188200,10.658188232421875,-0.26682209968566895,0.02178678847849369,0.0958935022354126
1776228674472038100,10.6780380859375,-0.2658897340297699,0.08669494837522507,0.05668218806385994
1776228674491889200,10.69788916015625,-0.15392591059207916,0.1430591493844986,-0.0309885423630476
1776228674511740200,10.717740234375,-0.07660768926143646,0.09006917476654053,-0.03693431615829468
1776228674531591200,10.737591064453126,-0.07172878086566925,-0.0017936390358954668,0.02743561938405037
1776228674551441200,10.757441162109375,-0.06663095951080322,-0.03368073329329491,0.032640233635902405
1776228674571292200,10.777292236328124,0.005307147279381752,0.012293151579797268,-0.03261733055114746
1776228674591143200,10.79714306640625,0.08826833963394165,0.01961684413254261,-0.13139957189559937
1776228674610994400,10.816994384765625,0.16408321261405945,0.040885645896196365,-0.29605215787887573
1776228674630844200,10.83684423828125,0.2813592255115509,0.10615706443786621,-0.5022005438804626
1776228674650695400,10.8566953125,0.3705804646015167,-0.009888583794236183,-0.5931259393692017
1776228674670546200,10.876546142578125,0.34649190306663513,-0.2679949700832367,-0.46331918239593506
1776228674690397200,10.896397216796874,0.2815011739730835,-0.2862738370895386,-0.2875327169895172
1776228674710247200,10.9162470703125,0.2431282252073288,0.03875591605901718,-0.17859956622123718
1776228674730099000,10.936098876953125,0.17630179226398468,0.00951174646615982,-0.29229071736335754
1776228674749950000,10.955949951171876,0.12462848424911499,0.3555714190006256,-0.045155227184295654
1776228674769801000,10.975801025390625,0.5584443807601929,-0.20354247093200684,-0.25867176055908203
1776228674789651000,10.99565087890625,1.2194169759750366,-0.6173273921012878,-0.698386549949646
1776228674809502000,11.015501953125,1.3140712976455688,-0.970643937587738,-1.0975840091705322
1776228674829353000,11.03535302734375,1.1308295726776123,-0.8728361129760742,-0.9442560076713562
1776228674849203700,11.05520361328125,0.7886767983436584,-0.47299471497535706,-0.6113347411155701
1776228674869054000,11.075053955078126,0.5063763856887817,-0.22508132457733154,-0.505384087562561
1776228674888904700,11.09490478515625,0.4149375259876251,-0.004592354875057936,-0.5683500170707703
1776228674908755700,11.114755615234374,0.43202704191207886,0.05423740670084953,-0.7329351902008057
1776228674928606700,11.134606689453125,0.4290887713432312,0.013647635467350483,-0.8311738967895508
1776228674948456700,11.154456787109375,0.3163073658943176,0.057554371654987335,-0.7651956677436829
1776228674968308000,11.174307861328124,0.19740813970565796,-0.07798028737306595,-0.6266908049583435
1776228674988159000,11.194158935546875,0.1536657214164734,-0.18346703052520752,-0.41336628794670105
1776228675008010000,11.214010009765625,0.1822425127029419,-0.11392150819301605,-0.2581996023654938
1776228675027860000,11.23385986328125,0.20822297036647797,-0.17396673560142517,-0.4947977364063263
1776228675047711000,11.2537109375,0.34913668036460876,-0.0827135220170021,-0.8732747435569763
1776228675067562000,11.27356201171875,0.4498116374015808,0.09494009613990784,-1.2055879831314087
1776228675087412700,11.293412841796876,0.2832135856151581,0.5072419047355652,-0.9435073733329773
1776228675107263700,11.313263671875,0.001514539704658091,0.7436075806617737,-0.6389197707176208
1776228675127113700,11.33311376953125,-0.07252346724271774,1.0246610641479492,-0.5194556713104248
1776228675146964700,11.35296484375,-0.11692768335342407,0.8719330430030823,-0.1296996772289276
1776228675166815700,11.372815673828125,0.04062971845269203,0.5272265076637268,0.2962662875652313
1776228675186665700,11.392665771484374,-0.045463353395462036,0.6404127478599548,0.3238704800605774
1776228675206516700,11.412516845703125,-0.22650477290153503,1.3648189306259155,0.1206664964556694
1776228675226368000,11.432367919921875,-0.45888689160346985,1.9147651195526123,-0.1589190810918808
1776228675246219000,11.452218994140624,-0.5259149074554443,1.9375582933425903,-0.16363473236560822
1776228675266070000,11.472070068359375,-0.27194443345069885,1.1706249713897705,0.33565762639045715
1776228675285920000,11.491919921875,-0.17744269967079163,0.9699626564979553,0.38672587275505066
1776228675305770800,11.511770751953126,-0.07802236080169678,1.011389970779419,0.12282658368349075
1776228675325621800,11.531621826171875,-0.17081275582313538,0.7986764311790466,-0.16422036290168762
1776228675345472800,11.55147265625,-0.3403642475605011,0.575781524181366,-0.09325005114078522
1776228675365322800,11.57132275390625,-0.20598219335079193,0.7821370959281921,0.07832249999046326
1776228675385173800,11.591173828125,-0.07004006952047348,0.9440701007843018,0.3136149048805237
1776228675405024800,11.611024658203124,-0.013933392241597176,0.8132731914520264,0.5157890319824219
1776228675424876000,11.6308759765625,0.04296557605266571,0.6072492003440857,0.5945808291435242
1776228675444725800,11.650725830078125,0.2857699692249298,0.6846598386764526,0.555085301399231
1776228675464577000,11.670576904296874,0.4077107906341553,0.923805832862854,0.5443418622016907
1776228675484428000,11.690427978515626,0.3877096474170685,1.1107776165008545,0.29177939891815186
1776228675504278800,11.71027880859375,0.6137022972106934,0.7687960267066956,-0.13345126807689667
1776228675524129000,11.73012890625,0.7332580089569092,0.6635204553604126,-0.5152217745780945
1776228675543979800,11.749979736328125,0.5985822081565857,0.6567789316177368,-0.8552739024162292
1776228675563830800,11.769830810546875,0.6038305163383484,0.39149773120880127,-1.0757559537887573
1776228675583681800,11.789681884765624,0.7111566662788391,0.6933417320251465,-0.5696703791618347
1776228675603531800,11.80953173828125,0.7633495926856995,0.8497760891914368,-0.12746714055538177
1776228675623382800,11.8293828125,0.7084972262382507,0.8401804566383362,-0.02611202746629715
1776228675643233800,11.84923388671875,0.6335865259170532,0.656984806060791,-0.1503721922636032
1776228675663084800,11.869084716796875,0.5585607290267944,0.623077929019928,-0.3214973509311676
1776228675682934800,11.888934814453124,0.41315534710884094,0.5849177837371826,-0.2019253969192505
1776228675702786000,11.9087861328125,0.21069945394992828,0.8037241697311401,0.15841254591941833
1776228675722637000,11.928636962890625,0.011894476599991322,0.7799376249313354,0.2214048206806183
1776228675742486800,11.94848681640625,-0.039986297488212585,0.6373101472854614,0.015672169625759125
1776228675762336800,11.968336669921875,0.018628811463713646,0.49521294236183167,-0.09734626114368439
1776228675782187800,11.988187744140625,0.03886537253856659,0.3350839912891388,0.009286709129810333
1776228675802038800,12.008038818359376,-0.04061666876077652,0.3767302334308624,0.358867883682251
1776228675821889800,12.027889892578125,-0.09941127896308899,0.4201216399669647,0.44882333278656006
1776228675841739800,12.04773974609375,-0.005945506971329451,0.3926713764667511,0.27211993932724
1776228675861590800,12.0675908203125,0.1305857002735138,0.3494221866130829,0.07915207743644714
1776228675881441800,12.08744189453125,0.24129676818847656,0.17915190756320953,-0.1838739663362503
1776228675901292800,12.107292724609374,0.2929794192314148,0.14833328127861023,-0.3851362466812134
1776228675921142800,12.127142822265625,0.2930595576763153,0.16037262976169586,-0.3558092415332794
