time,seconds_elapsed,z,y,x
1776228663875490800,0.08149072265625,-0.164592906832695,0.06775642931461334,0.034054163843393326
1776228663895341800,0.101341796875,-0.1321628838777542,0.08446217328310013,0.05530450865626335
1776228663915191800,0.12119189453125,-0.09855665266513824,0.009223880246281624,0.05627264454960823
1776228663935043000,0.14104296875,-0.09377174824476242,-0.2736477553844452,-0.021144380792975426
1776228663954894000,0.16089404296875,-0.005660444498062134,-0.40944820642471313,-0.04980497434735298
1776228663974744000,0.180744140625,0.019580692052841187,-0.27072176337242126,-0.014652326703071594
1776228663994595000,0.200594970703125,-0.012560069561004639,-0.09200740605592728,0.04548010602593422
1776228664014446000,0.220446044921875,-0.02328437753021717,-0.03798997029662132,0.05497876554727554
1776228664034296000,0.240296142578125,-0.03763069584965706,-0.15470193326473236,0.041569072753190994
1776228664054147000,0.26014697265625,-0.012576688081026077,-0.27007994055747986,0.04225919023156166
1776228664073998000,0.279998046875,0.0032826103270053864,-0.3421887457370758,0.07225826382637024
1776228664093848000,0.29984814453125,-0.00905490480363369,-0.26786527037620544,0.1567375659942627
1776228664113699000,0.319698974609375,-0.09824197739362717,-0.170587956905365,0.16538384556770325
1776228664133549800,0.3395498046875,-0.09745154529809952,-0.18280014395713806,0.13763636350631714
1776228664153400000,0.359400146484375,-0.07190565764904022,-0.18344998359680176,0.1375965178012848
1776228664173250800,0.379250732421875,-0.05983936786651611,-0.27423739433288574,0.10139697045087814
1776228664193101800,0.399101806640625,-0.06339240819215775,-0.3592398762702942,0.06595494598150253
1776228664212951800,0.418951904296875,0.0376729816198349,-0.38837486505508423,0.09476559609174728
1776228664232802800,0.438802734375,0.08034225553274155,-0.3416489064693451,0.08053617179393768
1776228664252654000,0.458654052734375,0.08105707913637161,-0.17646904289722443,0.0002792122832033783
1776228664272504000,0.478504150390625,0.04453838989138603,-0.042705096304416656,-0.19443687796592712
1776228664292355000,0.49835498046875,0.022049790248274803,-0.08018215745687485,-0.4117351770401001
1776228664312206000,0.5182060546875,0.05674057826399803,-0.061861488968133926,-0.5047253966331482
1776228664332056000,0.53805615234375,0.1148986667394638,-0.002700693905353546,-0.5063789486885071
1776228664351907000,0.557906982421875,0.10496126115322113,0.08773385733366013,-0.5375673174858093
1776228664371758000,0.577758056640625,0.0603693351149559,0.05226587504148483,-0.5549907088279724
1776228664391608000,0.597608154296875,0.023549890145659447,0.1507253348827362,-0.4177808463573456
1776228664411459000,0.617458984375,-0.04964292421936989,0.1862095594406128,-0.2922475337982178
1776228664431309800,0.637309814453125,-0.11344633996486664,0.17515826225280762,-0.22049979865550995
1776228664451160000,0.65716015625,-0.13745351135730743,0.142274871468544,-0.1604490578174591
1776228664471010800,0.6770107421875,-0.09276022762060165,0.1885147988796234,-0.07515908032655716
1776228664490861800,0.69686181640625,-0.07746356725692749,0.14275316894054413,-0.03638209402561188
1776228664510711800,0.7167119140625,-0.11161816865205765,0.0764993205666542,-0.04221642017364502
1776228664530562800,0.736562744140625,-0.06121191382408142,0.06247217580676079,-0.03907351940870285
1776228664550414000,0.7564140625,0.004964758642017841,0.04116208106279373,-0.009248445741832256
1776228664570263800,0.776263916015625,0.02180345170199871,-0.09752626717090607,0.0028279428370296955
1776228664590115000,0.796114990234375,0.01956743746995926,-0.2676950693130493,-0.0036278595216572285
1776228664609966000,0.815966064453125,0.004239178262650967,-0.37966635823249817,0.025394871830940247
1776228664629816000,0.835816162109375,0.03696543350815773,-0.30992668867111206,0.11585713177919388
1776228664649667000,0.8556669921875,0.0821482241153717,-0.2085084617137909,0.1864805519580841
1776228664669518000,0.87551806640625,0.09336190670728683,-0.18860799074172974,0.16123422980308533
1776228664689368000,0.8953681640625,0.08898451179265976,-0.1734655201435089,0.06900232285261154
1776228664709219000,0.915218994140625,0.06008393317461014,-0.1986268013715744,-0.01378596667200327
1776228664729069000,0.935069091796875,0.023411298170685768,-0.21618156135082245,-0.02022637613117695
1776228664748920300,0.95492041015625,0.03580187261104584,-0.27681559324264526,0.03966885060071945
1776228664768771000,0.97477099609375,0.04369554668664932,-0.3210395276546478,0.08809208124876022
1776228664788621300,0.994621337890625,-0.00718305166810751,-0.40593552589416504,0.10966002196073532
1776228664808472000,1.01447216796875,-0.06715850532054901,-0.4230623245239258,0.14528615772724152
1776228664828323000,1.034322998046875,-0.10209143906831741,-0.29282334446907043,0.16788841784000397
1776228664848173000,1.054173095703125,-0.08977120369672775,-0.20242874324321747,0.16650699079036713
1776228664868024000,1.074024169921875,-0.08488069474697113,-0.10153886675834656,0.11396989226341248
1776228664887875000,1.093875,-0.11710431426763535,0.018368365243077278,0.02213459648191929
1776228664907725000,1.11372509765625,-0.08980860561132431,0.05885826423764229,-0.06999114900827408
1776228664927576000,1.133576171875,-0.05047311261296272,0.030852193012833595,-0.11888697743415833
1776228664947427000,1.153427001953125,-0.08191654831171036,0.028311284258961678,-0.13944770395755768
1776228664967277000,1.173277099609375,-0.12874606251716614,0.024121325463056564,-0.13305020332336426
1776228664987128000,1.193128173828125,-0.14954614639282227,0.060715287923812866,-0.10337432473897934
1776228665006979000,1.21297900390625,-0.11459610611200333,0.053557246923446655,-0.07681377977132797
1776228665026829000,1.2328291015625,-0.045061565935611725,-0.007412106730043888,-0.05049913376569748
1776228665046680300,1.252680419921875,-0.043895505368709564,-0.1293286830186844,-0.06257645040750504
1776228665066531000,1.272531005859375,-0.10558661073446274,-0.1379850208759308,-0.06595953553915024
1776228665086381300,1.29238134765625,-0.15987713634967804,0.004831518977880478,-0.03852882608771324
1776228665106232000,1.312232177734375,-0.1735161691904068,0.08321075141429901,-0.016748880967497826
1776228665126082300,1.332082275390625,-0.1701492965221405,0.006636601872742176,-0.013108198530972004
1776228665145933000,1.35193310546875,-0.1619107574224472,-0.04070135951042175,-0.016726834699511528
1776228665165784000,1.3717841796875,-0.1316378265619278,-0.030724355950951576,0.006331578362733126
1776228665185634000,1.391634033203125,-0.09906761348247528,-0.04918964207172394,0.020232221111655235
1776228665205485000,1.411485107421875,-0.04441932961344719,-0.07002807408571243,0.01629413664340973
1776228665225336000,1.431336181640625,-0.02246817760169506,-0.14408713579177856,-0.020389774814248085
1776228665245186000,1.45118603515625,-0.048417527228593826,-0.03879612684249878,-0.007195448502898216
1776228665265037000,1.471037109375,-0.06331145763397217,0.06714282929897308,0.03356427699327469
1776228665284888000,1.49088818359375,-0.04968270659446716,0.0051180594600737095,0.04558238759636879
1776228665304738000,1.510738037109375,-0.04577465355396271,-0.07785405218601227,0.07609061151742935
1776228665324589000,1.530589111328125,-0.07517972588539124,-0.06704187393188477,0.13691608607769012
1776228665344440300,1.5504404296875,-0.10274868458509445,-0.05617031082510948,0.16648231446743011
1776228665364290000,1.5702900390625,-0.1327197402715683,-0.10023553669452667,0.08548752963542938
1776228665384141300,1.590141357421875,-0.12589013576507568,-0.08141309022903442,-0.004224346484988928
1776228665403992000,1.609991943359375,-0.1059790551662445,-0.03676093742251396,-0.01952025294303894
1776228665423842300,1.62984228515625,-0.06448553502559662,-0.057886987924575806,-0.018466053530573845
1776228665443693000,1.649693115234375,-0.003878049086779356,-0.15640024840831757,-0.0058183614164590836
1776228665463543300,1.669543212890625,0.017228322103619576,-0.2643094062805176,-0.02467699721455574
1776228665483394000,1.68939404296875,-0.004360546357929707,-0.2759878933429718,-0.022718176245689392
1776228665503245000,1.7092451171875,-0.05524567514657974,-0.15384042263031006,0.05203131586313248
1776228665523095000,1.729094970703125,-0.11279216408729553,-0.12013706564903259,0.07959388196468353
1776228665542946000,1.748946044921875,-0.1395566761493683,-0.09260982275009155,0.02492714859545231
1776228665562797000,1.768797119140625,-0.14681579172611237,-0.10397911071777344,-0.044610001146793365
1776228665582647000,1.78864697265625,-0.1402968466281891,-0.032542768865823746,-0.07004255801439285
1776228665602498000,1.808498046875,-0.15074598789215088,0.038434747606515884,-0.12652979791164398
1776228665622349000,1.82834912109375,-0.15150533616542816,0.08739296346902847,-0.1852554976940155
1776228665642199000,1.848198974609375,-0.13596078753471375,0.08740495890378952,-0.20824584364891052
1776228665662050000,1.868050048828125,-0.10442285239696503,0.08529706299304962,-0.19893836975097656
1776228665681901300,1.8879013671875,-0.061133261770009995,0.05745371803641319,-0.1702658087015152
1776228665701751000,1.9077509765625,-0.03803098201751709,0.01583276130259037,-0.1354442685842514
1776228665721602000,1.92760205078125,-0.03830009698867798,0.001127599854953587,-0.08163740485906601
1776228665741453000,1.947453125,-0.05318762734532356,-0.01298397034406662,-0.022832045331597328
1776228665761303000,1.967302978515625,-0.0521196573972702,-0.003771561663597822,0.047576647251844406
1776228665781153800,1.98715380859375,-0.060199420899152756,-0.01862534135580063,0.10156318545341492
1776228665801004000,2.007004150390625,-0.07141086459159851,-0.06916894018650055,0.12654435634613037
1776228665820854800,2.026854736328125,-0.0791928842663765,-0.05696660652756691,0.17102766036987305
1776228665840705800,2.046705810546875,-0.12379337847232819,-0.006415012292563915,0.23838406801223755
1776228665860555800,2.0665556640625,-0.1564357429742813,-0.005036827176809311,0.31003937125205994
1776228665880407000,2.086406982421875,-0.16454768180847168,-0.057230278849601746,0.39385712146759033
1776228665900258000,2.106258056640625,-0.1921181082725525,-0.010137578472495079,0.45874255895614624
1776228665920108000,2.12610791015625,-0.2518257200717926,-0.04426707327365875,0.4061847925186157
1776228665939959000,2.145958984375,-0.2537460923194885,-0.19962067902088165,0.28422608971595764
1776228665959810000,2.16581005859375,-0.20639027655124664,-0.22140666842460632,0.16458944976329803
1776228665979660000,2.185659912109375,-0.20638982951641083,-0.16445711255073547,0.04237930104136467
1776228665999511000,2.205510986328125,-0.31562232971191406,-0.17747890949249268,-0.053715553134679794
1776228666019362000,2.225362060546875,-0.4416263997554779,-0.16633038222789764,-0.06632142513990402
1776228666039212000,2.2452119140625,-0.5013014674186707,-0.23493899405002594,0.012749697081744671
1776228666059063000,2.26506298828125,-0.4390910863876343,-0.11321283876895905,0.17108553647994995
1776228666078913000,2.2849130859375,-0.33323124051094055,0.09758781641721725,0.3055213689804077
1776228666098764000,2.304763916015625,-0.36541983485221863,0.14234782755374908,0.3838401138782501
1776228666118615000,2.324614990234375,-0.5428053140640259,-0.0945853590965271,0.3955712616443634
1776228666138465000,2.344465087890625,-0.7104314565658569,-0.5137855410575867,0.42223605513572693
1776228666158315800,2.364315673828125,-0.8830222487449646,-0.7262863516807556,0.5171299576759338
1776228666178166800,2.384166748046875,-0.9244367480278015,-0.9122663736343384,0.734298586845398
1776228666198016800,2.404016845703125,-0.7992132306098938,-1.1008615493774414,0.776137113571167
1776228666217868000,2.423867919921875,-0.6078363060951233,-0.9702196717262268,0.5604826807975769
1776228666237719000,2.443718994140625,-0.5344765186309814,-0.8597975373268127,0.18628011643886566
1776228666257569000,2.463569091796875,-0.6406522393226624,-0.6611717939376831,-0.29944369196891785
1776228666277420000,2.483419921875,-0.420619934797287,0.10064432770013809,-0.767728328704834
1776228666297271000,2.50327099609375,0.30697914958000183,0.6220582723617554,-1.3396800756454468
1776228666317121000,2.52312109375,0.6090392470359802,0.8870853781700134,-1.628458857536316
1776228666336972000,2.542971923828125,0.7853497862815857,0.6519692540168762,-1.3977547883987427
1776228666356823000,2.562822998046875,1.0815048217773438,0.3962027430534363,-1.0745329856872559
1776228666376673000,2.582673095703125,1.6742339134216309,0.5030620694160461,-0.8636963367462158
1776228666396524000,2.60252392578125,2.2533841133117676,0.1010856032371521,-0.6320784091949463
1776228666416374000,2.6223740234375,1.9919209480285645,-0.4260631501674652,-0.6285144686698914
1776228666436225000,2.64222509765625,1.092560887336731,-0.20977719128131866,-0.4391990005970001
1776228666456076000,2.662075927734375,0.13804319500923157,0.4886501133441925,0.02151823416352272
1776228666475926000,2.681926025390625,-0.12352295964956284,0.5813174843788147,0.3089262843132019
1776228666495776800,2.70177685546875,0.08703536540269852,0.5009880065917969,0.320543497800827
1776228666515628000,2.7216279296875,0.12915976345539093,0.15230725705623627,0.03066093847155571
1776228666535477800,2.741477783203125,0.12543408572673798,0.03872957080602646,-0.24261072278022766
1776228666555329000,2.7613291015625,0.23036707937717438,0.16356709599494934,-0.2600882947444916
1776228666575180000,2.781179931640625,0.4682978391647339,0.21713659167289734,-0.27390486001968384
1776228666595030000,2.801030029296875,0.5889697670936584,0.3532768487930298,-0.2687584161758423
1776228666614881000,2.820881103515625,0.5654945373535156,0.5489606261253357,-0.2399241179227829
1776228666634732000,2.84073193359375,0.6739330291748047,0.5661249160766602,-0.17817378044128418
1776228666654582000,2.86058203125,0.9061346650123596,0.5124276280403137,-0.12013809382915497
1776228666674433000,2.88043310546875,1.0508702993392944,0.29946368932724,-0.09074897319078445
1776228666694284000,2.900283935546875,1.0451173782348633,-0.017241301015019417,0.02341039665043354
1776228666714134000,2.920134033203125,0.865523636341095,-0.16026423871517181,0.21650604903697968
1776228666733984500,2.939984619140625,0.5547087788581848,-0.3125368356704712,0.33088991045951843
1776228666753834500,2.95983447265625,0.2978636622428894,-0.4767897129058838,0.4214916527271271
1776228666773685500,2.979685546875,0.27856558561325073,-0.4560878872871399,0.4995710551738739
1776228666793536500,2.99953662109375,0.4017956852912903,-0.6120687127113342,0.4185805916786194
1776228666813386500,3.019386474609375,0.3536616563796997,-0.8202645182609558,0.20651087164878845
1776228666833237500,3.039237548828125,0.20622549951076508,-0.7916395664215088,0.09436773508787155
1776228666853088500,3.059088623046875,0.11478390544652939,-0.849908709526062,0.08587004244327545
1776228666872938800,3.078938720703125,0.18038468062877655,-1.0989736318588257,0.1537451446056366
1776228666892789500,3.09878955078125,0.39242997765541077,-1.609563946723938,0.329855352640152
1776228666912640500,3.118640625,0.65203857421875,-2.0565836429595947,0.5530568957328796
1776228666932490500,3.138490478515625,0.8810613751411438,-2.1353917121887207,0.6323235034942627
1776228666952341500,3.158341552734375,0.857607901096344,-2.3352210521698,0.2744273543357849
1776228666972192500,3.178192626953125,0.8842911720275879,-2.451915740966797,-0.13769100606441498
1776228666992042500,3.19804248046875,0.8816950917243958,-2.8594274520874023,-0.2745114862918854
1776228667011893500,3.2178935546875,0.9533321857452393,-3.6801884174346924,-0.08569131046533585
1776228667031744500,3.23774462890625,0.8879513740539551,-4.639946460723877,0.21436846256256104
1776228667051594500,3.257594482421875,0.9971886873245239,-5.3924713134765625,0.30176496505737305
1776228667071445500,3.277445556640625,1.3729819059371948,-5.437317371368408,0.4660022258758545
1776228667091296500,3.297296630859375,1.683379054069519,-5.32957649230957,0.8308101892471313
1776228667111146500,3.317146484375,2.0688083171844482,-5.585547924041748,1.1947518587112427
1776228667130997500,3.33699755859375,2.4137208461761475,-5.387251853942871,1.6089342832565308
1776228667150848500,3.3568486328125,2.8356170654296875,-5.257734775543213,1.6636263132095337
1776228667170698500,3.376698486328125,3.391472101211548,-5.1277079582214355,1.733275294303894
1776228667190549500,3.396549560546875,4.1066203117370605,-4.9184041023254395,1.6380293369293213
1776228667210400500,3.416400390625,4.632084369659424,-4.19461727142334,1.3740737438201904
1776228667230250500,3.43625048828125,5.040050983428955,-2.7432403564453125,0.6416659951210022
1776228667250101500,3.4561015625,5.301541328430176,-0.9238686561584473,-0.5518182516098022
1776228667269951500,3.475951416015625,5.464842319488525,0.5022175908088684,-2.110163927078247
1776228667289802500,3.495802490234375,5.200562477111816,1.5701366662979126,-3.2061069011688232
1776228667309653500,3.515653564453125,4.7785234451293945,2.37089467048645,-3.501523494720459
1776228667329503500,3.53550341796875,4.201391220092773,2.853753089904785,-3.1025054454803467
1776228667349354500,3.5553544921875,3.7651515007019043,2.6817445755004883,-2.5336906909942627
1776228667369205500,3.57520556640625,3.359592914581299,2.128422737121582,-2.007354259490967
1776228667389055500,3.595055419921875,3.015287399291992,1.3162484169006348,-1.5499299764633179
1776228667408906500,3.614906494140625,2.8023619651794434,0.5491060018539429,-1.179638385772705
1776228667428757500,3.634757568359375,2.6273908615112305,0.3624948561191559,-1.0241070985794067
1776228667448607500,3.654607421875,2.545090675354004,0.8283594846725464,-1.2746517658233643
1776228667468458500,3.67445849609375,2.24328351020813,1.2818694114685059,-1.8933396339416504
1776228667488309500,3.6943095703125,1.6948961019515991,1.0894571542739868,-2.151517152786255
1776228667508159700,3.71415966796875,1.259643316268921,0.7750174403190613,-1.8267065286636353
1776228667528010500,3.734010498046875,1.1375662088394165,0.4758421778678894,-1.2820197343826294
1776228667547861500,3.753861572265625,0.8968579173088074,0.0891978070139885,-0.8142443299293518
1776228667567711500,3.77371142578125,0.2332238107919693,-0.623824954032898,-0.5249767303466797
1776228667587562500,3.7935625,-0.6802734136581421,-1.5012483596801758,0.048417530953884125
1776228667607413500,3.81341357421875,-1.5793129205703735,-2.081007480621338,0.9587090015411377
1776228667627263500,3.833263427734375,-2.1907260417938232,-2.013805627822876,1.5634549856185913
1776228667647114500,3.853114501953125,-2.5102782249450684,-1.9327689409255981,1.4729136228561401
1776228667666965500,3.872965576171875,-2.7281675338745117,-1.8058182001113892,1.2624146938323975
1776228667686815500,3.8928154296875,-2.9649763107299805,-1.3694649934768677,1.3854849338531494
1776228667706666500,3.91266650390625,-3.183619976043701,-0.9648411273956299,1.4294383525848389
1776228667726518300,3.932518310546875,-3.379450559616089,-0.8918886184692383,1.2626674175262451
1776228667746368300,3.9523681640625,-3.6791980266571045,-0.8309794664382935,1.1601835489273071
1776228667766219300,3.97221923828125,-4.051650524139404,-0.652730405330658,1.354973316192627
1776228667786070000,3.992070068359375,-4.16269063949585,-0.442176878452301,1.6395620107650757
1776228667805920000,4.011919921875,-4.052309989929199,-0.38669419288635254,1.6366915702819824
1776228667825771000,4.03177099609375,-3.885403871536255,-0.25972822308540344,1.4061695337295532
1776228667845622000,4.0516220703125,-3.7802913188934326,-0.1398998349905014,1.0324902534484863
1776228667865472000,4.071471923828125,-3.8337087631225586,-0.1353122591972351,0.5621510744094849
1776228667885323000,4.091322998046875,-3.8188343048095703,0.019565999507904053,0.18454596400260925
1776228667905174300,4.11117431640625,-3.5883960723876953,0.430710107088089,-0.029439376667141914
1776228667925024000,4.13102392578125,-3.1280362606048584,0.7566877007484436,-0.15768933296203613
1776228667944875300,4.150875244140625,-2.6069395542144775,0.8147144913673401,-0.13184134662151337
1776228667964726300,4.170726318359375,-2.156162977218628,0.6136536002159119,0.024418290704488754
1776228667984576300,4.190576171875,-1.8014377355575562,0.3512544333934784,0.1380358338356018
1776228668004427300,4.21042724609375,-1.5178043842315674,0.034977708011865616,0.11370911449193954
1776228668024278300,4.2302783203125,-1.1847457885742188,-0.16899406909942627,0.10827387124300003
1776228668044128300,4.250128173828125,-0.8117454648017883,-0.16979406774044037,0.13460008800029755
1776228668063979300,4.269979248046875,-0.5341531038284302,-0.14542055130004883,0.05019798129796982
1776228668083830000,4.289830078125,-0.22970280051231384,-0.05537375435233116,-0.07576006650924683
1776228668103680300,4.30968017578125,0.06422387808561325,0.32067468762397766,-0.11750219762325287
1776228668123531000,4.329531005859375,0.4485653042793274,0.6505940556526184,-0.12622925639152527
1776228668143382000,4.349382080078125,0.7824960947036743,0.4796350598335266,-0.17320369184017181
1776228668163232000,4.36923193359375,0.9807385802268982,0.017011769115924835,-0.23174141347408295
1776228668183083000,4.3890830078125,1.181630253791809,-0.32120755314826965,-0.2705203592777252
1776228668202934300,4.408934326171875,1.4761707782745361,-0.29048028588294983,-0.3517342507839203
1776228668222784000,4.428783935546875,1.8263989686965942,0.0006975086871534586,-0.5139963626861572
1776228668242635300,4.44863525390625,2.106752395629883,0.16663241386413574,-0.6360896229743958
1776228668262486300,4.468486328125,2.2300379276275635,0.1284559965133667,-0.671796977519989
1776228668282336300,4.488336181640625,2.241302013397217,-0.1464988738298416,-0.6486905813217163
1776228668302187300,4.508187255859375,2.299004316329956,-0.45347344875335693,-0.5754244327545166
1776228668322038300,4.528038330078125,2.482952833175659,-0.5256810784339905,-0.45107829570770264
1776228668341888300,4.54788818359375,2.7330636978149414,-0.3960437476634979,-0.40252551436424255
1776228668361739300,4.5677392578125,2.792987823486328,-0.3576662242412567,-0.37684357166290283
1776228668381590000,4.587590087890625,2.679654598236084,-0.1396241933107376,-0.08457311987876892
1776228668401440300,4.607440185546875,2.4194352626800537,-0.12618108093738556,-0.02190745249390602
1776228668421291000,4.627291015625,2.3948163986206055,-0.28965896368026733,-0.15714289247989655
1776228668441142000,4.64714208984375,2.611307382583618,-0.2992735207080841,-0.31828948855400085
1776228668460992000,4.666991943359375,2.6682791709899902,-0.07884152978658676,-0.4294028580188751
1776228668480843000,4.686843017578125,2.529097557067871,0.3260106146335602,-0.20781101286411285
1776228668500694000,4.706694091796875,2.144692897796631,0.8751019835472107,-0.28490495681762695
1776228668520544000,4.7265439453125,1.7652004957199097,1.3426960706710815,-0.5472643375396729
1776228668540395300,4.746395263671875,1.6558552980422974,1.7772043943405151,-0.5658698081970215
1776228668560246300,4.766246337890625,1.6668074131011963,1.9020589590072632,-0.6344340443611145
1776228668580096300,4.78609619140625,1.6752439737319946,1.8713189363479614,-0.7428202033042908
1776228668599947300,4.805947265625,1.522889494895935,1.7322062253952026,-0.8009454011917114
1776228668619798300,4.82579833984375,1.2321945428848267,1.4622198343276978,-0.8478168845176697
1776228668639648300,4.845648193359375,0.932813823223114,1.0560661554336548,-0.8533374071121216
1776228668659499300,4.865499267578125,0.8495209217071533,0.8821380138397217,-0.8121562600135803
1776228668679350000,4.88535009765625,0.9435272216796875,0.8875642418861389,-0.8685677647590637
1776228668699200300,4.9052001953125,0.9309001564979553,1.0049374103546143,-0.9857113361358643
1776228668719051000,4.925051025390625,0.8447206020355225,1.221387505531311,-1.107548475265503
1776228668738902800,4.94490283203125,0.6682571768760681,1.4578144550323486,-1.1199030876159668
1776228668758752800,4.964752685546875,0.4084374010562897,1.596872091293335,-1.019263505935669
1776228668778603800,4.984603759765625,0.264771968126297,1.6284290552139282,-0.8135035634040833
1776228668798454800,5.004454833984375,0.25389009714126587,1.637653112411499,-0.5850772261619568
1776228668818304800,5.0243046875,0.3070080876350403,1.6422982215881348,-0.40991565585136414
1776228668838155800,5.04415576171875,0.11683391034603119,1.6147459745407104,-0.5088144540786743
1776228668858006800,5.0640068359375,-0.2418898195028305,1.6748378276824951,-0.5728211402893066
1776228668877856800,5.083856689453125,-0.5202887654304504,2.1130263805389404,-0.4757513403892517
1776228668897707800,5.103707763671875,-0.6385719180107117,2.5695786476135254,-0.607175350189209
1776228668917558800,5.123558837890625,-0.5472403168678284,2.837008476257324,-0.5528462529182434
1776228668937408800,5.14340869140625,-0.6662367582321167,2.057603597640991,-0.34808242321014404
1776228668957259800,5.163259765625,-1.2710970640182495,0.5566614270210266,-0.8259909749031067
1776228668977110800,5.18311083984375,-1.345435619354248,0.2577468752861023,-1.5240408182144165
1776228668996960800,5.202960693359375,-0.9883525371551514,1.17367422580719,-1.9657955169677734
1776228669016811800,5.222811767578125,-0.8588846921920776,1.688280701637268,-2.431614875793457
1776228669036662800,5.242662841796875,-0.884488582611084,1.543798804283142,-2.4146482944488525
1776228669056513800,5.262513671875,-0.8894586563110352,1.1130397319793701,-1.9661487340927124
1776228669076363800,5.28236376953125,-0.917727530002594,0.43377062678337097,-1.3589874505996704
1776228669096214800,5.30221484375,-0.7287796139717102,0.017899928614497185,-0.7474890947341919
1776228669116065800,5.322065673828125,-0.6096605062484741,-0.20349423587322235,-0.18199199438095093
1776228669135915800,5.341915771484375,-0.8508917093276978,-1.1286497116088867,0.1895587295293808
1776228669155766800,5.361766845703125,-1.1184946298599243,-1.8751410245895386,0.5464391708374023
1776228669175617800,5.38161767578125,-1.2388691902160645,-1.9889026880264282,0.6557309031486511
1776228669195467800,5.4014677734375,-1.5001959800720215,-1.7830432653427124,0.6635256409645081
1776228669215318800,5.42131884765625,-1.7935218811035156,-1.69394850730896,0.7242106199264526
1776228669235169800,5.441169677734375,-2.1098732948303223,-1.3861808776855469,0.8165882229804993
1776228669255019800,5.461019775390625,-2.2895588874816895,-0.9389280080795288,0.842036783695221
1776228669274870800,5.480870849609375,-2.5299699306488037,-0.45397627353668213,0.6694360375404358
1776228669294721800,5.5007216796875,-2.6143674850463867,-0.43718183040618896,0.553106963634491
1776228669314571800,5.52057177734375,-2.62981915473938,-0.448273628950119,0.4655994176864624
1776228669334422800,5.5404228515625,-2.4988133907318115,-0.42061805725097656,0.36133912205696106
1776228669354273800,5.560273681640625,-2.410182476043701,-0.25048521161079407,0.18823817372322083
1776228669374123800,5.580123779296875,-2.3257944583892822,0.07336451858282089,0.028458748012781143
1776228669393974800,5.599974853515625,-2.1885149478912354,0.5248973369598389,0.0003130170807708055
1776228669413825800,5.61982568359375,-2.0527102947235107,0.8810400366783142,0.08066853880882263
1776228669433675800,5.63967578125,-1.8779301643371582,0.5842685103416443,0.1568714678287506
1776228669453526800,5.65952685546875,-1.6599538326263428,-0.1013907715678215,0.2915022373199463
1776228669473377800,5.679377685546875,-1.4106106758117676,-0.7672127485275269,0.4598165452480316
1776228669493228800,5.699228759765625,-1.1571476459503174,-0.9277288913726807,0.6496883630752563
1776228669513078800,5.719078857421875,-0.9010345339775085,-0.6498796939849854,0.7975000143051147
1776228669532929500,5.738929443359375,-0.6595746874809265,-0.3370906412601471,0.8225000500679016
1776228669552780800,5.75878076171875,-0.4217904806137085,-0.25374382734298706,0.7611017823219299
1776228669572630800,5.778630859375,-0.14644652605056763,-0.2816702723503113,0.7630664110183716
1776228669592481800,5.798481689453125,0.2206708788871765,-0.3364102244377136,0.9788419604301453
1776228669612332800,5.818332763671875,0.6826764941215515,-0.3499656915664673,1.3688113689422607
1776228669632182800,5.838182861328125,1.0161144733428955,-0.48017004132270813,1.5437519550323486
1776228669652033800,5.85803369140625,1.1436467170715332,-0.5769549608230591,1.4751766920089722
1776228669671884800,5.877884765625,1.1848129034042358,-0.48111867904663086,1.215943694114685
1776228669691734800,5.89773486328125,1.2120647430419922,-0.3437208831310272,0.7915094494819641
1776228669711585800,5.917585693359375,1.2815994024276733,-0.030659878626465797,0.3164503574371338
1776228669731436500,5.9374365234375,1.461047887802124,0.412019282579422,-0.01078847423195839
1776228669751286500,5.95728662109375,1.6859663724899292,0.6873477697372437,-0.2628055214881897
1776228669771137800,5.9771376953125,1.9442988634109497,0.7632356286048889,-0.5314276814460754
1776228669790988800,5.99698876953125,2.2478201389312744,0.8033241629600525,-0.6707921028137207
1776228669810838800,6.0168388671875,2.399338960647583,0.701065182685852,-0.6898952722549438
1776228669830689800,6.036689697265625,2.486001491546631,0.6153415441513062,-0.5783681273460388
1776228669850540500,6.05654052734375,2.6104342937469482,0.60026615858078,-0.5502082109451294
1776228669870391600,6.0763916015625,2.760537624359131,0.7082064747810364,-0.6459189057350159
1776228669890241500,6.096241455078125,2.819176197052002,0.8239994049072266,-0.7855621576309204
1776228669910092500,6.116092529296875,2.7128031253814697,0.8717586398124695,-0.8876098394393921
1776228669929943600,6.135943603515625,2.610044240951538,0.9813727736473083,-0.8308115005493164
1776228669949793500,6.15579345703125,2.66618013381958,1.1122323274612427,-0.6706677079200745
1776228669969644500,6.17564453125,2.812164545059204,1.1081101894378662,-0.5412521958351135
1776228669989495600,6.19549560546875,2.829834461212158,0.940378725528717,-0.48579272627830505
1776228670009345500,6.215345458984375,2.716346502304077,0.8243786096572876,-0.530444860458374
1776228670029196500,6.235196533203125,2.488654375076294,0.8578020334243774,-0.5899013876914978
1776228670049047800,6.2550478515625,2.2875173091888428,1.026382327079773,-0.5418910980224609
1776228670068898600,6.274898681640625,2.1024351119995117,1.1554354429244995,-0.4085220992565155
1776228670088748800,6.294748779296875,1.997551441192627,0.9067368507385254,-0.21750561892986298
1776228670108599600,6.314599609375,1.8578062057495117,0.46195247769355774,-0.04006410762667656
1776228670128450600,6.334450439453125,1.5788482427597046,-0.00925951637327671,0.08025019615888596
1776228670148300500,6.354300537109375,1.2039698362350464,-0.2846817672252655,0.244445338845253
1776228670168151600,6.374151611328125,0.929516613483429,-0.16177982091903687,0.2952108383178711
1776228670188002600,6.39400244140625,0.739155650138855,0.02750329300761223,0.28009703755378723
1776228670207852500,6.4138525390625,0.5017201900482178,0.0874427929520607,0.3277135491371155
1776228670227703600,6.43370361328125,0.2298281490802765,-0.08347035944461823,0.4340936541557312
1776228670247554600,6.453554443359375,-0.011158778332173824,-0.3504972755908966,0.595676839351654
1776228670267404500,6.473404541015625,-0.16042959690093994,-0.6982786655426025,0.6774104237556458
1776228670287255600,6.493255615234375,-0.36180293560028076,-0.8336237072944641,0.5360679030418396
1776228670307106600,6.5131064453125,-0.6103530526161194,-0.7604424357414246,0.21807615458965302
1776228670326957800,6.532957763671875,-0.8424418568611145,-0.4882410168647766,-0.12396232038736343
1776228670346807800,6.552807861328125,-1.1026309728622437,-0.21164856851100922,-0.31711456179618835
1776228670366658600,6.572658447265625,-1.3565839529037476,-0.3613264858722687,-0.34345337748527527
1776228670386509600,6.592509521484375,-1.5337332487106323,-0.6972687840461731,-0.2677197754383087
1776228670406359600,6.612359619140625,-1.7196155786514282,-0.9645223021507263,-0.18549157679080963
1776228670426210600,6.63221044921875,-1.9000308513641357,-1.1422491073608398,-0.20597253739833832
1776228670446061600,6.6520615234375,-2.293598175048828,-1.1213265657424927,-0.14041480422019958
1776228670465911600,6.67191162109375,-2.7660765647888184,-0.9543495774269104,0.07762296497821808
1776228670485762600,6.691762451171875,-3.0039615631103516,-0.7879875302314758,0.2457432597875595
1776228670505613600,6.711613525390625,-3.255811929702759,-0.7062793374061584,0.21346551179885864
1776228670525464600,6.731464599609375,-3.67360782623291,-0.5661555528640747,0.180307075381279
1776228670545314600,6.751314453125,-3.9102578163146973,-0.3969297409057617,0.09498070925474167
1776228670565165600,6.77116552734375,-3.9483590126037598,-0.17595955729484558,-0.04979522153735161
1776228670585016600,6.7910166015625,-3.8516643047332764,-0.0027278445195406675,-0.11562562733888626
1776228670604866600,6.810866455078125,-3.6966583728790283,0.05981756001710892,-0.01691701076924801
1776228670624717800,6.8307177734375,-3.413421869277954,-0.024803588166832924,0.09820975363254547
1776228670644568600,6.850568603515625,-3.0674664974212646,-0.17589642107486725,0.13920661807060242
1776228670664418800,6.870418701171875,-2.7627828121185303,-0.1277502179145813,0.15891070663928986
1776228670684269600,6.89026953125,-2.4976181983947754,0.04865731671452522,0.15683898329734802
1776228670704120600,6.91012060546875,-2.194765567779541,0.3248226046562195,0.11805671453475952
1776228670723971600,6.9299716796875,-1.8472778797149658,0.7751596570014954,0.08925031870603561
1776228670743821300,6.9498212890625,-1.5303889513015747,1.0566002130508423,0.044757913798093796
1776228670763672300,6.96967236328125,-1.2544301748275757,0.850118100643158,0.06868896633386612
1776228670783523300,6.9895234375,-0.9644762277603149,0.4298182427883148,0.13371439278125763
1776228670803373300,7.009373291015625,-0.6118911504745483,0.016477009281516075,0.23564200103282928
1776228670823224300,7.029224365234375,-0.25184330344200134,-0.2875414490699768,0.4169597923755646
1776228670843075300,7.049075439453125,0.19714918732643127,-0.4409051835536957,0.5532971620559692
1776228670862925300,7.06892529296875,0.5626847147941589,-0.4450688064098358,0.5596228837966919
1776228670882776300,7.0887763671875,0.8979822993278503,-0.3721349239349365,0.48758089542388916
1776228670902627300,7.10862744140625,1.2230238914489746,-0.21601854264736176,0.3926551938056946
1776228670922478000,7.12847802734375,1.5669177770614624,0.03890615329146385,0.34381309151649475
1776228670942328300,7.148328369140625,1.8992221355438232,0.31019383668899536,0.3308880627155304
1776228670962179000,7.168178955078125,2.1671805381774902,0.3921630084514618,0.293956458568573
1776228670982030300,7.1880302734375,2.368154287338257,0.2581104040145874,0.2825610041618347
1776228671001880000,7.207880126953125,2.5494701862335205,-0.006363593973219395,0.3070330321788788
1776228671021731300,7.2277314453125,2.779071092605591,-0.150003582239151,0.27707570791244507
1776228671041582300,7.247582275390625,3.192099094390869,-0.0788939818739891,0.19281511008739471
1776228671061433300,7.267433349609375,3.5737557411193848,0.12390626221895218,0.11761824041604996
1776228671081283300,7.287283447265625,3.7334816455841064,0.35325875878334045,0.08188885450363159
1776228671101134300,7.30713427734375,3.6646649837493896,0.47064876556396484,0.018327414989471436
1776228671120985300,7.3269853515625,3.526759386062622,0.4810934066772461,-0.06458288431167603
1776228671140835300,7.34683544921875,3.4443745613098145,0.49313196539878845,-0.18436777591705322
1776228671160686300,7.366686279296875,3.4066998958587646,0.6082913279533386,-0.251199871301651
1776228671180537300,7.386537353515625,3.3758320808410645,0.7633780837059021,-0.24022872745990753
1776228671200387300,7.40638720703125,3.3160629272460938,0.8266382813453674,-0.18314070999622345
1776228671220238300,7.42623828125,3.1648125648498535,0.7489680051803589,-0.02121477946639061
1776228671240089000,7.446089111328125,2.9476706981658936,0.5277554392814636,0.22957909107208252
1776228671259940400,7.4659404296875,2.670976400375366,0.19300436973571777,0.5388830304145813
1776228671279790000,7.4857900390625,2.269885540008545,-0.11769624054431915,0.795298159122467
1776228671299641300,7.505641357421875,1.8849775791168213,-0.29108133912086487,0.9288998246192932
1776228671319492400,7.525492431640625,1.497227430343628,-0.26647961139678955,0.9595779776573181
1776228671339342300,7.54534228515625,1.1118930578231812,-0.1042637899518013,0.8765395283699036
1776228671359193300,7.565193359375,0.7146229147911072,0.06791117042303085,0.7192296981811523
1776228671379044400,7.58504443359375,0.3719969391822815,0.20500512421131134,0.4516405761241913
1776228671398895400,7.604895263671875,0.10841086506843567,0.3577802777290344,0.12616638839244843
1776228671418745300,7.624745361328125,-0.07997836172580719,0.5187172293663025,-0.18473541736602783
1776228671438596400,7.644596435546875,-0.23528289794921875,0.7587226033210754,-0.3946875035762787
1776228671458447000,7.664447021484375,-0.4372100532054901,1.2214393615722656,-0.5141160488128662
1776228671478297300,7.68429736328125,-0.4632807970046997,1.7188081741333008,-0.6352568864822388
1776228671498148000,7.704148193359375,-0.4209737181663513,1.801653504371643,-0.8948763012886047
1776228671517999000,7.7239990234375,-0.5045410990715027,1.4303617477416992,-1.2649562358856201
1776228671537850400,7.743850341796875,-0.658794641494751,0.8498876690864563,-1.4044816493988037
1776228671557700000,7.7637001953125,-0.9630417227745056,0.33245307207107544,-1.3070350885391235
1776228671577551400,7.78355126953125,-1.3838905096054077,-0.19646216928958893,-1.2286500930786133
1776228671597402400,7.80340234375,-1.9324920177459717,-0.3886377513408661,-1.1813772916793823
1776228671617253400,7.82325341796875,-2.4106507301330566,-0.20726315677165985,-1.073844313621521
1776228671637103400,7.843103271484375,-2.697333335876465,0.18880562484264374,-0.9124295711517334
1776228671656954400,7.862954345703125,-2.8603756427764893,0.7273303866386414,-0.7846859097480774
1776228671676805400,7.882805419921875,-2.9085886478424072,1.0892577171325684,-0.6649673581123352
1776228671696655400,7.9026552734375,-2.776352882385254,1.2171828746795654,-0.5417587161064148
1776228671716506400,7.92250634765625,-2.6230573654174805,1.2353514432907104,-0.45995035767555237
1776228671736356600,7.942356689453125,-2.5388197898864746,1.3060498237609863,-0.38560470938682556
1776228671756207600,7.96220751953125,-2.499819040298462,1.358719825744629,-0.2428615242242813
1776228671776057600,7.9820576171875,-2.317819356918335,1.1624760627746582,-0.14677955210208893
1776228671795908600,8.00190869140625,-2.0170936584472656,0.9950214624404907,-0.06488300859928131
1776228671815759600,8.021759521484375,-1.7632684707641602,0.8492522835731506,0.12954369187355042
1776228671835609600,8.041609619140624,-1.540260672569275,0.6386319398880005,0.36482304334640503
1776228671855460600,8.061460693359376,-1.3762038946151733,0.4303359389305115,0.5320655107498169
1776228671875311600,8.0813115234375,-1.2154253721237183,0.4320707619190216,0.6404057741165161
1776228671895163000,8.101162841796874,-1.0894896984100342,0.7511139512062073,0.5928532481193542
1776228671915012900,8.121012939453125,-1.146232008934021,1.2706199884414673,0.17538639903068542
1776228671934864000,8.14086376953125,-1.3879426717758179,2.165308713912964,-0.8731915950775146
1776228671954715000,8.16071484375,-1.52881920337677,3.393859624862671,-2.185393810272217
1776228671974564900,8.18056494140625,-1.5457277297973633,4.554464817047119,-2.886194944381714
1776228671994415900,8.200415771484375,-1.3315585851669312,5.261974811553955,-3.002901315689087
1776228672014266600,8.2202666015625,-0.860217809677124,5.646245002746582,-2.8819117546081543
1776228672034117600,8.24011767578125,-0.38110440969467163,4.9665703773498535,-2.5819079875946045
1776228672053967600,8.259967529296874,-0.08169413357973099,3.881070613861084,-1.9427247047424316
1776228672073818600,8.279818603515626,-0.10046198964118958,3.004183053970337,-1.2765182256698608
1776228672093669600,8.299669677734375,-0.22023551166057587,2.298008680343628,-1.0018264055252075
1776228672113520600,8.319520751953124,-0.3683801591396332,1.6588013172149658,-1.0396230220794678
1776228672133370600,8.33937060546875,-0.40274712443351746,0.946281373500824,-1.126796007156372
1776228672153222000,8.359221923828125,-0.32909101247787476,0.03190096840262413,-1.2470760345458984
1776228672173073000,8.379072998046874,-0.2369827777147293,-0.5055446624755859,-1.303118348121643
1776228672192923000,8.3989228515625,-0.35877183079719543,-1.5928361415863037,-0.6818476319313049
1776228672212774000,8.41877392578125,-0.446111798286438,-2.2118821144104004,0.0029873494058847427
1776228672232625000,8.438625,-0.31495901942253113,-2.342989444732666,0.06196742504835129
1776228672252475600,8.4584755859375,0.1892555058002472,-1.8891913890838623,0.03611140325665474
1776228672272325600,8.47832568359375,0.37048274278640747,-1.121525526046753,0.3499118983745575
1776228672292176600,8.4981767578125,0.23052777349948883,-0.4611886441707611,0.43987157940864563
1776228672312027600,8.518027587890625,0.13612137734889984,0.15776675939559937,-0.06629570573568344
1776228672331877600,8.537877685546874,0.16706791520118713,0.9779974818229675,-0.5502569675445557
1776228672351728600,8.557728759765626,0.33324238657951355,1.1375222206115723,-0.5404633283615112
1776228672371579600,8.57757958984375,0.8522826433181763,0.16853471100330353,0.305328369140625
1776228672391430700,8.5974306640625,0.7400105595588684,-0.4241264760494232,0.9613713622093201
1776228672411280600,8.61728076171875,0.26245883107185364,-0.11638917028903961,0.7827498316764832
1776228672431132000,8.6371318359375,0.07340524345636368,0.1016765907406807,0.4674432873725891
1776228672450983000,8.65698291015625,-0.09393453598022461,0.1859493851661682,0.15182240307331085
1776228672470833700,8.676833740234375,-0.27726617455482483,0.5133940577507019,0.05830508470535278
1776228672490684000,8.696683837890625,-0.5907556414604187,0.9224708080291748,-0.149283304810524
1776228672510534700,8.71653466796875,-0.8056368827819824,1.156670093536377,-0.6595258116722107
1776228672530385700,8.7363857421875,-0.7913374304771423,1.2451114654541016,-1.0992008447647095
1776228672550236700,8.756236572265625,-0.7544420957565308,1.5003163814544678,-1.3390008211135864
1776228672570086700,8.776086669921876,-0.8486441969871521,1.4139015674591064,-1.1905462741851807
1776228672589937700,8.795937744140625,-1.0070319175720215,1.2914584875106812,-0.8761537075042725
1776228672609788700,8.81578857421875,-0.8675726652145386,1.534163475036621,-0.8389267921447754
1776228672629638700,8.835638671875,-0.6546416282653809,1.5605117082595825,-1.0748794078826904
1776228672649489700,8.85548974609375,-0.9209699034690857,1.47996187210083,-1.112179160118103
1776228672669341000,8.8753408203125,-1.1909841299057007,1.7289029359817505,-1.0370049476623535
1776228672689192000,8.89519189453125,-1.4141424894332886,2.5002188682556152,-1.1540727615356445
1776228672709042000,8.9150419921875,-1.4991487264633179,2.7864391803741455,-1.2331345081329346
1776228672728892700,8.934892578125,-1.861603856086731,3.7492337226867676,-1.8519915342330933
1776228672748743400,8.954743408203125,-1.449418067932129,2.59525465965271,-2.0369207859039307
1776228672768594400,8.974594482421875,-1.1271553039550781,1.2492341995239258,-1.7923812866210938
1776228672788444400,8.9944443359375,-1.0361725091934204,0.7043283581733704,-1.1839889287948608
1776228672808295400,9.01429541015625,-0.7777944803237915,0.7188904881477356,-0.6257131695747375
1776228672828146700,9.034146728515625,-0.5127977132797241,0.22430288791656494,-0.28114327788352966
1776228672847996700,9.05399658203125,-0.4785075783729553,-0.46248212456703186,-0.00135630345903337
1776228672867847700,9.07384765625,-0.388924241065979,-0.8883567452430725,0.12372349947690964
1776228672887698700,9.09369873046875,-0.31097790598869324,-0.9441443681716919,0.1492212861776352
1776228672907549700,9.1135498046875,-0.403537780046463,-0.9050630331039429,0.20887039601802826
1776228672927399700,9.133399658203125,-0.7152279019355774,-0.6331683993339539,0.12083972245454788
1776228672947250700,9.153250732421874,-1.1559926271438599,-0.43808305263519287,-0.11316592991352081
1776228672967101700,9.173101806640625,-1.5560522079467773,-0.5553231239318848,-0.20765306055545807
1776228672986952400,9.192952392578125,-1.9196326732635498,-0.9286453127861023,-0.2118948996067047
1776228673006802400,9.212802490234376,-2.345424175262451,-1.4973946809768677,-0.33481889963150024
1776228673026653400,9.2326533203125,-2.7026939392089844,-2.0452775955200195,-0.6116828322410583
1776228673046504400,9.25250439453125,-2.563951015472412,-2.0466482639312744,-0.8240824341773987
1776228673066355700,9.272355712890626,-1.9419283866882324,-1.3312257528305054,-0.8738368153572083
1776228673086205700,9.292205810546875,-1.4770348072052002,-0.4218822419643402,-0.5797067284584045
1776228673106056700,9.312056640625,-1.3884098529815674,-0.1394049972295761,-0.2513512969017029
1776228673125907700,9.33190771484375,-1.527686357498169,-0.39162153005599976,-0.024941107258200645
1776228673145758700,9.3517587890625,-1.5187879800796509,-0.44406795501708984,0.06654725968837738
1776228673165608700,9.371608642578124,-1.1706746816635132,0.1594703644514084,0.23262141644954681
1776228673185459700,9.391459716796875,-1.0141745805740356,0.7692959308624268,0.26324912905693054
1776228673205310500,9.411310546875,-0.9636666178703308,1.0161948204040527,0.23664416372776031
1776228673225160700,9.43116064453125,-1.0108788013458252,0.9700082540512085,0.2466984987258911
1776228673245011500,9.451011474609375,-1.1121129989624023,0.8631802797317505,0.26793569326400757
1776228673264862500,9.470862548828125,-1.1226011514663696,0.7642998099327087,0.24808834493160248
1776228673284713500,9.49071337890625,-1.0760002136230469,0.8632615804672241,0.2596855163574219
1776228673304563500,9.5105634765625,-1.0551519393920898,0.8379149436950684,0.42315271496772766
1776228673324414500,9.53041455078125,-1.0945827960968018,0.7793837189674377,0.7367181777954102
1776228673344265700,9.550265625,-1.1333686113357544,0.6724106073379517,0.9524480700492859
1776228673364116700,9.57011669921875,-1.2690974473953247,0.638074517250061,0.8922903537750244
1776228673383966700,9.589966796875,-1.3860224485397339,0.6963862776756287,0.6448282599449158
1776228673403817700,9.609817626953125,-1.360446572303772,0.7383286356925964,0.4040226936340332
1776228673423668700,9.629668701171875,-1.320146918296814,0.7313064336776733,0.3220648169517517
1776228673443519500,9.64951953125,-1.211564302444458,0.5113823413848877,0.36723917722702026
1776228673463369700,9.66936962890625,-1.0730226039886475,0.3467406630516052,0.40436556935310364
1776228673483220500,9.689220458984375,-0.9826468229293823,0.45063111186027527,0.3598312437534332
1776228673503071500,9.709071533203126,-0.8409276008605957,0.6543275117874146,0.3081629276275635
1776228673522922500,9.728922607421875,-0.7221512198448181,0.7976660132408142,0.3143661320209503
1776228673542772500,9.7487724609375,-0.680885374546051,0.8751051425933838,0.40054410696029663
1776228673562623500,9.76862353515625,-0.6763920187950134,0.9855038523674011,0.4279555082321167
1776228673582474800,9.788474853515625,-0.7110209465026855,0.9631657600402832,0.30289021134376526
1776228673602325800,9.80832568359375,-0.6727110743522644,0.8695282340049744,0.09411756694316864
1776228673622175700,9.82817578125,-0.48826339840888977,0.9376809597015381,-0.12734128534793854
1776228673642026800,9.84802685546875,-0.2625516653060913,1.0780757665634155,-0.17872530221939087
1776228673661877800,9.867877685546874,-0.24628150463104248,1.0993244647979736,0.01846001110970974
1776228673681728500,9.887728515625,-0.5542656779289246,0.8499385714530945,0.343127578496933
1776228673701578500,9.90757861328125,-0.7073375582695007,0.43371525406837463,0.6765071749687195
1776228673721429500,9.927429443359374,-0.474411278963089,0.22954797744750977,0.8904189467430115
1776228673741281300,9.94728125,-0.32845282554626465,0.29060256481170654,0.8476639986038208
1776228673761132300,9.96713232421875,-0.369576096534729,0.49992090463638306,0.6845967173576355
1776228673780982300,9.986982177734374,-0.5105632543563843,0.6201170682907104,0.5406666994094849
1776228673800833300,10.006833251953125,-0.668018102645874,0.43331924080848694,0.5627039074897766
1776228673820684300,10.026684326171875,-0.6869783997535706,0.08490745723247528,0.6304702162742615
1776228673840535000,10.04653515625,-0.5189995169639587,0.004296496976166964,0.5842233300209045
1776228673860385300,10.06638525390625,-0.29705139994621277,0.25319766998291016,0.42305076122283936
1776228673880236000,10.086236083984375,-0.14775912463665009,0.32003527879714966,0.3695829510688782
1776228673900087000,10.106087158203126,-0.24823682010173798,-0.04303054139018059,0.4982724189758301
1776228673919937000,10.12593701171875,-0.4366603493690491,-0.32044482231140137,0.6723285913467407
1776228673939788300,10.145788330078124,-0.48077332973480225,-0.23043610155582428,0.6210950613021851
1776228673959639300,10.165639404296876,-0.3678574562072754,0.009933345019817352,0.3939223289489746
1776228673979490300,10.185490234375,-0.2787145972251892,0.17018720507621765,0.22513192892074585
1776228673999340300,10.20534033203125,-0.33659517765045166,0.1558884233236313,0.21133655309677124
1776228674019191300,10.22519140625,-0.4165251851081848,0.0897299125790596,0.27637356519699097
1776228674039042300,10.245042236328125,-0.39917558431625366,-0.005897031165659428,0.2588370442390442
1776228674058893300,10.264893310546874,-0.28555944561958313,-0.031139789149165154,0.1818707287311554
1776228674078743300,10.284743408203125,-0.14496594667434692,0.058928851038217545,0.12327073514461517
1776228674098594300,10.30459423828125,-0.10802876949310303,0.07679492980241776,0.15371590852737427
1776228674118445000,10.324445068359376,-0.14453519880771637,-0.058058224618434906,0.24025632441043854
1776228674138296000,10.344296142578125,-0.23506613075733185,-0.12408172339200974,0.2710898816585541
1776228674158146000,10.36414599609375,-0.27811288833618164,-0.015295319259166718,0.14166991412639618
1776228674177997000,10.3839970703125,-0.16948378086090088,0.26163774728775024,-0.019107982516288757
1776228674197848300,10.403848388671875,-0.08547865599393845,0.3515458106994629,-0.025467079132795334
1776228674217699300,10.42369921875,-0.15184463560581207,0.13296473026275635,0.1384052187204361
1776228674237549300,10.44354931640625,-0.23889951407909393,-0.014132047072052956,0.191505566239357
1776228674257400300,10.463400390625,-0.2164173424243927,0.06523681432008743,0.11465715616941452
1776228674277251300,10.483251220703124,-0.17641368508338928,0.18403831124305725,0.1055273488163948
1776228674297102300,10.503102294921876,-0.2296433448791504,0.19838659465312958,0.12803399562835693
1776228674316952300,10.522952392578125,-0.313496857881546,0.1987392008304596,0.1042422205209732
1776228674336803000,10.542802978515626,-0.36147063970565796,0.11275186389684677,0.057584814727306366
1776228674356654000,10.562654052734375,-0.3058665692806244,0.08190234005451202,0.0349750742316246
1776228674376505000,10.582505126953125,-0.27055978775024414,0.07947273552417755,0.0017299579922109842
1776228674396355000,10.60235498046875,-0.2462911605834961,0.11577054858207703,-0.04255707934498787
1776228674416206000,10.6222060546875,-0.18080398440361023,0.19771122932434082,-0.06512090563774109
1776228674436057300,10.642057373046875,-0.2045331448316574,0.11109724640846252,0.017609018832445145
1776228674455908400,10.661908447265626,-0.27732720971107483,0.020890381187200546,0.1016588807106018
1776228674475758300,10.68175830078125,-0.24773085117340088,0.1078101098537445,0.04128486290574074
1776228674495609300,10.701609375,-0.13241544365882874,0.14117418229579926,-0.04264838621020317
1776228674515460400,10.72146044921875,-0.07613516598939896,0.07538957893848419,-0.026226576417684555
1776228674535311000,10.74131103515625,-0.07447392493486404,-0.01514777634292841,0.036029305309057236
1776228674555161300,10.761161376953124,-0.05957680195569992,-0.03022713214159012,0.02279997617006302
1776228674575012000,10.78101220703125,0.02446502074599266,0.024159416556358337,-0.048047374933958054
1776228674594863000,10.800863037109375,0.09767904877662659,0.01814999245107174,-0.1552441269159317
1776228674614714000,10.820714111328124,0.1822977215051651,0.05938264727592468,-0.33408400416374207
1776228674634564000,10.840564208984375,0.3017120659351349,0.10780663043260574,-0.5327722430229187
1776228674654415000,10.8604150390625,0.37065523862838745,-0.05858472362160683,-0.587452232837677
1776228674674266400,10.880266357421876,0.3304862976074219,-0.2938518226146698,-0.4230387210845947
1776228674694117400,10.900117431640625,0.27091988921165466,-0.24577327072620392,-0.2608381509780884
1776228674713967400,10.91996728515625,0.2172972708940506,0.09231182932853699,-0.1757361739873886
1776228674733819000,10.93981884765625,0.16970795392990112,0.05028769373893738,-0.2798728942871094
1776228674753669600,10.959669677734375,0.16707977652549744,0.33319929242134094,-0.03483296185731888
1776228674773521000,10.97952099609375,0.6924955248832703,-0.34159141778945923,-0.3324809968471527
1776228674793371000,10.999370849609376,1.2612648010253906,-0.7079259753227234,-0.8122237920761108
1776228674813222000,11.019221923828125,1.3007616996765137,-0.9844710230827332,-1.1084038019180298
1776228674833073000,11.039072998046874,1.0700809955596924,-0.7982268333435059,-0.8806696534156799
1776228674852924000,11.058923828125,0.7227055430412292,-0.4122205674648285,-0.569625735282898
1776228674872774000,11.07877392578125,0.47601601481437683,-0.18105873465538025,-0.5030132532119751
1776228674892625000,11.098625,0.4072594940662384,0.029163753613829613,-0.5966711640357971
1776228674912476000,11.118475830078125,0.4398115575313568,0.04529932141304016,-0.7602555155754089
1776228674932327000,11.138326904296875,0.40688616037368774,0.024714941158890724,-0.8318892121315002
1776228674952177000,11.158177001953124,0.29188376665115356,0.03796497359871864,-0.7445845603942871
1776228674972028000,11.17802783203125,0.18170525133609772,-0.1010909229516983,-0.5937740802764893
1776228674991878700,11.197878662109375,0.16009803116321564,-0.1826702058315277,-0.3619360029697418
1776228675011730000,11.21772998046875,0.17881782352924347,-0.10960957407951355,-0.28080129623413086
1776228675031580000,11.237579833984375,0.22200936079025269,-0.16965186595916748,-0.555262565612793
1776228675051431000,11.257430908203125,0.3785994052886963,-0.046809837222099304,-0.9499201774597168
1776228675071282000,11.277281982421876,0.4413851499557495,0.12195894867181778,-1.2334364652633667
1776228675091133000,11.2971328125,0.1958826780319214,0.5639104843139648,-0.8632236123085022
1776228675110984000,11.31698388671875,-0.01073512900620699,0.7802153825759888,-0.623815655708313
1776228675130834000,11.336833984375,-0.1004878357052803,1.0641975402832031,-0.48013460636138916
1776228675150685000,11.356684814453125,-0.08508040755987167,0.7961298823356628,-0.021379848942160606
1776228675170535700,11.37653564453125,0.030799448490142822,0.4922603368759155,0.33237943053245544
1776228675190386000,11.396385986328125,-0.0752028301358223,0.7612680196762085,0.2993573546409607
1776228675210236700,11.416236572265625,-0.2720564007759094,1.4875144958496094,0.05860769748687744
1776228675230087700,11.436087646484374,-0.48852989077568054,1.9883112907409668,-0.1803569793701172
1776228675249939000,11.45593896484375,-0.4987366795539856,1.819034457206726,-0.11433398723602295
1776228675269790000,11.4757900390625,-0.23642860352993011,1.0888835191726685,0.41313862800598145
1776228675289640000,11.495639892578126,-0.17098967730998993,0.9608594179153442,0.32914650440216064
1776228675309491000,11.515490966796875,-0.056835249066352844,1.0265990495681763,0.07248402386903763
1776228675329342000,11.535342041015625,-0.21497021615505219,0.7189898490905762,-0.17073388397693634
1776228675349193000,11.55519287109375,-0.32200461626052856,0.594897449016571,-0.0722937062382698
1776228675369043000,11.57504296875,-0.1744106560945511,0.8336738348007202,0.12454741448163986
1776228675388894000,11.59489404296875,-0.06506052613258362,0.9258320331573486,0.34437721967697144
1776228675408744700,11.61474462890625,-0.024668339639902115,0.7671751976013184,0.5465697050094604
1776228675428595700,11.634595703125,0.07847753912210464,0.5951704382896423,0.5995296835899353
1776228675448445700,11.65444580078125,0.3395375609397888,0.7371249198913574,0.5401488542556763
1776228675468296700,11.674296630859375,0.4021857678890228,0.9649860262870789,0.5285806059837341
1776228675488148000,11.69414794921875,0.4041982889175415,1.046057105064392,0.2230025827884674
1776228675507999000,11.7139990234375,0.6564679145812988,0.7474851608276367,-0.21851803362369537
1776228675527849000,11.733848876953125,0.7303404808044434,0.634347140789032,-0.5667868256568909
1776228675547700000,11.753699951171875,0.5823920369148254,0.5776891708374023,-0.9326173067092896
1776228675567551000,11.773551025390624,0.6062254309654236,0.4497019052505493,-1.0091890096664429
1776228675587402000,11.793402099609375,0.7474165558815002,0.7123620510101318,-0.47031134366989136
1776228675607252000,11.813251953125,0.7477113008499146,0.874332845211029,-0.07773271948099136
1776228675627103000,11.83310302734375,0.6977392435073853,0.8105032444000244,-0.03956714645028114
1776228675646953700,11.85295361328125,0.6204553246498108,0.6481242179870605,-0.18434275686740875
1776228675666804700,11.8728046875,0.5443093180656433,0.6104643940925598,-0.3343566358089447
1776228675686654700,11.89265478515625,0.373984158039093,0.6107757091522217,-0.13060376048088074
1776228675706505700,11.912505615234375,0.16802972555160522,0.8215146660804749,0.20212553441524506
1776228675726356700,11.932356689453124,-0.011464821174740791,0.7534157037734985,0.19857856631278992
1776228675746206700,11.952206787109375,-0.030020270496606827,0.6139305233955383,-0.02109375037252903
1776228675766056700,11.972056640625,0.030960509553551674,0.469561368227005,-0.09746499359607697
1776228675785907700,11.99190771484375,0.028279084712266922,0.31860435009002686,0.06612405180931091
1776228675805758700,12.0117587890625,-0.0590963140130043,0.3977638781070709,0.40702304244041443
1776228675825609700,12.031609619140625,-0.09561321884393692,0.4192151129245758,0.4302022159099579
1776228675845459700,12.051459716796876,0.02127765119075775,0.38920342922210693,0.22758355736732483
1776228675865310700,12.071310791015625,0.1582503318786621,0.3223381042480469,0.033017419278621674
1776228675885162000,12.091161865234374,0.2537250518798828,0.1673000454902649,-0.23379521071910858
1776228675905012700,12.1110126953125,0.2938518524169922,0.14601047337055206,-0.3979640305042267
1776228675924863000,12.130863037109375,0.2907694876194,0.17608556151390076,-0.3356998562812805
