time,seconds_elapsed,z,y,x
1776228701477660700,0.06866064453125,-0.7903402303516864,0.25681319936513897,1.7801913717873394
1776228701497512000,0.088511962890625,-0.5140355640530586,-0.3014028671979904,1.1784884840667247
1776228701517363000,0.108363037109375,-0.21748890471458435,-0.49695408087074755,-0.3818178451171145
1776228701537213700,0.128213623046875,0.5339145689994096,-0.1964285810291767,-1.8561837474912404
1776228701557064700,0.148064697265625,-0.6516811167240143,-0.3469666407600045,-1.9550456882596015
1776228701576915700,0.167915771484375,-1.5117933869600295,-0.6423197063997388,-0.9024176265239715
1776228701596766700,0.1877666015625,1.7103513812333344,-0.15896569633632898,0.47450219322908666
1776228701616617700,0.20761767578125,2.74127906781435,-0.21547318097800014,0.09589538258034735
1776228701636468700,0.22746875,1.6324124015063046,-0.6635583092615008,-1.2427690869279204
1776228701656319700,0.24731982421875,-0.45823827350735663,-0.7163871053904295,-0.5959373099312186
1776228701676171800,0.267171875,-0.22086276506185532,0.37760669369548555,-0.948130891559273
1776228701696022800,0.287022705078125,0.8248544943720102,0.3025634354099631,-1.8253177768453954
1776228701715873800,0.306873779296875,2.58245511803627,0.21845979557335377,-2.972812279972434
1776228701735724800,0.326724853515625,7.179122399049997,2.075951703053713,-1.7768965680256485
1776228701755575300,0.3465751953125,6.621138972198962,0.6857230870574712,-1.2924400035478174
1776228701775426300,0.36642626953125,3.5895997779697177,-0.0003302548676729202,-4.510263255280256
1776228701795277300,0.38627734375,2.753834013482928,-0.095110625410825,-4.214336189144849
1776228701815128600,0.406128662109375,1.9428209974586963,-0.2118137816876173,-2.363592879141867
1776228701834979600,0.4259794921875,2.8237147744387388,0.8267755255624651,-1.8277562560386955
1776228701854830600,0.44583056640625,5.302962615978718,1.5144265119425953,-2.637323311038315
1776228701874681600,0.465681640625,5.94399783552587,1.5026915043547748,-3.569678979708254
1776228701894533400,0.485533447265625,5.019146843397617,1.7974039340034127,-3.9162750335901975
1776228701914384400,0.50538427734375,1.822832682031393,3.71259253591001,-2.3646385888025163
1776228701934235600,0.525235595703125,2.378103927314281,3.5951764090582725,-1.210929010552913
1776228701954086700,0.545086669921875,3.808047883105278,2.325901154129207,-2.0025325388386843
1776228701973937400,0.5649375,4.470132904943823,1.1197348279334605,-2.008918294353038
1776228701993788400,0.584788330078125,2.062140619844198,-1.0472484875891357,-0.1788984772965312
1776228702013639400,0.604639404296875,-5.53489038041234,-2.1116127990216014,-1.335644208371639
1776228702033490400,0.624490478515625,-7.017003499379753,-3.2440573247939346,-0.0019261092243716119
1776228702053341400,0.644341552734375,-4.4502673440009355,-4.321820412307978,4.708389872398972
1776228702073192400,0.6641923828125,-11.922004323637484,-6.263782162588835,6.262566357058287
1776228702093044500,0.68404443359375,-21.832390592443943,-10.345331345009804,4.928061966371536
1776228702112895500,0.7038955078125,-24.795222161149976,-11.849156529569624,5.486214320048689
1776228702132746500,0.72374658203125,-21.876543037903307,-11.143286726540326,8.578203014543652
1776228702152597500,0.743597412109375,-19.30422586752176,-11.310089400112629,7.874322924026846
1776228702172448500,0.763448486328125,-18.747486303251982,-11.912343345844745,5.906914597800374
1776228702192299300,0.78329931640625,-20.315259351587294,-11.653781256985663,3.5038173912659287
1776228702212150300,0.803150390625,-17.06216122672558,-11.057812090611456,-1.0973324419893324
1776228702232001500,0.82300146484375,-11.33528229355812,-8.594536894229053,-2.6451535662725565
1776228702251852500,0.8428525390625,-3.773600839102268,-2.428521278387308,-0.27221966200731695
1776228702271703600,0.86270361328125,0.7262532503664493,3.873843420574069,-0.7284484223231673
1776228702291555300,0.882555419921875,7.8897490412175655,1.7402542059354482,-1.1580965611621736
1776228702311406300,0.90240625,10.10094741910696,0.0873905708190985,1.4754941392190755
1776228702331257300,0.92225732421875,9.87436686092019,0.15025597312012687,2.0117088018544016
1776228702351108600,0.942108642578125,9.660053663632272,0.16025957207176833,2.5487746744915842
1776228702370959600,0.961959716796875,9.462709721323847,0.1776955312475562,3.0864000807076692
1776228702390810400,0.981810302734375,9.262032250678539,0.18366689727474003,3.605694003680348
1776228702410661400,1.001661376953125,8.98899447722137,0.1871507938677445,4.121110208436846
1776228702430512400,1.021512451171875,8.686594415679574,0.1965542167028412,4.602384489616751
1776228702450363400,1.04136328125,8.390276304399967,0.20550474467128513,5.0805339167743915
1776228702470215700,1.061215576171875,8.086359993076323,0.21502372017744928,5.544266696044803
1776228702490066400,1.08106640625,7.755110853669047,0.22648922664150595,5.97238338753283
1776228702509917400,1.10091748046875,7.37134300699532,0.2467410469556227,6.388508027932048
1776228702529768400,1.1207685546875,7.00382486885488,0.2720465704627335,6.787936969596148
1776228702549619500,1.140619384765625,6.605248160105943,0.31384437908735124,7.168412788987159
1776228702569470500,1.160470458984375,6.166460436999797,0.3470361623322591,7.51923815100193
1776228702589321500,1.180321533203125,5.716177506411075,0.3968685896568,7.803830753174424
1776228702609172200,1.200172119140625,5.250973485544324,0.45519846742004155,8.12226775728166
1776228702629024500,1.2200244140625,4.745944527028501,0.5184604312906042,8.369152267828584
1776228702648875500,1.23987548828125,4.224746816261113,0.6053111048130319,8.596299812248349
1776228702668726500,1.2597265625,3.684742990475893,0.695000033968687,8.793684086567163
1776228702688577500,1.27957763671875,3.1495144162684676,0.7888433428574353,8.962761134812235
1776228702708428300,1.29942822265625,2.632964823567867,0.9271816270329057,9.102890905514359
1776228702728279300,1.319279296875,13.912673113942146,-0.25705950227640567,-7.847451283714174
1776228702748130600,1.339130615234375,61.073727558326716,1.2528656796589492,-122.06511702518462
1776228702767981000,1.35898095703125,14.362196166074275,11.085364114403724,-18.527741144043205
1776228702787833000,1.3788330078125,-15.656927349299192,-3.0204736103355883,38.37363760151863
1776228702807683800,1.398683837890625,-7.683182512533664,-0.6258746944900602,8.629118378266691
1776228702827534800,1.418534912109375,-3.5871541383832692,-8.672119900125265,0.27540070319622756
1776228702847385900,1.4383857421875,-5.109318697232007,-1.8073345225177704,2.0830434148803354
1776228702867237000,1.458237060546875,-4.066284393271804,-0.17826741285137832,0.06103080728501081
1776228702887088000,1.478088134765625,-1.3040934703320264,-0.7500351079702376,-0.9691641811072825
1776228702906939100,1.497939208984375,2.0288193650007247,-1.447535434322059,-3.1751357642590996
1776228702926790000,1.517789794921875,4.895069212830067,-0.41541247354187066,-4.992682614842057
1776228702946641000,1.537640869140625,2.6841525744915007,1.3363184543713926,-4.402561589974165
1776228702966493000,1.557492919921875,-2.626082662838697,1.9833996760845183,-1.6963751705899834
1776228702986344200,1.57734423828125,-3.5249569176673887,0.7600318205233663,-1.8508847643002866
1776228703006195000,1.59719482421875,-1.80153971863389,1.2994162723012268,-0.9602819326020776
1776228703026046000,1.6170458984375,1.1928338202834128,1.2895856370300054,-1.2110408003643154
1776228703045897000,1.63689697265625,1.872083911934495,0.7572755075525492,-0.8898816778168082
1776228703065748000,1.656748046875,-0.03270283068418502,0.6501913896229118,-0.42675227126702664
1776228703085599000,1.676598876953125,-1.0182067366957663,0.9297264892101287,0.040725978142023084
1776228703105450000,1.696449951171875,-1.0664800614774226,0.9904606516361236,0.27318054292872546
1776228703125302000,1.716302001953125,-0.5802659858077764,0.8524681121584028,0.35408056441843505
1776228703145153000,1.736153076171875,-1.3897078069925308,0.8016287362810224,0.5122805370792747
1776228703165004000,1.756004150390625,-2.0607821909725663,0.6862890503771603,-2.4517361497581005
1776228703184855000,1.77585498046875,-0.923170491695404,1.0798241116970777,-5.476428254571557
1776228703204706000,1.7957060546875,2.5176234571635723,2.034857768382132,-5.731244142639636
1776228703224556800,1.815556884765625,2.4157763631045817,1.960392748375982,-4.38159742013961
1776228703244407800,1.83540771484375,0.4306546855330467,1.0018680347047746,-0.8265458084598183
1776228703264260000,1.855260009765625,-1.345707921746373,0.4876856095269322,0.2535840081855655
1776228703284111000,1.875111083984375,0.13184358839392663,0.5651558026984334,-0.5414417496338486
1776228703303962000,1.894962158203125,-0.2597837396085262,0.4951230660513043,-0.39892040762007236
1776228703323812900,1.914812744140625,-0.24575755234360694,0.5113328809656202,-0.3682701255515218
1776228703343663900,1.934663818359375,-0.21220015065670012,0.5352024168528616,-0.358845879124105
1776228703363515000,1.954514892578125,-0.22580197502970695,0.484894955895096,-0.40700931379050015
1776228703383366100,1.9743662109375,-0.20610475639104842,0.4580551720254123,-0.366027899582684
1776228703403217200,1.994217041015625,-0.1475859319269657,0.4158654049411416,-0.3031584786936641
1776228703423069000,2.01406884765625,-0.18369068000912664,0.3651144379995763,-0.27142069364935156
1776228703442920000,2.033919921875,-0.12265315072238445,0.3161215667717159,-0.25258476801514623
1776228703462771000,2.05377099609375,-0.05110591785907745,0.14927300823107362,-0.12360913627296685
1776228703482622000,2.0736220703125,-0.02841360905766487,0.06682312695086003,-0.08736497972011566
1776228703502473000,2.093472900390625,0.01592237627506256,0.017106909884512425,-0.049104222647845745
1776228703522324000,2.113323974609375,0.010703764843940734,0.013552432273328304,-0.014029986657202244
1776228703542175000,2.133175048828125,0.011219897672533988,0.022819588442891836,-0.007250701780617237
1776228703562027000,2.153027099609375,0.03434767528176307,0.016085165621340273,-0.023442542646825312
1776228703581878000,2.1728779296875,0.00873626416325569,0.010896803198009728,-0.022827333357930184
1776228703601729000,2.19272900390625,0.02494797877371311,0.025699966184794903,-0.002127367417514324
1776228703621579800,2.212579833984375,0.014667407777905463,0.012850275353342294,0.001130173073709011
1776228703641431000,2.23243115234375,0.005842880809307098,0.005092793094366789,-0.007038520334661007
1776228703661282000,2.252281982421875,0.013322422909736632,-0.0009499942012131214,-0.013366262051463126
1776228703681133000,2.272133056640625,0.019376900643110276,0.010853256317228078,0.0013449848681688307
1776228703700984800,2.29198486328125,0.017476619979739188,0.010465279912948608,-0.014163257648050783
1776228703720835800,2.3118359375,0.015406243446469306,-0.0021297055050730706,-0.006082534784078598
1776228703740686800,2.331686767578125,0.030852818903326987,0.00020575170516967773,-0.0016696867778897284
1776228703760538600,2.35153857421875,0.009582067337632179,0.003465338023006916,-0.014714754050970077
1776228703780389600,2.3713896484375,0.018985270977020262,0.00581555441096425,-0.005573416218161583
1776228703800240600,2.39124072265625,0.013489011648297309,0.007593523868918419,-0.025967677210271357
1776228703820091600,2.411091552734375,0.010494506007432937,0.00012874094620347022,-0.018327391590178013
1776228703839943700,2.430943603515625,0.005347206246852874,0.017283727756142616,-0.013055296406149863
1776228703859794700,2.450794677734375,0.027792846810817718,0.00397621015459299,-0.0046282443225383755
1776228703879645700,2.470645751953125,0.031278935360908505,0.007988806796818971,-0.0017535656690597532
1776228703899496400,2.490496337890625,-0.002172667863965034,0.017727672131359576,-0.014343582651019095
1776228703919347500,2.510347412109375,0.01523614757657051,0.02354074232429266,-0.005887596733868122
1776228703939198700,2.53019873046875,0.01400397543311119,0.004548749345541,0.003333820597827434
1776228703959049700,2.5500498046875,0.019333646023273466,-0.00818856715261936,-0.01693272236138582
1776228703978901500,2.569901611328125,0.018433482313156127,0.007240472647547722,-0.0062111295998096465
1776228703998752500,2.58975244140625,0.025131518647074698,0.0024834873788058755,-0.015287293241918087
1776228704018603500,2.609603515625,0.007135258707404136,0.012030921794474124,-0.0009071779727935791
1776228704038454500,2.62945458984375,-0.0024888942062854767,0.013437427591532467,-0.009230185160040856
1776228704058305500,2.649305419921875,0.02397591887116432,0.0109971948325634,-0.012523966008424758
1776228704078156800,2.66915673828125,0.022137013006210324,0.00023775427863001821,-0.016062077006697654
1776228704098007600,2.689007568359375,0.006377133816480636,0.014399258361011743,0.008167816625535488
1776228704117859600,2.708859619140625,0.021439093869924545,0.016857319037616253,-0.016046294915676117
1776228704137710600,2.728710693359375,0.014547580790519713,0.002880231611430645,-0.0327823256611824
1776228704157561600,2.7485615234375,0.008722235637903213,0.002866056955605745,0.0006619710400700569
1776228704177412600,2.76841259765625,0.032976386928558345,0.0141397306419909,-0.019743980389833448
1776228704197263600,2.788263671875,0.018988778108358383,0.010877952367067336,0.0028349311649799344
1776228704217114600,2.808114501953125,0.026631401816010473,0.014419132105261086,-0.021023791067302226
1776228704236965600,2.827965576171875,0.015548282265663146,0.009922843599319458,0.0022080314382910728
1776228704256817700,2.847817626953125,0.021637831312417984,-0.009215864373743533,-0.016544892087578773
1776228704276668700,2.867668701171875,0.004072364005446433,-0.00020823592320084571,-0.003686579558253288
1776228704296519400,2.88751953125,0.026083704805374145,0.0252206582352519,0.008837678711116313
1776228704316370700,2.90737060546875,0.03954816653430462,0.004510901553183793,-0.010313011960685252
1776228704336221700,2.9272216796875,0.004741057047247886,-0.010776099427789449,-0.013828911127150057
1776228704356072700,2.94707275390625,0.0037210663497447964,0.011605243728309868,-0.002881400655210018
1776228704375924500,2.966924560546875,0.023503040662407874,0.01701163281649351,-0.025672493655979633
1776228704395775500,2.986775390625,0.016577040791511535,0.012172522222250699,-0.006310790582001209
1776228704415626500,3.00662646484375,0.01846037032008171,0.020889643293619156,-0.007809504707157611
1776228704435477800,3.026477783203125,0.018353987336158752,-0.002469604983925819,-0.012692892834544181
1776228704455328800,3.046328857421875,0.024678514182567595,-0.0004974281281232833,0.0015770400583744047
1776228704475179800,3.0661796875,-0.0031201778471469876,0.0037624212734401223,-0.004183715425431728
1776228704495030500,3.086030517578125,0.015512626430392265,0.005576192697137594,-0.012646715605258941
1776228704514882600,3.105882568359375,0.0053881227791309355,0.027144465904682873,-0.024103344643115997
1776228704534733600,3.125733642578125,0.012147533911466597,0.009096037386357784,0.016657704812288284
1776228704554584600,3.14558447265625,0.020967969226837156,0.0010778583645820617,-0.0038040684580802914
1776228704574435600,3.165435546875,0.019637597405910492,-0.00566547841578722,-0.00438362191170454
1776228704594286600,3.18528662109375,0.02045592805147171,0.004854746554791927,-0.006321019715070724
1776228704614137600,3.2051376953125,-0.44604982306361196,-0.04831351066157222,0.534807133924961
1776228704633989600,3.22498974609375,-1.7256068180322646,0.3608909750856459,1.8804957664489745
1776228704653840600,3.244840576171875,0.12363456297516823,-0.41725773608237504,1.792626928859949
1776228704673691400,3.26469140625,2.416254502010345,-0.4217033173143863,-1.6145958820477126
1776228704693542700,3.284542724609375,0.5387427198082209,0.18111498430222273,-2.530742174194753
1776228704713393700,3.3043935546875,-0.5686451061189174,0.35736148578524585,0.19311814130693672
1776228704733244700,3.32424462890625,-0.18621230744123457,0.0953995253548026,0.15314561188071965
1776228704753095700,3.344095703125,-0.07150923894047737,-0.015082126058638096,0.09928805722594261
1776228704772947500,3.363947509765625,0.0904126768529415,0.010697042842209339,-0.005218026909232139
1776228704792798500,3.383798583984375,-0.24082535663843155,-0.06936433586627244,-0.1477627497985959
1776228704812649500,3.4036494140625,-0.31870237704515453,-0.15050474198311567,-0.045864217813313006
1776228704832500500,3.42350048828125,-0.1369254217028618,-0.1912479635208845,0.6896890680789947
1776228704852351500,3.4433515625,0.6319552565127611,-0.7670011480793356,-0.7078028169184922
1776228704872202500,3.463202392578125,-0.2170107658088207,-1.2593810529023408,0.3284916573926806
1776228704892054500,3.483054443359375,3.095210579150915,0.21089462101608514,0.28692864390462636
1776228704911905500,3.502905517578125,0.772114253309369,3.563645837023854,-1.3317542151957749
1776228704931756500,3.522756591796875,2.528677935141325,-0.5893510634087026,0.3734434365361929
1776228704951607600,3.542607666015625,3.4397137524068353,0.074347531106323,1.1866580542579293
1776228704971458600,3.56245849609375,3.438369352060556,1.3428287130482495,-1.9875258161038158
1776228704991309300,3.582309326171875,3.7544606698244807,1.5503604335024952,-2.740079921157658
1776228705011161600,3.60216162109375,2.1980594948530197,1.7485206606298684,1.1295376984149217
1776228705031012600,3.6220126953125,1.2392904510319231,0.7335614544879645,0.9517807923689484
1776228705050863600,3.641863525390625,4.338566964447498,-0.8469258947961031,1.6509160264462233
1776228705070714400,3.66171435546875,3.780999717181921,0.6124263801783323,1.7497551708608865
1776228705090565400,3.6815654296875,3.052636342793703,-0.293507145512104,1.8645757282614708
1776228705110416400,3.70141650390625,1.4919430235862732,-1.9348758836731315,0.5257067126244306
1776228705130268400,3.721268310546875,-0.54607379334867,-2.2611752917185424,1.0650672720700503
1776228705150119400,3.741119384765625,0.03987228392213583,-3.991854882970452,1.7696785994708537
1776228705169970400,3.760970458984375,-0.13978227243870495,-3.200169667750597,3.516940199950337
1776228705189821400,3.780821533203125,-0.7530272755235433,-0.9347983856469392,2.9832588551849124
1776228705209672400,3.80067236328125,-0.6228752934783697,-1.9485393751055,2.2044845594644547
1776228705229523500,3.8205234375,-1.8286732247531412,-1.253996437254548,3.2502754686564206
1776228705249375200,3.840375244140625,-1.4601602303564547,-1.7030471956998108,3.4756712009727955
1776228705269226500,3.8602265625,-2.4397940752908585,-3.042124885651469,2.165378291478753
1776228705289077500,3.880077392578125,-3.8248523029118773,-3.018390374320745,0.6227525438815354
1776228705308928500,3.899928466796875,-2.0811475181311367,-1.8129507549643515,0.8667769888222217
1776228705328779500,3.919779541015625,-0.20844693560302258,-0.6289934840977192,0.44558103650808334
1776228705348630500,3.939630615234375,-0.46211482267975806,-0.7332850486993789,0.5083510886758565
1776228705368482300,3.959482421875,-0.39986557951569557,-1.343832191002369,-0.25535481725037096
1776228705388333600,3.97933349609375,1.867531070935726,-1.028916346758604,0.33571137951314445
1776228705408184600,3.9991845703125,1.0188456191211939,0.04075929588973522,-0.1515884455665946
1776228705428035600,4.01903564453125,0.3616244039267301,1.2637719813376664,0.2381307107269764
1776228705447886600,4.038886474609375,-0.6392588575243949,-0.17823709077835082,-0.17347236059457063
1776228705467737300,4.0587373046875,0.5468237349331379,-1.9292174195200205,-0.766336546690762
1776228705487589400,4.07858935546875,1.8818793297618626,-0.9905983065411448,-0.26867490207254885
1776228705507440600,4.098440673828125,2.077095612391829,0.5730296048134566,0.18931757998019455
1776228705527291600,4.118291748046875,1.389705468904972,1.012121863824129,0.7305968325287103
1776228705547142400,4.138142333984375,0.07050970650911331,-0.8754577234059572,1.118236844460666
1776228705566993400,4.157993408203125,0.047643794706463814,-3.688476331785321,-0.905723390071094
1776228705586844400,4.177844482421875,1.6912299166560172,-1.4503896547093986,-0.6261991772040725
1776228705606696400,4.197696533203125,1.525563553637266,0.8534834997460246,-0.13521744874119757
1776228705626547500,4.21754736328125,0.1966296565592289,0.6518769315570593,0.4774775192454457
1776228705646398500,4.2373984375,0.24868191535770892,-1.4291855386391281,0.48303866050392386
1776228705666249500,4.25724951171875,0.9172796800911426,-2.6139441890165207,-0.2382698269367218
1776228705686100500,4.2771005859375,1.7950538637459277,-1.0378113086149097,-1.0653498884037136
1776228705705951500,4.296951416015625,2.0232190607756375,1.2576765870720148,-0.6703305798754096
1776228705725803300,4.31680322265625,0.9134621676295995,1.2886439722657204,0.7195423545509576
1776228705745654300,4.336654296875,0.4257224898278713,-0.17795564348846674,0.23702801018208264
1776228705765506000,4.356506103515625,2.0445149467825887,-0.529865001347661,0.14399872108995915
1776228705785357000,4.376357177734375,3.7234845168024298,0.03908844006806612,-0.8697203487977385
1776228705805208000,4.3962080078125,2.8801386724501845,0.9120730513587594,-0.1080222755625844
1776228705825058800,4.416058837890625,0.655862786322832,0.47741848253458735,0.8933411706209182
1776228705844910800,4.435910888671875,0.6026555122703313,-0.5367573912099004,0.8376292202711105
1776228705864762000,4.45576220703125,1.9964730926692484,-0.6424316423416138,0.4152569176539778
1776228705884613000,4.475613037109375,3.4886019942164417,-0.08279518758654594,0.2837845006600022
1776228705904464100,4.495464111328125,2.5681466066986323,0.2714668708786368,0.1316295072518289
1776228705924315000,4.51531494140625,2.4629203915953637,0.1406406428337097,0.37277518188580866
1776228705944166000,4.535165771484375,2.025188899543881,-0.43920770208388565,0.6509384816631675
1776228705964018000,4.555017822265625,0.8733937766134738,-0.9202300543293357,0.17432707772776485
1776228705983869000,4.574868896484375,1.017923828101158,-0.97004564011693,-0.36353155272230503
1776228706003720000,4.594719970703125,1.5467419507443905,0.1455611481010914,-0.4089383821569383
1776228706023571000,4.614571044921875,0.795990218937397,-2.5304583888173102,-0.0626523440722376
1776228706043422000,4.634421875,1.7040847220540045,0.3116135878279805,1.592571097244322
1776228706063274000,4.65427392578125,-0.7371820561379194,-1.6624696861177681,-0.5093264365140349
1776228706083125000,4.674125,0.6869903305143118,-0.8677484642028808,0.08050506735537201
1776228706102975700,4.693975830078125,0.1904763946264982,0.1012599418208003,-0.3595582651771605
1776228706122827000,4.713826904296875,-0.5585837308317423,0.08784136506021022,-1.2704529204063117
1776228706142678000,4.733677978515625,-0.12617489510774613,-0.27097382666468617,-1.2954603742823003
1776228706162529000,4.753529052734375,0.48397360326647754,-0.6377171810403466,-0.8566597916945815
1776228706182380800,4.773380859375,1.4680956995308398,-0.7443778128609061,0.993257954204455
1776228706202231800,4.793231689453125,-0.14746259780824184,-0.8765478567302226,0.17501228351294992
1776228706222082800,4.813082763671875,-1.1488690063506364,-1.003647465467453,-0.6732333886448294
1776228706241934000,4.83293408203125,-0.7893225777417421,-1.0391498637422918,-0.961257645766437
1776228706261785000,4.85278515625,0.33022681062221526,-1.0216872722879051,-0.8359633328855037
1776228706281636000,4.872635986328125,0.25529928767085075,-1.2103607091456652,-0.6607479280158877
1776228706301487900,4.89248779296875,0.26467969495654103,-1.708724072292447,-0.6070242288738489
1776228706321339000,4.9123388671875,-0.12252514042854308,-1.3593237746447324,-0.9131612849868833
1776228706341190000,4.93218994140625,-0.4116542169868946,-1.4230772848919033,-0.5850568733461201
1776228706361041200,4.952041259765625,0.5465455025136471,-1.0082476527392863,-0.1503518895089626
1776228706380892200,4.97189208984375,0.2510322778761387,-0.6735542180970311,-0.06398260629530995
1776228706400743000,4.991742919921875,-0.6171031398177147,-0.7076102169558406,-0.3193266464233398
