time,seconds_elapsed,z,y,x
1776228567962578400,0.057578369140625,-0.8533935546875,0.0928802490234375,-0.1666412353515625
1776228567982429400,0.077429443359375,-0.7360076904296875,0.0725860595703125,-0.1562042236328125
1776228568002280400,0.097280517578125,-0.6108551025390625,0.0494384765625,-0.1515045166015625
1776228568022131500,0.11713134765625,-0.6118316650390625,0.0033111572265625,-0.140655517578125
1776228568041981400,0.1369814453125,-0.6924591064453125,-0.01025390625,-0.150146484375
1776228568061832400,0.15683251953125,-0.9499969482421875,-0.0030670166015625,-0.15631103515625
1776228568081683700,0.17668359375,-1.2733001708984375,-0.0503387451171875,-0.1432037353515625
1776228568101534700,0.19653466796875,-1.3178863525390625,-0.17572021484375,-0.08367919921875
1776228568121385500,0.216385498046875,-1.328765869140625,-0.304534912109375,-0.01318359375
1776228568141236500,0.236236572265625,-1.5043182373046875,-0.3560333251953125,0.05694580078125
1776228568161087500,0.25608740234375,-1.7727203369140625,-0.4742584228515625,-0.034637451171875
1776228568180938500,0.2759384765625,-2.0491180419921875,-0.5964813232421875,-0.1001129150390625
1776228568200789500,0.29578955078125,-2.2944488525390625,-0.608489990234375,0.10845947265625
1776228568220640500,0.315640625,-2.400054931640625,-0.6778717041015625,0.1071624755859375
1776228568240491500,0.335491455078125,-2.3642120361328125,-0.7742156982421875,-0.0885467529296875
1776228568260342500,0.355342529296875,-2.318389892578125,-0.854705810546875,-0.04052734375
1776228568280193500,0.375193603515625,-2.2046966552734375,-0.805450439453125,0.2036590576171875
1776228568300044500,0.39504443359375,-2.1727294921875,-0.84075927734375,0.2830657958984375
1776228568319895600,0.4148955078125,-2.129486083984375,-0.897796630859375,0.28887939453125
1776228568339746600,0.43474658203125,-1.979034423828125,-0.967987060546875,0.3531951904296875
1776228568359597600,0.45459765625,-1.784881591796875,-0.984161376953125,0.1382904052734375
1776228568379448300,0.4744482421875,-1.807281494140625,-0.80853271484375,-0.332183837890625
1776228568399299600,0.494299560546875,-1.462310791015625,-0.388763427734375,-0.5244293212890625
1776228568419149600,0.514149658203125,-0.5201568603515625,0.232269287109375,-0.53106689453125
1776228568439000600,0.53400048828125,0.1303558349609375,0.4032135009765625,-0.1471405029296875
1776228568458851600,0.5538515625,0.032928466796875,0.023162841796875,-0.0216064453125
1776228568478702600,0.57370263671875,0.021209716796875,0.0218658447265625,-0.014373779296875
1776228568498553600,0.5935537109375,0.016357421875,0.0198516845703125,-0.0165252685546875
1776228568518404600,0.613404541015625,0.0147857666015625,0.01910400390625,-0.0172882080078125
1776228568538255400,0.63325537109375,0.01055908203125,0.019287109375,-0.01824951171875
1776228568558106400,0.6531064453125,0.008636474609375,0.0194549560546875,-0.0180816650390625
1776228568577957600,0.67295751953125,0.0068359375,0.0193328857421875,-0.021759033203125
1776228568597808600,0.69280859375,-0.000213623046875,0.01934814453125,-0.02020263671875
1776228568617659600,0.71265966796875,-0.003204345703125,0.0197906494140625,-0.021697998046875
1776228568637510400,0.732510498046875,-0.008331298828125,0.020660400390625,-0.024383544921875
1776228568657361400,0.752361328125,-0.013885498046875,0.019744873046875,-0.0240020751953125
1776228568677212400,0.77221240234375,-0.018829345703125,0.0201263427734375,-0.0238189697265625
1776228568697063400,0.7920634765625,-0.0225677490234375,0.0219573974609375,-0.0247344970703125
1776228568716914400,0.81191455078125,-0.0225830078125,0.0214385986328125,-0.0240020751953125
1776228568736765400,0.831765380859375,-0.0237579345703125,0.02349853515625,-0.022613525390625
1776228568756615400,0.851615478515625,-0.023712158203125,0.0234832763671875,-0.023529052734375
1776228568776466400,0.871466552734375,-0.027008056640625,0.023193359375,-0.022125244140625
1776228568796317400,0.8913173828125,-0.0301055908203125,0.0238189697265625,-0.0221099853515625
1776228568816168200,0.911168212890625,-0.029754638671875,0.0230865478515625,-0.02117919921875
1776228568836019200,0.931019287109375,-0.030792236328125,0.023284912109375,-0.02288818359375
1776228568855870500,0.950870361328125,-0.031982421875,0.024871826171875,-0.0212249755859375
1776228568875721500,0.970721435546875,-0.0343170166015625,0.02459716796875,-0.020263671875
1776228568895572500,0.990572509765625,-0.0406646728515625,0.02130126953125,-0.0218505859375
1776228568915423500,1.010423583984375,-0.4620513916015625,-1.67022705078125,-0.22149658203125
1776228568935274200,1.030274169921875,-12.413360595703125,1.5614013671875,-10.287551879882812
1776228568955125200,1.050125244140625,-8.269393920898438,3.3811798095703125,-1.4543304443359375
1776228568974976300,1.069976318359375,-1.4487152099609375,0.9737701416015625,0.7177886962890625
1776228568994827500,1.08982763671875,0.0162200927734375,0.061248779296875,-0.00799560546875
1776228569014678500,1.109678466796875,0.01300048828125,0.0686187744140625,0.0054473876953125
1776228569034529500,1.129529541015625,0.01019287109375,0.0668792724609375,0.00323486328125
1776228569054380500,1.149380615234375,-0.089080810546875,0.02142333984375,-0.0307464599609375
1776228569074231300,1.169231201171875,-0.176788330078125,-0.10980224609375,-0.1227874755859375
1776228569094082300,1.189082275390625,0.0358428955078125,-0.2225189208984375,-0.1764068603515625
1776228569113933300,1.208933349609375,0.6086578369140625,-0.2581329345703125,-0.02520751953125
1776228569133784300,1.228784423828125,0.7769317626953125,-0.0430755615234375,0.0912322998046875
1776228569153634300,1.24863427734375,-1.6324005126953125,0.3824615478515625,0.7353057861328125
1776228569173485300,1.2684853515625,-4.3131103515625,0.3439178466796875,0.50579833984375
1776228569193336600,1.288336669921875,-2.1450042724609375,0.3213653564453125,-0.2509613037109375
1776228569213187600,1.3081875,-0.4725494384765625,-0.1935272216796875,0.0011749267578125
1776228569233038300,1.328038330078125,-0.7779541015625,-0.21258544921875,0.1409912109375
1776228569252889300,1.347889404296875,-0.585205078125,0.103729248046875,-0.08233642578125
1776228569272740400,1.367740234375,-0.7752532958984375,0.002227783203125,-0.0292205810546875
1776228569292591400,1.38759130859375,-0.955841064453125,-0.0133056640625,-0.013214111328125
1776228569312442400,1.4074423828125,-1.2434234619140625,-0.091949462890625,-0.0218658447265625
1776228569332293600,1.427293701171875,-1.1761016845703125,-0.02032470703125,0.064849853515625
1776228569352144400,1.447144287109375,-0.891082763671875,-0.04388427734375,0.012054443359375
1776228569371995400,1.466995361328125,-0.8725738525390625,-0.048675537109375,-0.0290985107421875
1776228569391846400,1.486846435546875,-0.9665374755859375,-0.0244293212890625,-0.019989013671875
1776228569411697400,1.506697509765625,-1.0540771484375,-0.003936767578125,0.03594970703125
1776228569431548400,1.52654833984375,-1.05010986328125,-0.004974365234375,0.0103607177734375
1776228569451399400,1.5463994140625,-0.9720306396484375,-0.015533447265625,0.0027618408203125
1776228569471250200,1.566250244140625,-0.9731292724609375,-0.0059356689453125,-0.0182952880859375
1776228569491101400,1.586101318359375,-0.9978790283203125,-0.02374267578125,0.00372314453125
1776228569510951200,1.605951171875,-0.9984588623046875,-0.048675537109375,0.0109405517578125
1776228569530802400,1.625802490234375,-0.9941558837890625,-0.0405426025390625,0.0080413818359375
1776228569550653400,1.6456533203125,-0.9803009033203125,-0.03375244140625,-0.0040130615234375
1776228569570504400,1.66550439453125,-0.9863739013671875,-0.0323333740234375,-0.0012969970703125
1776228569590355500,1.68535546875,-0.9993438720703125,-0.0262603759765625,0.0061798095703125
1776228569610206500,1.70520654296875,-0.9996795654296875,-0.014923095703125,0.0047607421875
1776228569630057200,1.72505712890625,-0.9998626708984375,-0.0105743408203125,-0.000335693359375
1776228569649908200,1.744908203125,-0.9937744140625,-0.0136871337890625,-0.0005035400390625
1776228569669759200,1.76475927734375,-0.998382568359375,-0.022796630859375,0.0057525634765625
1776228569689610200,1.7846103515625,-0.99139404296875,-0.0300445556640625,0.009552001953125
1776228569709461200,1.804461181640625,-0.991424560546875,-0.03466796875,0.000244140625
1776228569729312500,1.8243125,-0.9891510009765625,-0.0315093994140625,-0.003692626953125
1776228569749163300,1.844163330078125,-0.9891204833984375,-0.032318115234375,0.00238037109375
1776228569769014300,1.86401416015625,-0.9923095703125,-0.0275115966796875,0.00384521484375
1776228569788865300,1.883865234375,-0.9975738525390625,-0.0217437744140625,0.0011749267578125
1776228569808716300,1.90371630859375,-0.9980316162109375,-0.0157318115234375,0.003173828125
1776228569828567300,1.9235673828125,-0.9972381591796875,-0.018157958984375,0.0053863525390625
1776228569848418300,1.943418212890625,-0.99664306640625,-0.0194549560546875,0.0041351318359375
1776228569868269300,1.963269287109375,-0.9933013916015625,-0.02606201171875,0.0022430419921875
1776228569888120300,1.983120361328125,-0.9944305419921875,-0.028045654296875,0.0001983642578125
1776228569907971300,2.002971435546875,-0.9911651611328125,-0.0310821533203125,0.00048828125
1776228569927822300,2.022822265625,-0.992462158203125,-0.0323638916015625,0.0024566650390625
1776228569947673300,2.04267333984375,-0.9921722412109375,-0.0263824462890625,0.004791259765625
1776228569967524400,2.0625244140625,-0.9946746826171875,-0.0222625732421875,0.0031280517578125
1776228569987374300,2.082374267578125,-0.995269775390625,-0.02130126953125,0.00384521484375
1776228570007225300,2.102225341796875,-0.9950408935546875,-0.0201873779296875,0.0038604736328125
1776228570027076400,2.122076416015625,-0.9951629638671875,-0.0221405029296875,0.0032196044921875
1776228570046927000,2.141927001953125,-0.9937591552734375,-0.0256805419921875,0.000762939453125
1776228570066778400,2.1617783203125,-0.99273681640625,-0.0270843505859375,0.0026702880859375
1776228570086629400,2.18162939453125,-0.9926300048828125,-0.029754638671875,0.005523681640625
1776228570106480400,2.20148046875,-0.99237060546875,-0.0289306640625,0.0021820068359375
1776228570126331400,2.221331298828125,-0.993194580078125,-0.0261993408203125,0.001922607421875
1776228570146182400,2.241182373046875,-0.99505615234375,-0.0234375,0.001861572265625
1776228570166033200,2.261033203125,-0.993621826171875,-0.02252197265625,0.004364013671875
1776228570185884200,2.28088427734375,-0.9929962158203125,-0.0212554931640625,0.001953125
1776228570205735200,2.300735107421875,-0.99908447265625,-0.023956298828125,0.002655029296875
1776228570225586400,2.32058642578125,-0.99285888671875,-0.0229949951171875,0.0027313232421875
1776228570245437400,2.3404375,-0.9931488037109375,-0.0290679931640625,0.0039215087890625
1776228570265288400,2.360288330078125,-0.9915008544921875,-0.0264434814453125,0.0038909912109375
1776228570285139200,2.38013916015625,-0.995574951171875,-0.0279693603515625,0.00201416015625
1776228570304990200,2.399990234375,-0.995391845703125,-0.0247802734375,0.0012969970703125
1776228570324841200,2.41984130859375,-0.992401123046875,-0.025146484375,0.003936767578125
1776228570344692200,2.439692138671875,-0.997039794921875,-0.023651123046875,0.0015106201171875
1776228570364543200,2.459543212890625,-0.9940338134765625,-0.0242462158203125,0.0056915283203125
1776228570384394500,2.47939453125,-0.996124267578125,-0.0240936279296875,0.0027923583984375
1776228570404245500,2.49924560546875,-0.992431640625,-0.024658203125,0.0028533935546875
1776228570424096300,2.51909619140625,-0.9939422607421875,-0.027496337890625,0.002471923828125
1776228570443947300,2.538947265625,-0.9913482666015625,-0.0275115966796875,0.0030670166015625
1776228570463798300,2.55879833984375,-0.9948883056640625,-0.0266876220703125,0.003326416015625
1776228570483649300,2.578649169921875,-0.9918060302734375,-0.0253448486328125,0.0029754638671875
1776228570503500300,2.598500244140625,-0.9941558837890625,-0.0248260498046875,0.0023651123046875
1776228570523351600,2.6183515625,-0.9939727783203125,-0.02215576171875,0.001983642578125
1776228570543202300,2.638202392578125,-0.995574951171875,-0.024078369140625,0.003021240234375
1776228570563053300,2.65805322265625,-0.99432373046875,-0.024017333984375,0.0023956298828125
1776228570582904300,2.677904296875,-0.9938507080078125,-0.026153564453125,0.002410888671875
1776228570602755300,2.69775537109375,-0.9931182861328125,-0.0260162353515625,0.0013275146484375
1776228570622606300,2.7176064453125,-0.9943084716796875,-0.026885986328125,0.00726318359375
1776228570642456600,2.73745654296875,-0.9763946533203125,-0.026641845703125,-0.0036468505859375
1776228570662307800,2.757307861328125,-0.9921722412109375,-0.016754150390625,0.00543212890625
1776228570682158600,2.77715869140625,-1.0186920166015625,-0.0297698974609375,0.0001373291015625
1776228570702009600,2.797009521484375,-0.978271484375,-0.0220794677734375,0.009765625
1776228570721860600,2.816860595703125,-0.987335205078125,-0.0289764404296875,0.0160980224609375
1776228570741711600,2.836711669921875,-1.0121002197265625,-0.022491455078125,0.0091705322265625
1776228570761562600,2.856562744140625,-1.0012054443359375,-0.0303955078125,0.0065460205078125
1776228570781413600,2.87641357421875,-0.990814208984375,-0.024169921875,0.01202392578125
1776228570801264600,2.8962646484375,-0.9875335693359375,-0.02410888671875,0.0067901611328125
1776228570821115600,2.91611572265625,-0.989227294921875,-0.0241851806640625,0.0074462890625
1776228570840966700,2.935966552734375,-0.998931884765625,-0.021728515625,0.0070343017578125
1776228570860817700,2.955817626953125,-1.0163421630859375,0.001556396484375,0.0042724609375
1776228570880668700,2.975668701171875,-0.9389190673828125,-0.0453033447265625,0.0140228271484375
1776228570900520400,2.9955205078125,-0.9940338134765625,-0.049652099609375,0.0048370361328125
1776228570920371500,3.015371337890625,-1.0495758056640625,-0.034698486328125,0.0227508544921875
1776228570940222700,3.03522265625,-1.0464324951171875,-0.0178985595703125,0.0174407958984375
1776228570960073700,3.05507373046875,-0.9339141845703125,-0.011962890625,0.0193023681640625
1776228570979924700,3.0749248046875,-0.94512939453125,-0.044647216796875,0.01690673828125
1776228570999775700,3.094775634765625,-1.0474395751953125,-0.015869140625,-0.0012969970703125
1776228571019626500,3.11462646484375,-1.0253448486328125,-0.0065765380859375,0.014739990234375
1776228571039477500,3.1344775390625,-0.9596710205078125,-0.0318756103515625,0.002197265625
1776228571059328500,3.15432861328125,-0.9756622314453125,-0.0239715576171875,0.013397216796875
1776228571079179800,3.1741796875,-1.0004425048828125,-0.021453857421875,0.0047607421875
1776228571099030800,3.19403076171875,-1.0056304931640625,-0.020477294921875,0.0123138427734375
1776228571118881800,3.2138818359375,-0.9963226318359375,-0.0332794189453125,0.0155792236328125
1776228571138732500,3.233732666015625,-0.9875335693359375,-0.0260162353515625,0.01470947265625
1776228571158583600,3.25358349609375,-0.9909210205078125,-0.023284912109375,0.011688232421875
1776228571178434600,3.2734345703125,-0.98919677734375,-0.0241546630859375,0.0020751953125
1776228571198285600,3.29328564453125,-1.0001220703125,-0.0200958251953125,0.0107879638671875
1776228571218136600,3.313136474609375,-1.0004425048828125,-0.0320587158203125,0.0219879150390625
1776228571237987800,3.33298779296875,-1.0360260009765625,-0.0067596435546875,-0.0025787353515625
1776228571257838800,3.3528388671875,-0.854888916015625,-0.02178955078125,0.0060882568359375
1776228571277689600,3.372689697265625,-1.04443359375,-0.11468505859375,0.047149658203125
1776228571297540600,3.39254052734375,-1.1602783203125,0.049774169921875,-0.01397705078125
1776228571317391600,3.4123916015625,-0.8883819580078125,-0.0295867919921875,0.032379150390625
1776228571337243600,3.43224365234375,-0.8856658935546875,-0.03399658203125,0.00006103515625
1776228571357094400,3.452094482421875,-1.0826568603515625,-0.04095458984375,0.0001373291015625
1776228571376945700,3.471945556640625,-1.0209197998046875,-0.0061492919921875,0.0233917236328125
1776228571396796700,3.491796630859375,-0.966339111328125,-0.0346832275390625,0.0072021484375
1776228571416647700,3.511647705078125,-0.974273681640625,-0.02288818359375,-0.007965087890625
1776228571436498700,3.531498779296875,-0.9972686767578125,-0.0251617431640625,0.0081024169921875
1776228571456349700,3.551349609375,-0.9967193603515625,-0.0214385986328125,0.015106201171875
1776228571476200700,3.57120068359375,-0.9984130859375,-0.0303955078125,0.0070953369140625
1776228571496051500,3.591051513671875,-0.9931640625,-0.0189971923828125,0.0028533935546875
1776228571515902700,3.61090283203125,-0.9937591552734375,-0.0270843505859375,0.0084228515625
1776228571535753700,3.630753662109375,-0.9890899658203125,-0.026824951171875,0.012359619140625
1776228571555604700,3.650604736328125,-0.992828369140625,-0.0269927978515625,0.0060882568359375
1776228571575455700,3.670455810546875,-0.972991943359375,-0.0193328857421875,0.0121002197265625
1776228571595306800,3.690306640625,-1.0080413818359375,-0.031005859375,-0.0084228515625
1776228571615157500,3.710157470703125,-1.0069427490234375,-0.0269927978515625,0.0075225830078125
1776228571635009000,3.730009033203125,-1.0010986328125,-0.019012451171875,0.004791259765625
1776228571654861300,3.749861328125,-0.9840850830078125,-0.02825927734375,-0.005035400390625
1776228571674712000,3.769712158203125,-0.976959228515625,-0.0282440185546875,0.0057525634765625
1776228571694563000,3.78956298828125,-1.0137481689453125,-0.033416748046875,0.017303466796875
1776228571714414000,3.8094140625,-1.036163330078125,0.01397705078125,-0.004852294921875
1776228571734265000,3.82926513671875,-0.880401611328125,-0.0780029296875,0.0345611572265625
1776228571754116000,3.8491162109375,-1.0875091552734375,-0.0396728515625,-0.0228729248046875
