time,seconds_elapsed,z,y,x
1776228567981186600,0.0761865234375,-9.744935009843111,-0.9398262237463146,-0.5686451426515355
1776228568001037600,0.09603759765625,-9.750889534333348,-0.8403680706504731,-0.6199360251560807
1776228568020888600,0.115888671875,-9.761880299425124,-0.6366369845882057,-0.6861257495742291
1776228568040739600,0.135739501953125,-9.77121394495964,-0.3286548851303756,-0.7653413251083344
1776228568060590600,0.155590576171875,-9.764873636022209,0.021343924116471315,-0.9039752312295138
1776228568080441600,0.175441650390625,-9.742722009968757,0.3090187124965712,-1.0743659924216569
1776228568100292400,0.195292236328125,-9.716498019909858,0.5212293845472857,-1.219989465169236
1776228568120143400,0.215143310546875,-9.683131172358989,0.7314276573296636,-1.3683460161425172
1776228568139993300,0.234993408203125,-9.633916182813048,0.9979943350765853,-1.5368980176001785
1776228568159844600,0.2548447265625,-9.578760112780332,1.3021264080427586,-1.6499106487959623
1776228568179695600,0.274695556640625,-9.534462121370435,1.59858962688148,-1.64588197780177
1776228568199546600,0.294546630859375,-9.50774479483664,1.7925800209783016,-1.5999480557531118
1776228568219397600,0.314397705078125,-9.49825157482624,1.7934221708908675,-1.654459982663393
1776228568239248600,0.33424853515625,-9.521253095707296,1.6498254547305404,-1.6715848665960131
1776228568259099400,0.354099365234375,-9.569715805581211,1.4793646970421075,-1.54996909609735
1776228568278950400,0.373950439453125,-9.629062313041091,1.2700650901325046,-1.3559059290252624
1776228568298801400,0.393801513671875,-9.683177349588274,1.0030006189312786,-1.1834084048122167
1776228568318652700,0.413652587890625,-9.733356215730309,0.6914814313884824,-0.9767371736448257
1776228568338503700,0.433503662109375,-9.770340084734558,0.35467381760384886,-0.7648856902953237
1776228568358354700,0.453354736328125,-9.786252524137497,-0.014810181816038675,-0.6320015798725187
1776228568378205400,0.473205322265625,-9.771876792782544,-0.4514898586930707,-0.6906227687325328
1776228568398056400,0.493056396484375,-9.725731127679348,-0.9105522715322673,-0.8668538534507155
1776228568417907500,0.512907470703125,-9.654300799193978,-1.3330579912707208,-1.0898712392631917
1776228568437758500,0.532758544921875,-9.57387818595767,-1.639001570638269,-1.3508933615602552
1776228568457609500,0.552609375,-9.487402848553657,-1.9029826158061622,-1.5931801690533756
1776228568477460700,0.572460693359375,-9.38905470252633,-2.157493091186881,-1.8333735113985836
1776228568497311500,0.5923115234375,-9.278985139045119,-2.4040827104404565,-2.07152292682603
1776228568517161700,0.61216162109375,-9.157917211687565,-2.642973884145915,-2.305996576350182
1776228568537012500,0.632012451171875,-9.026775049561262,-2.874389899665117,-2.5348759129986167
1776228568556863500,0.651863525390625,-8.886123885333538,-3.100990331596136,-2.7551854280918837
1776228568576714500,0.671714599609375,-8.73822581871748,-3.318281667912006,-2.9669515712454912
1776228568596565500,0.6915654296875,-8.584121883198618,-3.528318795315921,-3.167681064338982
1776228568616416500,0.71141650390625,-8.425431788933277,-3.732296768811345,-3.354466787753999
1776228568636267500,0.731267578125,-8.264124205645919,-3.9304727780297397,-3.525056870910525
1776228568656118300,0.7511181640625,-8.103032895457744,-4.123218871153891,-3.6756373084783553
1776228568675969300,0.77096923828125,-7.944867117327451,-4.310936322461068,-3.803326407541334
1776228568695820300,0.7908203125,-7.792398089534044,-4.493010799445211,-3.906631883715093
1776228568715671300,0.81067138671875,-7.648037549394369,-4.669350239908695,-3.9843548826038835
1776228568735522600,0.8305224609375,-7.513627909904718,-4.8394458175465465,-4.036773344366252
1776228568755373600,0.85037353515625,-7.390839734625816,-5.002141932582855,-4.065027378948033
1776228568775224300,0.870224365234375,-7.28135586207807,-5.156912807577848,-4.069212847939133
1776228568795075300,0.890075439453125,-7.18650198790729,-5.303375288432836,-4.049540179219842
1776228568814926300,0.90992626953125,-7.107175353214144,-5.440995706662536,-4.006745578110218
1776228568834777300,0.92977734375,-7.044447386622428,-5.5684390142709015,-3.9419071952357885
1776228568854628400,0.94962841796875,-6.999432186853885,-5.684431538060307,-3.855590555524826
1776228568874478300,0.969478271484375,-6.972960944035649,-5.787122097206115,-3.7493230146750807
1776228568894329300,0.989329345703125,-6.974881098443269,-5.866920441064238,-3.6194834595799446
1776228568914180400,1.009180419921875,-8.240631101855636,-4.305904758034647,-3.117943219962716
1776228568934031400,1.02903125,-9.805013923230767,0.018606313562835566,-0.17814325674874706
1776228568953882400,1.04888232421875,-9.601607904404402,1.3969295749396085,1.4241114502452312
1776228568973733400,1.0687333984375,-9.700048404890298,0.9383278018821031,1.0949823717318474
1776228568993584400,1.08858447265625,-9.799425893965363,-0.002470476629360928,0.37633747747726737
1776228569013435400,1.108435302734375,-9.752456637519597,-0.9604613808222114,-0.37078846504800017
1776228569033286400,1.128286376953125,-9.556929389244317,-1.9040194115079938,-1.1000860515464097
1776228569053137400,1.148137451171875,-9.278814458653331,-2.726193142363429,-1.6253784112162888
1776228569072988400,1.167988525390625,-9.188721515274047,-3.1166908818140624,-1.4226780564412473
1776228569092839400,1.18783935546875,-9.335682593300938,-2.9740181486308574,-0.4130737649286166
1776228569112690400,1.2076904296875,-9.500419566515088,-2.307726322752237,0.7660326683733611
1776228569132541400,1.22754150390625,-9.651125676289201,-1.0844728142857551,1.3601757152989506
1776228569152392400,1.247392333984375,-9.772795076671242,0.22231192269055172,0.7832231648880988
1776228569172243500,1.267243408203125,-9.802777542480825,0.2529271517120302,-0.10938240320095792
1776228569192094200,1.28709423828125,-9.802966927573085,-0.13223458787235431,0.2339524569279514
1776228569211945200,1.3069453125,-9.798924374184011,-0.2798334066803567,0.2704857143541798
1776228569231795200,1.326795166015625,-9.802869312417506,-0.24455946513283996,0.1196914057068061
1776228569251646200,1.346646240234375,-9.80413129517734,-0.2058879353025928,0.08369213642627
1776228569271497500,1.36649755859375,-9.803409410643576,-0.23286265239724888,0.09656940025123767
1776228569291348500,1.386348388671875,-9.802749485430121,-0.24524169350964947,0.12783876406620256
1776228569311199500,1.406199462890625,-9.803262111127376,-0.22715601998716592,0.12180502772675826
1776228569331050500,1.426050537109375,-9.802963420441746,-0.22342114430777726,0.1495937646180391
1776228569350901200,1.4459013671875,-9.802830733972787,-0.2358177758757956,0.13885460880030878
1776228569370752300,1.465752197265625,-9.803002583408356,-0.23880218024775385,0.12042175667481496
1776228569390603300,1.485603271484375,-9.803035316634178,-0.2287606056395918,0.13621574819670057
1776228569410454500,1.50545458984375,-9.803169172146916,-0.21914182302076368,0.14226273674336262
1776228569430305500,1.525305419921875,-9.803201320850848,-0.21840987375071272,0.14115264747645706
1776228569450156500,1.545156494140625,-9.803155728143453,-0.22201666607102377,0.13865650154547765
1776228569470007300,1.56500732421875,-9.803156312665342,-0.22416463788514956,0.13511817135149612
1776228569489858300,1.5848583984375,-9.803006675061583,-0.22919930758411064,0.13752356112594716
1776228569509709300,1.604709228515625,-9.802946469306946,-0.23219425161639226,0.13679079900514335
1776228569529560300,1.624560302734375,-9.802964004963636,-0.23209460890050976,0.13570870285686104
1776228569549411300,1.644411376953125,-9.802988554883003,-0.23134335214179008,0.1352158961049281
1776228569569262600,1.6642626953125,-9.80303122498095,-0.22853205758072434,0.13687069584093986
1776228569589113600,1.684113525390625,-9.803071556991338,-0.22570165646038948,0.13868700628159567
1776228569608964400,1.70396435546875,-9.80312241039574,-0.22343513630051165,0.13873124728212133
1776228569628814300,1.723814453125,-9.803124748483299,-0.2232250920127146,0.13891165448348036
1776228569648665300,1.743665283203125,-9.80310429021716,-0.22462516806898639,0.1381031876448076
1776228569668516400,1.763516357421875,-9.80304700707197,-0.226854881616123,0.13853959716754033
1776228569688367400,1.783367431640625,-9.80301193575859,-0.22893042751485482,0.1375906806785613
1776228569708218400,1.80321826171875,-9.803007259583472,-0.23021529795993118,0.13575108069386332
1776228569728069400,1.8230693359375,-9.80301193575859,-0.23020505056055263,0.1354684460938908
1776228569747920400,1.84292041015625,-9.80301310480237,-0.22945826904755084,0.13661203577159903
1776228569767771100,1.862771240234375,-9.803051683247089,-0.22768433644389732,0.13684491294571197
1776228569787622100,1.8826220703125,-9.803082078385353,-0.22611230135420335,0.13727239937647245
1776228569807473400,1.902473388671875,-9.803094353345037,-0.2253756759090349,0.1375801318850834
1776228569827324400,1.922324462890625,-9.803076817688344,-0.22603498006798325,0.13776144326874054
1776228569847175400,1.942175537109375,-9.803054605856538,-0.22743620690172536,0.13702702804696745
1776228569867026400,1.9620263671875,-9.803040577331185,-0.2287045280708,0.1359391232124064
1776228569886877200,1.981877197265625,-9.803026548805832,-0.2297338163196109,0.13519664341518656
1776228569906728200,2.001728271484375,-9.803008428627251,-0.23045889745745807,0.1352516615380533
1776228569926579200,2.0215791015625,-9.803017780977488,-0.22991026886506005,0.1355109700613655
1776228569946430200,2.04143017578125,-9.803042330896854,-0.228766213396471,0.13570769820986314
1776228569966281500,2.061281494140625,-9.803059282031654,-0.22776618777476249,0.13613033493557014
1776228569986132500,2.081132568359375,-9.80306980342567,-0.22726638502646238,0.136239631395787
1776228570005983200,2.100983154296875,-9.80306921890378,-0.22751316286176443,0.13586168319517747
1776228570025834200,2.120834228515625,-9.803059866553545,-0.22831485289977863,0.13517923562265932
1776228570045685200,2.140685302734375,-9.803043499940634,-0.22942301507107912,0.13447381816650741
1776228570065536300,2.160536376953125,-9.80303239402473,-0.22998817467316984,0.13433992612115106
1776228570085387300,2.18038720703125,-9.80302947141528,-0.23032027443805708,0.13398459161114878
1776228570105238300,2.20023828125,-9.803044668984413,-0.22996351515594868,0.13347850525253452
1776228570125089300,2.22008935546875,-9.803068634381889,-0.22924371298141777,0.13296383372866546
1776228570144940300,2.239940185546875,-9.80308733908236,-0.22863272320991382,0.13263506756518034
1776228570164791300,2.259791259765625,-9.803097275954485,-0.22848010819777845,0.13216555949044412
1776228570184642300,2.279642333984375,-9.803100198563932,-0.22886187405698,0.13128787247361615
1776228570204493300,2.299493408203125,-9.80308909264803,-0.229734199912101,0.13056175015615298
1776228570224343300,2.31934326171875,-9.803091430735588,-0.23071099078869445,0.12866414550705813
1776228570244194300,2.3391943359375,-9.803075648644565,-0.23159606652753426,0.12829501993372106
1776228570264045300,2.35904541015625,-9.803100783085823,-0.23137593923714012,0.12676740850764326
1776228570283896300,2.378896240234375,-9.803113642567396,-0.23092319050095975,0.12657020543511024
1776228570303747300,2.398747314453125,-9.803139361530542,-0.23039394246246664,0.12555926569374276
1776228570323598300,2.418598388671875,-9.80314286866188,-0.2301157283092849,0.12578578619230538
1776228570343449300,2.438449462890625,-9.803150467446446,-0.23034347265055402,0.1247842718664091
1776228570363300400,2.45830029296875,-9.803142284139991,-0.23076518692765383,0.12464713755119591
1776228570383151400,2.4781513671875,-9.803151051968335,-0.2310524063711986,0.1234231487141922
1776228570403002400,2.49800244140625,-9.803135854399203,-0.23196431531803682,0.12287980821826494
1776228570422853000,2.51785302734375,-9.803145791271328,-0.2323155947074294,0.12143575602294876
1776228570442704100,2.5377041015625,-9.80316215788424,-0.23271352625014258,0.11931534806918352
1776228570462555400,2.557555419921875,-9.80319722919762,-0.2320011584633961,0.11782259789393283
1776228570482406400,2.577406494140625,-9.803213011288642,-0.2323425923122093,0.11584886840186082
1776228570502257400,2.59725732421875,-9.803245744514465,-0.23219479960566386,0.11332494854796678
1776228570522108400,2.6171083984375,-9.803243990948795,-0.23350144349113106,0.11075544511983171
1776228570541959200,2.636959228515625,-9.803246329036355,-0.2345302568159066,0.10833945175297557
1776228570561810200,2.65681005859375,-9.803246913558244,-0.23557052311645818,0.10601159332729876
1776228570581661200,2.6766611328125,-9.803269125390052,-0.23588810116564854,0.10321125855166464
1776228570601512200,2.69651220703125,-9.803290168178082,-0.23637029519202185,0.10008048624526708
1776228570621363500,2.716363525390625,-9.803349789410829,-0.23544220229536295,0.09638176872464828
1776228570641213700,2.736213623046875,-9.803349789410829,-0.23217216764874754,0.10396749287960119
1776228570661064700,2.756064697265625,-9.803373170286417,-0.22857624378232283,0.10959554362813942
1776228570680916500,2.77591650390625,-9.803229377901554,-0.2291939555555582,0.12062700605648569
1776228570700767700,2.795767822265625,-9.802981540620326,-0.2300638154589571,0.13785196196325122
1776228570720618800,2.81561865234375,-9.802911982515454,-0.2275422976247035,0.1467031760093756
1776228570740469800,2.8354697265625,-9.802911397993563,-0.22758626463059334,0.14668869995945133
1776228570760320800,2.85532080078125,-9.802897369468212,-0.22770972661348057,0.14741141561027615
1776228570780171500,2.875171630859375,-9.80292016582191,-0.2280064993366599,0.14544655441124923
1776228570800022500,2.8950224609375,-9.802932440781593,-0.22728059621490537,0.14573494289857333
1776228570819873500,2.91487353515625,-9.802945300263167,-0.22618058081744238,0.14658286496479994
1776228570839724500,2.934724609375,-9.802943546697497,-0.22522530765291301,0.14817806173437273
1776228570859575800,2.954575927734375,-9.802208802682161,-0.24555481457943096,0.1636773811586201
1776228570879426800,2.9744267578125,-9.801180044156313,-0.2741290940915234,0.17919873888473956
1776228570899277600,2.994277587890625,-9.801157247802614,-0.27196654576277357,0.18368235057219862
1776228570919128600,3.014128662109375,-9.801847568154335,-0.24585640960820018,0.18363105877637861
1776228570938979600,3.0339794921875,-9.80246949944496,-0.2178865805289708,0.185760873879306
1776228570958830600,3.05383056640625,-9.802205880072712,-0.22758610023381187,0.18799968404835088
1776228570978681600,3.073681640625,-9.802163209974765,-0.23556409337567163,0.18025688790185376
1776228570998532600,3.09353271484375,-9.802483527970313,-0.22544070396926252,0.17571513455267995
1776228571018383600,3.113383544921875,-9.802538473027944,-0.22550209703398866,0.1725415277515538
1776228571038234600,3.133234619140625,-9.802500479105115,-0.23041449206015094,0.16815600614370776
1776228571058085600,3.153085693359375,-9.802536134940386,-0.22892735877493395,0.16812794909300283
1776228571077936600,3.1729365234375,-9.802543149203062,-0.22723641001330688,0.16998051815712822
1776228571097787600,3.19278759765625,-9.802523275458812,-0.22784708925755692,0.1703288018718362
1776228571117638700,3.212638671875,-9.802498725539445,-0.2289880577199161,0.17019806989794595
1776228571137489700,3.23248974609375,-9.802504570758343,-0.23015838014092296,0.16827009751005098
1776228571157340400,3.25234033203125,-9.802515092152357,-0.2301688650023192,0.16764619345804677
1776228571177191700,3.272191650390625,-9.802510415977238,-0.22932519898610187,0.16906303798602892
1776228571197042700,3.292042724609375,-9.802492880320548,-0.22898456885488702,0.17054054492637513
1776228571216893700,3.311893798828125,-9.802460147094726,-0.2303889374937862,0.1705210547746159
1776228571236745500,3.331745361328125,-9.801808405187725,-0.24589864131473002,0.18567315906323492
1776228571256596500,3.351596435546875,-9.800053670474886,-0.29247489812122657,0.20925273556057364
1776228571276447500,3.371447509765625,-9.80179963735938,-0.2531326476888731,0.17616768235946073
1776228571296298800,3.391298828125,-9.802889186161757,-0.21255150311132892,0.169024587405473
1776228571316149800,3.411149658203125,-9.802074947169423,-0.2406159516714513,0.1783764444501139
1776228571336000800,3.431000732421875,-9.802313432100414,-0.2497569789770059,0.15054004162536003
1776228571355851800,3.450851806640625,-9.802729611685871,-0.23342326368838548,0.14962997757573612
1776228571375702500,3.47070263671875,-9.802663560712338,-0.2361063287599012,0.14976266404469496
1776228571395553500,3.490553466796875,-9.80273428786099,-0.2417945669967681,0.13535845551392994
1776228571415404500,3.510404541015625,-9.802839501801133,-0.23929867679411543,0.13211074229697697
1776228571435255600,3.530255615234375,-9.802822550666331,-0.23905001752898095,0.13384672664357347
1776228571455106800,3.55010693359375,-9.802810860228538,-0.23933911840235814,0.13416447822269983
1776228571474957800,3.569957763671875,-9.802833072060347,-0.23863977449396623,0.13380772807374597
1776228571494808600,3.58980859375,-9.802847685107588,-0.23985623761164024,0.1304973979493603
1776228571514659600,3.60965966796875,-9.802836579191684,-0.24081364793432875,0.12958495927955954
1776228571534510600,3.629510498046875,-9.802831318494677,-0.24097110351836307,0.12968841052087954
1776228571554361600,3.649361572265625,-9.802854114848374,-0.24148475212892517,0.12697426532451062
1776228571574212600,3.669212646484375,-9.802928349128365,-0.24554697833284733,0.11262009734739549
1776228571594064600,3.689064697265625,-9.802953483569622,-0.2481875925021246,0.1043592960756272
1776228571613915600,3.70891552734375,-9.802965758529306,-0.2471027564074844,0.10578608660888858
1776228571633767200,3.72876708984375,-9.803001414364577,-0.24687013496169818,0.10297988834804854
1776228571653618200,3.7486181640625,-9.802904968252777,-0.2486718323551118,0.10772670841580256
1776228571673469200,3.76846923828125,-9.802871650505065,-0.24881830988740547,0.11034751277291216
1776228571693320000,3.78831982421875,-9.802833656582235,-0.24901903835758565,0.11323047519754617
1776228571713171200,3.808171142578125,-9.801447755181789,-0.283903633527644,0.14630890686162745
1776228571733022200,3.828022216796875,-9.800909410521388,-0.3029609468275681,0.14411410936424507
1776228571752873200,3.847873291015625,-9.802644856011867,-0.25796675331443547,0.10951322650639339
1776228571772724200,3.86772412109375,-9.803009597671032,-0.24189945214334874,0.1134471592886839
