time,seconds_elapsed,z,y,x
1776232825518698200,0.0936982421875,0.23502585291862488,-0.6560277342796326,0.2693873345851898
1776232825538553300,0.11355322265625,0.007941694930195808,-1.0772931575775146,0.10916449129581451
1776232825558408200,0.133408203125,-0.47223952412605286,-1.2369149923324585,-0.10566389560699463
1776232825578262300,0.15326220703125,-0.6315758228302002,-1.1172903776168823,-0.10938157141208649
1776232825598117400,0.173117431640625,-0.5688750743865967,-0.5955349206924438,-0.009304424747824669
1776232825617972500,0.192972412109375,-0.3611225187778473,-0.49873870611190796,0.14804090559482574
1776232825637826600,0.21282666015625,-0.048904839903116226,-0.6884570717811584,0.33648785948753357
1776232825657681200,0.23268115234375,0.3121432363986969,-0.6634923219680786,0.5567436814308167
1776232825677535200,0.25253515625,0.6086220145225525,-0.5266059637069702,0.8395271897315979
1776232825697390300,0.272390380859375,0.8037583231925964,-0.32847893238067627,1.0978221893310547
1776232825717245400,0.292245361328125,0.9622167348861694,-0.1022949144244194,1.2295156717300415
1776232825737099500,0.312099609375,1.106978416442871,-0.2859343886375427,1.1797491312026978
1776232825756954400,0.331954345703125,1.1251660585403442,-0.5155982375144958,1.0467634201049805
1776232825776808200,0.35180810546875,1.0241738557815552,-0.556349515914917,0.8783242106437683
1776232825796663300,0.371663330078125,0.30575940012931824,-0.4973112940788269,0.8746575117111206
1776232825816518400,0.391518310546875,-0.19285205006599426,-0.44031983613967896,1.2091166973114014
1776232825836372500,0.41137255859375,0.18216094374656677,-0.2884088158607483,1.4714516401290894
1776232825856227300,0.431227294921875,0.40402668714523315,-0.16720333695411682,1.6571476459503174
1776232825876082400,0.45108251953125,0.44487056136131287,0.08219154924154282,1.6997913122177124
1776232825895936300,0.470936279296875,0.4431608021259308,0.1277589201927185,1.7200638055801392
1776232825915791400,0.490791259765625,0.3793680965900421,0.16121073067188263,1.647721767425537
1776232825935645400,0.5106455078125,0.2850654125213623,0.18699415028095245,1.42098867893219
1776232825955500300,0.530500244140625,0.2648458778858185,0.13654029369354248,0.9591684937477112
1776232825975355400,0.55035546875,0.16624963283538818,0.10196252912282944,0.5207597613334656
1776232825995209200,0.570209228515625,-0.023957477882504463,-0.08615393191576004,0.32369935512542725
1776232826015064300,0.590064208984375,-0.1368744820356369,-0.10600335150957108,0.31216564774513245
1776232826034918400,0.60991845703125,-0.07066356390714645,0.21553243696689606,0.39543330669403076
1776232826054773200,0.629773193359375,0.13990527391433716,0.5373695492744446,0.5065509080886841
1776232826074628400,0.64962841796875,0.15610603988170624,0.7669526934623718,0.3851850628852844
1776232826094482400,0.669482421875,0.017655987292528152,0.7465074062347412,-0.034693192690610886
1776232826114337500,0.689337646484375,-0.09188365936279297,0.4462378919124603,-0.48320960998535156
1776232826134191400,0.70919140625,-0.08777888119220734,0.21176837384700775,-0.752321183681488
1776232826154046200,0.729046142578125,-0.10417092591524124,0.6874490976333618,-0.9728913903236389
1776232826173901300,0.7489013671875,-0.2352581024169922,1.2619694471359253,-1.1476529836654663
1776232826193755400,0.76875537109375,-0.25697654485702515,1.1426619291305542,-1.3211431503295898
1776232826213609000,0.78860888671875,-0.4170496165752411,0.8539820909500122,-1.6773681640625
1776232826233463000,0.808463134765625,-0.607846200466156,0.9168065786361694,-1.9551043510437012
1776232826253318100,0.828318115234375,-0.5222310423851013,1.2224785089492798,-1.8585468530654907
1776232826273172700,0.8481728515625,-0.48053449392318726,1.9128904342651367,-1.5730259418487549
1776232826293026800,0.86802685546875,-0.021811431273818016,2.339728593826294,-1.331220030784607
1776232826312882000,0.8878818359375,0.1293197125196457,2.6145715713500977,-1.1523240804672241
1776232826332737000,0.907737060546875,0.12705573439598083,2.970741033554077,-0.8941956758499146
1776232826352591000,0.927591064453125,0.3279615342617035,3.70808744430542,-0.43111175298690796
1776232826372446000,0.947446044921875,0.4649580121040344,4.011049270629883,0.3044179379940033
1776232826392299800,0.9672998046875,0.6607181429862976,3.8677051067352295,1.0784424543380737
1776232826412155000,0.98715478515625,0.6235049962997437,3.8029539585113525,1.666161060333252
1776232826432010000,1.007010009765625,0.42443177103996277,3.809009075164795,1.661879539489746
1776232826451864000,1.026864013671875,0.6694294214248657,3.364084005355835,1.674179196357727
1776232826471719000,1.046718994140625,0.8033562898635864,2.994995594024658,1.7734040021896362
1776232826491572700,1.06657275390625,1.0204097032546997,2.7682197093963623,1.362319827079773
1776232826511427800,1.086427734375,1.6572824716567993,2.603288173675537,0.947426438331604
1776232826531283000,1.106282958984375,2.0423545837402344,2.282768964767456,1.2529544830322266
1776232826551137000,1.126136962890625,2.389993667602539,2.473458766937256,2.3216540813446045
1776232826570991900,1.145991943359375,2.5899410247802734,2.5255818367004395,3.6527860164642334
1776232826590847000,1.165846923828125,2.4802563190460205,2.590104579925537,5.073075771331787
1776232826610700800,1.18570068359375,3.4265646934509277,3.0711843967437744,6.067226886749268
1776232826630556000,1.205555908203125,4.376120567321777,2.4861626625061035,5.5076823234558105
1776232826650410000,1.225409912109375,4.986691951751709,1.8009727001190186,4.10673713684082
1776232826670264800,1.245264892578125,4.928813457489014,0.9255405068397522,2.209376811981201
1776232826690120000,1.265119873046875,3.6767520904541016,-1.2637014389038086,1.6494735479354858
1776232826709974000,1.28497412109375,2.357591390609741,-3.5401129722595215,1.494825005531311
1776232826729829000,1.3048291015625,1.8965520858764648,-4.4170684814453125,0.86529541015625
1776232826749683000,1.324682861328125,1.3443742990493774,-4.1717848777771,0.9078822135925293
1776232826769538000,1.3445380859375,0.4239049255847931,-2.898057222366333,1.7661597728729248
1776232826789393000,1.364392822265625,-0.22580501437187195,-1.296115756034851,2.519840717315674
1776232826809247000,1.3842470703125,-0.39216160774230957,2.3986735343933105,2.3151497840881348
1776232826829102000,1.40410205078125,-0.7228025197982788,4.3817138671875,2.2972779273986816
1776232826848957200,1.423957275390625,0.035410258919000626,1.1374655961990356,2.4788591861724854
1776232826868811000,1.44381103515625,0.2469896525144577,1.7181233167648315,5.2200727462768555
1776232826888665900,1.463665771484375,1.6599047183990479,6.220903396606445,8.488506317138672
1776232826908520000,1.48352001953125,3.7957494258880615,4.925634384155273,8.206742286682129
1776232826928375000,1.503375,2.2900853157043457,12.21619987487793,3.43503475189209
1776232826948230100,1.523230224609375,-1.5352369546890259,7.817707538604736,-1.412796974182129
1776232826968084000,1.543083984375,-2.200134038925171,5.521016597747803,-5.194079875946045
1776232826987938800,1.562938720703125,-1.202455759048462,2.7561144828796387,-3.4234933853149414
1776232827007793000,1.58279296875,-0.7928951382637024,1.0930780172348022,-1.2472811937332153
1776232827027648000,1.60264794921875,-1.1362870931625366,0.3580600917339325,-1.3744714260101318
1776232827047503000,1.622503173828125,-0.431255578994751,-0.29080721735954285,-2.08371901512146
1776232827067357200,1.642357177734375,0.581056535243988,-0.4007018208503723,-0.09110936522483826
1776232827087211800,1.662211669921875,0.5201506018638611,-0.1650998890399933,0.851749062538147
1776232827107067000,1.68206689453125,0.2636835277080536,0.2705104351043701,0.09999315440654755
1776232827126921000,1.7019208984375,0.04814792051911354,0.11933235824108124,-0.2190033197402954
1776232827146776000,1.721776123046875,-0.055702973157167435,-0.24250619113445282,0.19884969294071198
1776232827166630100,1.741630126953125,-0.0178663432598114,-0.43405649065971375,0.2145635038614273
1776232827186485000,1.761485107421875,-0.18236887454986572,-0.53851717710495,0.16687195003032684
1776232827206340000,1.781340087890625,-0.2678018808364868,-0.5385072827339172,0.1617785096168518
1776232827226193700,1.801193603515625,0.0036725655663758516,-0.1623643934726715,0.14173616468906403
1776232827246048800,1.821048828125,0.2332310527563095,0.14854946732521057,0.050994422286748886
1776232827265902800,1.84090283203125,0.00875642616301775,0.3604877293109894,0.16148555278778076
1776232827285757700,1.8607578125,-0.33820536732673645,0.006217036861926317,0.06503584235906601
1776232827305612800,1.88061279296875,-0.35065633058547974,-0.174332395195961,0.047597821801900864
1776232827325466600,1.900466552734375,-0.06285600364208221,0.13366426527500153,0.14375153183937073
1776232827345321700,1.92032177734375,0.09191317111253738,0.16105125844478607,0.12644211947917938
1776232827365176600,1.940176513671875,0.13982520997524261,0.12731076776981354,0.24611066281795502
1776232827385030700,1.96003076171875,0.097968690097332,0.1605270653963089,0.22656823694705963
1776232827404885800,1.9798857421875,0.024296361953020096,0.23839186131954193,0.055105458945035934
1776232827424739600,1.999739501953125,0.16466611623764038,0.11019690334796906,-0.11838791519403458
1776232827444594700,2.0195947265625,0.5371100306510925,0.30182287096977234,-0.2756137549877167
1776232827464449500,2.039449462890625,0.670367419719696,0.6700814366340637,-0.4764857888221741
1776232827484303600,2.0593037109375,0.9821847677230835,0.2402178943157196,-0.9272449612617493
1776232827504158700,2.07915869140625,0.9738608598709106,-0.3008807599544525,-1.2207739353179932
1776232827524012800,2.0990126953125,0.6308550238609314,-0.9564864635467529,-1.4887555837631226
1776232827543867600,2.11886767578125,0.3773644268512726,-2.1670098304748535,-1.8343271017074585
1776232827563722500,2.138722412109375,-0.23553574085235596,-3.0567259788513184,-2.115100860595703
1776232827583576600,2.15857666015625,-0.9556425213813782,-4.157084941864014,-2.799682378768921
1776232827603431700,2.178431640625,-1.9354785680770874,-5.848324775695801,-3.846135139465332
1776232827623286800,2.198286865234375,-2.8026316165924072,-7.351413726806641,-4.48170280456543
1776232827643140900,2.218140869140625,-2.652202844619751,-7.567077159881592,-4.597350597381592
1776232827662995700,2.23799560546875,-2.865070343017578,-5.849740982055664,-5.076874256134033
1776232827682849500,2.257849609375,-4.566933631896973,-6.40793514251709,-7.353724479675293
1776232827702704600,2.27770458984375,-5.182341575622559,-7.6553263664245605,-8.595893859863281
1776232827722559700,2.297559814453125,-4.534034252166748,-7.053210258483887,-8.766826629638672
1776232827742413800,2.317413818359375,-2.9489786624908447,-5.403125286102295,-7.613729953765869
1776232827762268700,2.3372685546875,-1.9262917041778564,-5.492153644561768,-7.45180082321167
1776232827782123800,2.357123779296875,-1.2156271934509277,-6.2952070236206055,-7.6736836433410645
1776232827801977600,2.3769775390625,-1.338660717010498,-7.4693732261657715,-6.9633283615112305
1776232827821832700,2.396832763671875,-1.5192787647247314,-7.7945356369018555,-6.222014904022217
1776232827841686800,2.416686767578125,-1.1226019859313965,-6.17158317565918,-5.036759853363037
1776232827861541600,2.436541748046875,0.23003534972667694,-4.62091588973999,-3.9463579654693604
1776232827881396700,2.456396728515625,1.528444528579712,-2.3857064247131348,-2.7636146545410156
1776232827901250600,2.47625048828125,2.1024861335754395,-1.0493274927139282,-2.278242349624634
1776232827921105700,2.496105712890625,1.6471246480941772,-0.5492662787437439,-2.3955907821655273
1776232827940959700,2.515959716796875,0.3565484881401062,0.0545627661049366,-2.6315689086914062
1776232827960814600,2.535814697265625,-0.5716826319694519,0.1540670394897461,-2.1926345825195312
1776232827980669700,2.555669677734375,-1.8495365381240845,-0.7223854660987854,-1.9261963367462158
1776232828000523800,2.575523681640625,-3.47371506690979,-2.496244192123413,-1.3242857456207275
1776232828020378600,2.595378662109375,-3.7976090908050537,-3.2379794120788574,-0.8905988335609436
1776232828040233700,2.615233642578125,-2.471461534500122,-1.9669159650802612,-0.6528894305229187
1776232828060087800,2.635087890625,-1.6690109968185425,0.6698105931282043,-0.10596781969070435
1776232828079942700,2.654942626953125,-0.9581493735313416,0.8724786639213562,0.3106948137283325
1776232828099796700,2.674796630859375,-0.8265926241874695,0.6351704001426697,0.5479007959365845
1776232828119651800,2.69465185546875,-1.5468590259552002,-0.7277056574821472,0.17319318652153015
1776232828139507000,2.7145068359375,-2.31406569480896,-1.2880313396453857,-0.21165966987609863
1776232828159360800,2.73436083984375,-1.9595956802368164,-0.4818740487098694,-0.001668373472057283
1776232828179215600,2.754215576171875,-0.8925116658210754,0.0508362278342247,0.7614522576332092
1776232828199069700,2.774069580078125,-0.22133664786815643,-0.4181325435638428,0.8993708491325378
1776232828218925600,2.793925537109375,-0.4062739610671997,-0.8653425574302673,0.47788485884666443
1776232828238780400,2.813780517578125,-0.6732701063156128,-1.2175748348236084,0.06630121171474457
1776232828258634500,2.833634521484375,-0.7800962924957275,-0.980401337146759,-0.2894858717918396
1776232828278489600,2.853489501953125,-0.7581218481063843,-0.18239815533161163,-0.20966297388076782
1776232828298344700,2.8733447265625,-0.478799045085907,0.35252460837364197,0.1696780025959015
1776232828318198800,2.89319873046875,-0.2614254355430603,-0.13728411495685577,0.2654604911804199
1776232828338053400,2.913053466796875,-0.20778319239616394,-0.7294949889183044,-0.007361685391515493
1776232828357907500,2.932907470703125,-0.3180884122848511,-0.8978545665740967,-0.12362540513277054
1776232828377762600,2.952762451171875,-0.3158859312534332,-0.4546530842781067,-0.18568818271160126
1776232828397617700,2.97261767578125,-0.27917248010635376,-0.20366831123828888,-0.05467486009001732
1776232828417471700,2.9924716796875,-0.012482480145990849,0.1970372200012207,0.3943718373775482
1776232828437326600,3.01232666015625,-0.025563057512044907,0.4179103970527649,0.49802452325820923
1776232828457181700,3.032181640625,-0.03881837800145149,0.08724305778741837,0.33622798323631287
1776232828477035500,3.052035400390625,-0.16151835024356842,-0.2779933512210846,0.040694404393434525
1776232828496890600,3.071890625,-0.16130970418453217,-0.3166418969631195,-0.03617948293685913
