timestamp_ms,acc_x,acc_y,acc_z,gyro_x,gyro_y,gyro_z,baro_m
0,0.03818163948525274,-0.009087858040106865,0.9216263100618288,-4.997278904870787,-11.773541138705081,27.361828256352563,99.998354138159
20,-0.014507475969722218,-0.01701178445921745,0.9557861578213919,19.696931691134058,-28.381873226052733,11.584582244066356,100.011001940135
40,0.02152195449203149,0.06570903722065123,1.044925690022886,-5.236457236621206,-3.6073175581804753,3.2272677984240214,100.02520401932048
60,-0.013594746973726257,0.03824489874215041,1.0318669836589907,-18.401023322098954,-16.95539619286263,-9.517288208981192,100.01012765915694
80,-0.03429627240057181,0.04512875027422659,1.0550226844855095,-11.06689866822736,-22.150391421373268,11.744806730726925,99.98562010006022
100,-0.008341557333363702,0.03690641229973244,1.0298648400170551,-1.535741499064313,3.9242547389887914,13.72357170806551,99.98924012023994
120,-0.0005067806063259213,-0.009235609353386307,0.9957891764431963,2.653056530537449,-16.33303079944224,-7.502681147061065,100.01524426250337
140,0.011056346138627056,0.02642182740369994,0.9706733882370233,14.79673665867907,-0.7202466849620796,-19.718258132205143,99.98859580842564
160,0.04496854604160973,0.03139018518358737,0.9978716000419318,-14.188931010451288,-18.204897769934256,4.8970265791597125,100.02728424761663
180,-0.06801348244329623,0.05413960533502785,0.9916785915700203,-11.979926413677779,-1.8982603676303769,-11.256925225422364,100.01823170585098
200,-0.0589781250781991,0.008030834995643606,1.0240776466742738,6.611472932515909,-15.774996772962133,9.1241495089325,99.97927941942918
220,-0.03027392997503476,0.04024453946359763,0.9721915181695016,-17.08277903597989,21.90203692630997,-10.181018169765045,99.99674085646673
240,0.05949231444056215,-0.01039079178792077,0.9975667692368945,1.8086618504317458,-18.77308356473441,-10.64658162222701,100.01643597553577
260,-0.04237100261746016,0.01129003280111044,0.9948631251400232,-11.421319121900652,4.570958418930498,7.797464478093078,99.97702018131646
280,0.013466081352065963,-0.02328801983062789,1.0353767160846985,-11.047497300955184,-6.6688874523634425,-2.240699587936186,99.97140117562196
300,-0.08272545150141772,-0.05048744062931219,1.0066382647658985,2.892536472989042,2.541768273246106,-13.39737292502126,100.01655633495928
320,0.022460528004072,-0.036232461551975265,1.0482034819712205,-13.309510584699135,-16.829926932964753,-14.717686867021213,100.03965675184918
340,0.018620682390850407,0.07642864381412169,1.003751995810517,-7.572983509079042,-6.524569196722654,15.11326222365319,99.99055789858934
360,-0.016303165005609146,-0.009550096984806796,0.9772577101839722,-6.7105037044070155,-14.026378741277943,-17.30515673509295,99.98105471017199
380,-0.02372806512906221,0.08922178399999295,0.950017259199611,8.31102050532658,-8.16507003280685,-10.534851754518336,99.99486535301848
400,0.06268189058165519,-0.017944323835693075,0.9167926118930971,-8.81637356285099,-10.367242885647704,-0.4535518240784274,100.00217769069181
420,0.005771910789943978,-0.0015521006592262075,1.0104364346674315,-3.0644570054204743,3.1796497009082456,-25.64794988154335,99.98380289541879
440,-0.03282269560883738,-0.018444349162837725,0.9646010229344976,7.0336315347289595,-17.052877052925563,3.923508393810013,100.00664581237884
460,-0.053591608678538086,-0.020431119318056773,0.902902885971639,12.791474996562222,-9.647684357488448,-5.255209916837212,99.99717966023032
480,-0.05041212749440849,-0.009611928322176723,1.0225952400236085,-14.985720559215359,-4.380082066348431,-1.5473065078282464,100.01055096075599
500,-0.005853523044757369,0.018244189531567347,1.0185083683176577,-13.28634819014934,10.16637703409851,11.205575442120445,99.99731140429475
520,0.02344885202634746,-0.06030862093295417,0.9922829110913435,10.713877424691235,-16.057627806802827,-19.391736934110234,99.96440255029913
540,-0.05485737249262125,0.06646421821035778,0.9512361269196337,3.1305852769137292,3.236547582063593,-25.193760133359316,99.99755610015181
560,0.009955116114710904,-0.11217651242789901,0.9966739104211103,3.651130784201367,-5.5660683988677,6.106364760411495,100.0100454340509
580,-0.023791451022449228,0.01751001240289139,1.0278244117963913,11.523747226190551,-7.124166975326856,17.047895460873903,100.02704825842706
600,0.09839189536821721,0.04419427501696539,0.9859562591036223,-5.0448915278705115,14.287309620502729,-12.651959340646442,99.96772572115258
620,-0.07165269617968086,-0.08499101409302234,0.931139450444278,19.80792877242258,-3.905564034304043,-12.569740846688234,100.0125570941731
640,0.01688317836054971,-0.041918384064141515,1.0800312774451826,4.8142369140742165,2.732480840234539,-4.206776671447165,99.99935936723297
660,-0.0598744943957831,0.005226274843461297,0.9582684852957345,10.0486975612792,4.401984782231697,9.248187200442192,100.0399402474613
680,-0.013514896989168088,-0.011755678202739789,0.9986600203059887,-7.492036281683019,2.7111290221604403,8.570692406114569,99.99078066354593
700,0.0016361833152768873,0.0006224044550600681,0.966565446281997,-3.485626495928045,-5.716974362159179,30.245875376054002,99.9856797364872
720,-0.008792335592543788,-0.008098816913335121,0.9145405735632743,-7.558721023015243,1.1636143589148469,12.581432110428462,100.00347766176229
740,0.08554332055516341,-0.06838965367775456,1.0361604862423301,-8.524796533181245,8.938167627764251,5.353508499491231,100.0068111836328
760,-0.01550100225326635,0.11045933808070917,0.9903959764527672,-8.45425373987111,16.53866475884423,10.82587370713068,99.99928791613821
780,-0.06633846194564054,-0.04968779833094358,1.0066397493369026,-7.817460730602418,7.448108051408239,-23.583243188963237,100.0125292246209
800,-0.012968695693469421,-0.0204846397569223,1.0664694131781378,20.123867827745137,3.3560816964928826,1.3619994829072966,100.01859092326595
820,0.011700763625700591,0.0002487818327904104,1.0455806411168276,14.273162420420688,2.553620079539577,5.8484054472277105,99.95924478435592
840,0.014738828102277786,0.01644420338954989,1.1264900467964518,-27.374555513273034,43.6355122302667,5.732903467279741,99.98108948381562
860,-0.024619627557207237,-0.027355346462813176,0.9897649868516537,4.851468100604107,0.5728257667786893,-16.8311968498131,100.01594789944649
880,-0.015994986580431355,-0.09699979592733203,0.9973361218694495,6.664234219536111,8.127103504157429,18.85256870334543,100.00267385619168
900,-0.015327160548012834,-0.033226965386023606,1.0455825291651943,-4.014324838193837,10.159981293631958,-5.3393324751901154,100.00099984739069
920,0.09869454561745666,0.014402540765798971,1.0276712889804103,-0.48170135732967057,-5.318018943592432,-1.2918376451317288,99.991338745221
940,0.014928536169013679,-0.05307689457052889,1.1185423411598454,4.530930686010283,-21.201228709891456,-6.3983211956337485,100.0041280819314
960,-0.030342532360819116,0.06447491090597035,0.9743573574510331,8.673059610596162,-3.8253733508453696,15.131153717563919,99.98885263461122
980,-0.01256253006955034,0.017626733618247747,0.9445627896251063,-14.792834796808918,6.289154968598282,-17.19751423405168,99.99852250627814
1000,0.060056130807697276,-0.08344230890551439,0.9865706621261546,-1.8164918454665493,-4.776281701141887,12.80218829344805,100.04795785505534
1020,0.0040670713842861856,0.016479019467748518,0.9713265892967189,-0.959942678107111,-10.5959608382121,-7.906018814891784,100.01798785177716
1040,0.036688719576760766,0.07504584039758158,0.9705362970949258,4.36865115602629,-15.257772614893769,-6.423062719716512,99.97074944916515
1060,-0.012522058037126511,0.03759834066075847,0.9638762746507438,0.5824421818558256,-17.27066152543543,8.162407226549902,99.96533049465488
1080,0.14130248422617545,-0.034224444230280586,0.9302167020130888,4.7272081315124,-11.29036752000757,14.921052590029978,100.01613031587681
1100,-0.03345332751521778,0.01297003729211789,0.9989521585090884,1.3894473141890462,-12.299954602020694,20.14256977298164,100.01560755434295
1120,-0.04105182284498221,0.009977551822912873,0.9713579146170631,-7.327696855814866,-15.599981820588496,-3.1704910238970343,99.97920580234312
1140,0.008343457414719204,-0.01947899582130925,0.9429352458563329,-4.983189160383492,-6.642662885352905,-2.5009980089204404,99.9945451986831
1160,0.008437483229949447,0.0329453750941829,1.0622811592947414,18.781887828794947,25.036010856999265,-5.6890076118545165,99.99454006398005
1180,0.05633893470792132,-0.000556235429748601,1.0308771504906173,-13.015938316487507,7.872051392485659,-16.64628206221995,100.01413482342245
1200,0.0018846286379546773,-0.0021760051065697634,0.9120142603732438,-2.9140116499358166,-6.129766741822615,15.965332888148131,99.99706409993702
1220,-0.02827532165606203,-0.01599015508767778,0.9566887640737273,-20.282699584643183,9.203697388811829,24.243857832316415,99.99440904291762
1240,0.07064219407954321,-0.00705920282961273,0.9479392470123175,-7.684260965862902,0.9418487789710412,14.815610773426886,99.98217021945275
1260,-0.0002978679215951404,-0.027130126294753087,1.0256218956012573,-13.458916821753926,34.368350377581194,2.2244580418265762,99.9970913388403
1280,0.05725323200790893,-0.08611140534931401,1.0996268840924013,-14.604829488076685,15.242400141495061,2.7633717441558194,100.03679803478894
1300,0.03362920558825718,0.01694431714394402,1.008915571638028,-2.966231645652084,-16.759524988630076,-1.2894891563069681,99.99552163222597
1320,-0.04848161574475327,0.04502027591113997,1.0095276081291529,-8.986689173836284,-1.4723160833996496,-3.7861000419802284,100.0258839966849
1340,-0.07947852985851461,-0.025781659669789233,0.9861559079388689,13.83836186876589,-4.61420200651694,-14.574542077938109,100.00439546217329
1360,0.07267929491626475,-0.10407596333814025,1.016459517412647,-3.9188940994987647,-3.5652936294123725,-15.135399113473085,100.0200902986513
1380,0.003000338930689219,-0.046611678512476065,1.032817786788336,-16.635401985809374,6.368004874387319,-9.786325839674248,99.97078556356578
1400,-0.0009510397622609666,0.10514375293863253,1.0542828445033559,5.868006752752892,-11.403358166729806,8.761974371973222,99.98280692231081
1420,0.003164906260235977,0.07384765527414888,0.9463136237254255,7.469760895099077,-15.440503539839053,6.166009927457584,99.98228227179912
1440,0.1122274629548805,0.00829863477771454,1.0224947627485983,-30.625125681877094,-12.09623006828409,-4.686635133748035,100.03086324713286
1460,0.04404258713015427,-0.009624325436559134,0.9923898408793067,-8.902632221861209,-10.235366556996173,-3.0219690137919333,99.97734797862223
1480,0.031127903909147898,-0.001252236848470872,1.090225698658607,-5.9713037778963365,-8.526497977336124,-2.78389614225094,100.01637105281695
1500,0.01487409460346684,-0.02526614090461403,1.031118412149916,19.00883555100312,-14.490316358361206,-25.033441341241286,99.99129179283709
1520,0.03373003374322572,-0.08612293813896754,0.9392966017099935,-5.598737790969558,-9.385270037313159,-7.324984200111805,99.988520123623
1540,-0.009548497098126024,-0.004994373906470059,1.0175893786006516,-1.4188976849872674,-0.799087967955092,-23.89758847526277,99.99667174147329
1560,0.034597128274181044,0.07755766106630255,1.0215375428084148,13.458105737581151,-12.915097398236659,7.015827265016182,99.99531690695031
1580,0.008276990443259857,0.04410051562812557,0.9455193650732002,-4.49012803077555,7.1530802324398515,-13.784218021003108,99.98918520724672
1600,0.0023682845617980374,0.04621077364978737,1.0260460880700697,1.9823225454248647,2.9544871817414533,-3.6436477495161768,100.01602446609057
1620,0.016385487094653744,-0.07380148090473271,0.8644837905520267,-4.441341225612943,-7.3475345133202925,-12.948606133701738,99.99037837638812
1640,-0.07311752531867537,0.0625679224193084,0.9798189010275625,-13.502389111379541,2.131437683390975,12.795314832313629,100.01280134806214
1660,-0.05640594113617871,0.007225065821225176,0.9876148842479959,17.36357012228959,-11.146143560721526,11.607618228929791,100.00132376306343
1680,-0.021810020452847148,0.02194004170805321,1.0042542889341488,-10.926597265522172,-4.030646176217886,25.637853390999823,100.00621276867597
1700,0.0011597397664682638,0.06334296554020366,0.9633569353004461,-20.232450728231363,-8.253517590019449,-9.202026111638864,99.9765332656403
1720,0.0036405669412941516,-0.01701215281445679,0.9924775778903956,8.216738298594414,2.1445358513500414,-11.578076938896768,99.97809153167725
1740,0.03506331072125331,-0.05776524041975552,0.9671200181583625,-3.6941468664728507,9.798625882040888,14.70527711761536,100.0069134919898
1760,-0.08471313978864559,0.006779574715525618,1.0066894566475604,-1.8596788618720916,-5.485596411229526,-14.162576492314756,100.00687194432415
1780,0.009261602978436381,0.04047802390879245,0.993555099440396,29.405056110006996,-11.16567300583547,12.696096771206669,100.01459121803757
1800,0.045249523485870156,0.033218732240333386,0.9986259522210155,0.5256676701500285,-12.007589648993605,13.855755420179332,99.98857718098022
1820,0.0248308108221158,-0.04848371578625244,1.013165483829667,20.28492408909965,-2.490099387545379,2.9967510537075643,99.99677271186836
1840,0.04635333453553182,-0.09067464110797453,1.092206211478055,-4.62499934846071,16.317973200860862,3.4043712514575173,100.01145713625878
1860,0.029588026762992565,0.004422350957790151,1.0591318824056715,-5.059565058193379,-4.687014228932484,10.452861150866063,100.01353898126845
1880,-0.02997386728072701,0.036930750299649116,1.113645341608236,12.171610861975362,9.291617466082116,0.7953020873579166,99.98752858629771
1900,0.03505249474934478,0.004850287340954704,0.9813528960273459,14.298731826940573,-9.703177949464731,-15.402883273250051,100.01403934414029
1920,-0.061385486523709204,-0.018616249735554848,1.028917027022091,-10.680926865126914,-14.762974735520407,-1.2935605848312122,99.99437901338877
1940,0.09733876550109247,0.0032314387986701713,1.0501387171305285,-5.380636514401759,3.2360899594363373,-15.797661066158994,99.99274426056387
1960,0.039882600111017796,-0.014396634697943873,0.9618452419219301,-1.110183228855686,-3.89743654775456,15.802370653736357,100.02291440108799
1980,0.11867043434160013,-0.023861726940826878,0.9101823532751919,21.655641041370636,-16.551387173025343,16.919400728991075,100.00796769525905
2000,-0.026064565037759842,-0.027189249710383025,1.0400741563480929,-4.324104471532633,-5.085396927102864,11.077702230131038,99.99074736216849
2020,-0.030877464956155,-0.008577949674993882,1.0757989108647195,-8.794978471333387,7.89060072807629,8.588655282602847,100.00471827662838
2040,-0.0542932158732537,-0.04144355458652671,0.8948509013858682,-27.615662977226833,-10.100558960356787,11.108661837263266,99.97981445792425
2060,0.10086115368181675,0.10748389539211385,1.0008304966627775,-11.823021270399138,-30.498839856793882,7.931810609673301,99.9530128849281
2080,0.021646755260401634,0.006069899778344575,0.9371308285539769,14.595396042640878,-1.9155146490986512,4.213072041474293,99.9770593699155
2100,0.07801909477700451,0.024837814016631713,0.9972444653949111,2.1950093101188535,15.433725124491925,-8.75646222418661,99.97158749372069
2120,-0.06024005548103722,-0.02271789190402802,0.9721182335086385,19.753630814427076,27.5862090535632,5.491282091485128,99.98106307591326
2140,0.044727468946727494,-0.06692150311961109,1.027525439283202,-18.206563688927663,-15.40326042762828,-5.549294474405698,99.97694978772554
2160,0.08713148450923575,-0.041146344435122925,0.9922776424285032,14.65153353398009,-3.984600342705204,4.512602529943118,100.0113065179947
2180,0.009846542965001651,-0.07052799557328454,1.022581770457304,2.211597324554718,-3.2661500669703383,10.486443315478866,99.992880771758
2200,0.046403687479013085,0.05452081236637512,0.9891129900771797,12.45201694159693,7.945309576504972,7.295961149243073,100.02413313916729
2220,0.009961101760883608,0.01236133335381203,1.0344612184137183,2.805634582499544,6.069636740288801,8.166243251585227,100.0551769261067
2240,0.07203829893487222,-0.026235601890259502,1.0037463715834098,-13.981318645270395,3.3615425693268204,-15.247038142607622,99.96141553118241
2260,0.06517494775231072,-0.04789349562430234,0.9688771963148144,-0.6336356671761127,-4.287517111867084,6.3373072954834235,99.97295639361553
2280,0.04952850600833697,-0.05825050045270459,0.9661765829441884,-4.319474935536009,-2.4881847553077234,-4.020487824116646,99.97788099017914
2300,-0.04599478024863835,0.029567144192741937,1.117024906113377,-4.865982393909346,8.598385458232206,-2.6578091054717534,100.01660219852728
2320,0.09538114731221049,0.0009096212861778715,1.0366085619759806,3.093977369828529,-11.943545182781339,25.906146785474036,99.97827860532718
2340,0.030713278598654088,0.11586439254663317,0.9991275395045367,-2.7117721017444545,-14.702179876956269,-15.793735491141,99.97524384345104
2360,0.06505792001325889,-0.06921769536647009,1.0325366261187936,-13.522149500208386,-10.060633592298924,10.416777053123349,99.99336417675207
2380,-0.03196690240047586,0.0794214999307768,1.077097717935867,6.679032568962712,12.444723847151257,12.2535325042071,99.99024213625684
2400,0.054986805256111396,-0.06930992079471292,0.935733894272769,9.964534227134916,-5.230705416028211,-17.170189319770166,100.00610782315653
2420,0.0006784386660656436,0.023891486943602866,1.0093686167790634,7.669934982826572,-7.786891424516762,9.720888257590293,100.03795846866167
2440,0.07222229397056823,-0.013354948164994749,0.9410610537858998,18.229424533798287,9.284962883537396,14.011081167777174,99.98606707220208
2460,0.03718534915403259,0.009571433670894369,0.950167989604173,4.702232300872886,6.103630631379517,-0.8133214814015044,99.9894360270718
2480,0.0981209668544521,0.011707070922108133,1.0662218435630808,-7.860834311085323,-20.51992154855701,-7.050729791891062,100.00642720973298
2500,0.06328916859999292,0.014994018785423644,0.924745211191417,26.074711971983106,-1.89395239971949,14.204295632098002,100.01245612923094
2520,0.0047375053490179495,-0.025523389301232616,0.9588346348578975,25.701075174115985,-6.344789026970409,-2.240442312917639,99.9828066765255
2540,-0.06803951020704697,0.02128689394056832,1.0209717248646961,13.646731377521258,0.9486722799420351,-12.656337801099529,99.97405855860723
2560,-0.003912856296584523,-0.0670182143388452,1.0618222948920713,-11.846201686764257,-10.024397067866422,15.081739227224858,100.00203465485536
2580,-0.06321380019688182,0.014245746345634242,0.9391461637011286,-15.834772958242148,-1.0450432265969862,-4.415411625250858,100.01911773418587
2600,-0.04573590517983549,-0.09779697638152302,1.0099260904973149,2.864853203270826,-16.670284646858086,-6.356135285563771,99.9376578348836
2620,-0.03828127957783682,0.055546477836343394,1.0394570619418686,-2.8598462017231707,-11.699730915159357,-24.23678355553806,99.98527625303484
2640,0.0004188367622252552,0.01206198694501948,1.1435847364361456,16.372713571646656,-3.606786623075564,0.5630470809336319,100.02398850172315
2660,0.04405575992075022,-0.04707459219667526,1.057549170570594,-16.793548158541686,-3.1743349936308976,7.8355325862379,100.01469075005055
2680,-0.04438006424815013,0.05600716702802916,0.8518090442327152,-13.347803912012607,19.07004926951959,19.021189195276683,100.0265528905174
2700,-0.05988366365204977,0.033136575555590526,0.9937593893697593,17.93314640402124,-4.442463911929212,-5.758366612551521,100.00834601266509
2720,-0.04601078996794574,0.019242281423787817,1.015407405729735,10.776647540627245,1.4131669922150742,-1.2391435595377516,100.0080796991512
2740,0.006282518880581581,0.05684126946423429,0.9288436842388813,7.300123581793047,3.427415363542874,5.098681193955435,99.99685906777424
2760,0.048407703520229134,-0.11031000618306892,1.01039294527803,0.9592290340852108,11.659056694345349,-14.384301658763075,99.98169039748448
2780,0.04457122185751742,0.04310104852297698,0.915956643808103,2.6142033477369733,-2.4556857600700255,-1.648970950567144,99.98751292457465
2800,0.01609774595254111,0.02981669834103994,0.9776156717815095,9.000945082575823,-7.6634495367972635,20.69391850942857,99.98662591607606
2820,-0.07324567280290939,-0.030636716114131508,1.114094294647547,3.5462710129216615,11.000084914251367,11.913432420405503,100.02460429598824
2840,-0.04366376603931572,-0.0917658342081843,1.0554971639879192,14.09723858986472,2.2206778966581027,-16.798519562200266,99.99219155969479
2860,0.000524317454277415,-0.01318653192829116,0.9135929023848983,0.05422057157129316,19.35476461604218,-5.09143976747395,99.9999119452659
2880,-0.00575708576404213,0.05015503596591702,0.9680713731254698,2.4804694322103096,-9.307556034682658,-7.122501539402348,99.99102931179394
2900,-0.09243690935761051,-0.06625226582902087,1.0792750582930752,15.25696559487503,-13.22644335243466,-7.904439309101852,100.00172168589647
2920,-0.013333099758002363,0.03260004400182125,1.0053616522017645,-1.386834385333398,-8.609305471558303,-10.776106559509488,100.02806481639418
2940,0.020468939666281966,-0.038406984135283255,1.0050126485445638,19.328665483657936,6.6096871194262174,15.7212210904969,99.95819275086707
2960,0.07389024645877071,0.027025701530169068,0.9499824935440333,-2.8223451307604432,2.302915038727986,-3.944092157609581,100.01567098528069
2980,-0.028669760504039216,0.03202713880581266,0.9988699932062018,-2.675177641904191,10.452818303106383,-1.3856508372890906,100.00054004073074
3000,1.9028526246998607,1.9899062803729604,4.283558112440738,328.8230738483794,353.00375876304327,370.15951282250205,99.99660282012938
3020,2.0851924553951444,1.9722400318795943,4.367046414043973,329.86389469392316,334.34671768772955,336.8146344626138,99.44187310652997
3040,1.9877650710557202,1.9615132020910238,4.336472501492274,337.8308329764976,343.29423786197896,343.7695278936706,99.43701712526236
3060,2.0433831749163294,2.0655079626513073,4.319897641620302,336.7617285529179,344.98025839743957,334.7563282606083,99.4852125586666
3080,1.9889649772669236,1.9535504978279632,4.238629312540778,315.1643320194845,345.3328257515971,341.71435642741096,99.46162804270436
3100,0.053165485981980225,0.00733688911808046,1.0344285432012654,332.6411278741372,346.9093627339835,319.84017953238305,99.45521297364574
3120,0.019609649182734848,-0.14555189395800058,0.2478014430536907,353.2338550567136,334.56321765481914,337.15280997683396,99.44774721584369
3140,-0.04199588826743428,-0.05037109196781231,0.1805311747404358,354.74597055005614,319.53744684140236,343.42720987397956,99.44943254876212
3160,-0.054703333739797425,0.011964953397651433,0.15595225121838294,15.626511415128057,0.41980476381966525,-4.426141317299141,99.49029766354161
3180,0.0034548446281055566,-0.013390540010141713,0.2781980157580693,-0.23376432747720277,-6.1863478663714275,12.208905291574808,99.44134241365747
3200,-0.07940861576169145,-0.004830429589511226,0.1608427641648688,8.190644492197826,9.10002188424636,3.300415657760831,99.4620545171885
3220,-0.007044268283910875,0.0007463054307855072,0.16247844907643005,-3.1455729595555555,2.694689270763316,12.427131747792068,99.46410031573181
3240,-0.03411640534354007,-0.10559306081485718,0.13533414943002792,-0.5284305792529823,14.836025424760102,6.771679517414123,99.44225076020022
3260,-0.11814628337261704,0.07249578237385744,0.15233681153189832,14.82574594479765,5.289076752313865,-4.694193015848972,99.42659263153514
3280,-0.010014147909372502,-0.022432978557383475,0.25613599404394405,-5.386297669997662,-12.315790787710434,10.173887841795006,99.46959185003377
3300,-0.02794581577595323,0.0676634277176292,0.20453831695698566,-25.351800598514323,9.883479627291411,14.515008111391133,99.43515064237674
3320,-0.058947235774140155,-0.07328946986024024,0.24928957450012265,5.774114452658053,-10.285237204814441,-1.8584785426665797,99.49340250733758
3340,-0.0231255286665979,-0.04293980135812294,0.19892203551611978,-0.46424524302113385,6.098324405789105,11.174453951869914,99.45020217407756
3360,0.07413105743042783,0.026549355556725936,0.30914795305811393,18.110843166302068,11.219098932194083,4.694261415705663,99.4728603106141
3380,-0.04977137716022396,0.12786165135288755,0.1327226331186659,16.14630566898245,-4.42301914499223,6.437771767369091,99.44440447704685
3400,-0.07215716100660029,-0.08001893100442994,0.21625241167390258,-4.9530041406184235,-4.755912635285289,1.0372738176052825,99.46330899731946
3420,0.06302130376661241,0.04834492955543054,0.15303482354939502,-9.378555290879111,-5.792113700763992,4.964524078845869,99.43774884862304
3440,-0.01392653706074292,0.015316299804939646,0.13113230527820924,-26.68691746137938,-3.024571862638134,-1.5825890330264523,99.44953913597217
3460,0.003066475253416354,-0.0351008395951461,0.28171803067133416,-9.758587446087757,15.306269805455646,-12.919616833798923,99.44640260022845
3480,-0.07192638424552776,-0.08723630775246409,0.146063301262682,-6.915547751186714,4.835412247442933,-3.8735570790231058,99.44014206433434
3500,0.02067642643334183,0.08602540315378386,0.22737603117540514,-13.569564401256173,4.035169536070907,4.754527665086771,99.4358509150928
3520,-0.01839982753981759,0.041198438417570926,0.2131715590978311,-3.7515194452929927,-0.007233089737310452,-14.05698053595723,99.46958140470389
3540,-0.11942790499250787,-0.08292616436615427,0.1470236801688761,6.663808258064488,-3.156087026947251,13.738436041569857,99.46170031727654
3560,0.1232672402666492,0.014370846217404337,0.23036487055868635,8.330928401399495,0.42604025641387633,27.74290385622952,99.43993532608228
3580,-0.043560524417305464,-0.0211092587839317,0.1786146803660379,-3.314459984907077,-0.7633067101138434,-19.993717913151283,99.45144895843649
3600,-0.042884735791683136,-0.060787587631590395,0.20147470454481367,-6.448963484630035,4.612819814755561,26.47698344427453,99.453964901088
3620,0.019149837195235653,-0.0363435150904899,0.17907004273440177,-6.884091431792365,-10.29325120188054,-2.278048756568187,99.45396677419303
3640,-0.11545630965939067,0.0021495269879691276,0.18992744154297866,7.4733851956039645,24.448459748149784,37.00168061818234,99.44222898230569
3660,-0.08667104578966449,-0.09508135185605635,0.32795674065404645,7.089389153280319,-3.349781422990432,3.4213547752344313,99.4669930653445
3680,0.06369154499715371,0.02712044129069599,0.022529783866638203,7.904031219081988,-3.5773669175288623,16.29275001968622,99.41438296147807
3700,-0.015622572401094804,-0.036051497154050975,0.25123824008784157,-9.643551795552357,0.3666669626177929,-21.268864926138072,99.48272841722516
3720,0.08524253271417442,0.013230085631433897,0.18842818828574182,-20.93433126680674,9.036345294038433,8.921091663978295,99.45862937893503
3740,0.03645361603567115,0.013401944225399615,0.1958149489020788,-7.347738525436338,0.323413663322684,17.79330979922235,99.4680664519336
3760,-0.0023051363633647356,0.04619507600897596,0.21337712363227046,-8.3169744043871,-2.256575747407822,2.9383045369021508,99.44416061120572
3780,0.0011624378672043867,0.029495458640207202,0.25067223262460026,-3.3883072402278955,-2.6668482659120327,-13.980156864964275,99.46194016106499
3800,-0.057063859526337,0.05379048259607283,0.2119081266175409,-16.34273078339145,-4.795943815521885,7.199753285183629,99.45935332457968
3820,0.025700609409755933,0.04118417487743563,0.2037133646628428,34.13935758712263,3.158952266967208,11.913918370339225,99.45729199999099
3840,0.01078439739929751,0.08528028725377786,0.14217950986156663,18.270431042144587,-13.887180272317083,11.05244337276849,99.45964546573884
3860,0.056009749818013516,-0.07642768212082342,0.1975309358105335,-11.357201214278337,-9.981947769848633,-5.257762069261548,99.42660073855023
3880,-0.010897177642283472,0.02445859760757947,0.12717933382574423,-0.5284798176188383,10.846390333369225,-17.093359129281037,99.46379064204888
3900,-0.09946147652687398,-0.015264248221224356,0.17018120744092452,-8.511967454154128,-1.0876197515188086,-2.9195800845981346,99.45826203505287
3920,0.014274304003858197,-0.03431804949444977,0.18765033036296208,8.683140650598023,2.5447447824168368,-11.092462368359485,99.430014823345
3940,0.03447201901305111,-0.06549961641038832,0.28040868879386865,-7.1606542909818405,-4.967986379284647,-20.186319400850216,99.47966107102621
3960,0.0752392695955829,0.084873933970741,0.27005484827926973,4.17545140177001,14.965219553578166,-17.980945415189517,99.43606180643388
3980,-0.03154351023785703,-0.011621788948294293,0.18048346428756634,1.9693512273430356,-4.9108663464231075,-17.31133995752663,99.46732517712556
4000,-0.012141821472875208,-0.04067787195870272,0.08684223671631078,5.068133627456241,-1.944574281528141,-1.9524979303612584,99.43352474481307
4019,-0.037762067509699834,0.05612971474877178,0.23273699019269972,37.920472518906195,-3.80038289259865,25.585897480989125,99.45217473104557
4040,0.03703124838377017,-0.009184336387366779,0.15103054488877604,4.123075246535743,13.741686738905155,-7.070358170057873,99.47747031700887
4059,-0.03286559311968781,0.016085163819545202,0.20277821942698368,1.6863753022826862,-8.090476622796587,-2.2075400050524037,99.44956548048053
4080,-0.03009815250854332,0.0239232145425325,0.21562361813341677,-14.332530915869206,-4.631047141845403,17.168037360186915,99.47365597429945
4100,-0.01302334719995073,0.01997635257150474,0.2624976328736292,12.416974537381707,-4.432376059971649,-7.257322377777863,99.44883106424093
4120,0.11159717270159697,0.004933824566830231,0.15381740412385494,3.5014746466697693,-20.112725518131715,9.070640328156305,99.45044814412225
4140,0.010640886198086256,0.0005169966547547018,0.10547200218955663,-6.212162866338847,4.464648773433249,-4.984588476515655,99.46935953879266
4160,-0.04579187588402119,-0.006277223252883656,0.17050174579296148,3.4421271319423026,12.695855657871085,11.696760367386062,99.42370441453961
4180,0.02697064759202133,-0.12457463606170863,0.24711143648081885,-10.785286766546268,1.5124241084960655,5.347857719935769,99.44265278464468
4200,0.04305669388772021,-0.01829645525567175,0.18064912791242657,-3.5547438017991286,-13.226932125605302,14.765239902383986,99.4874892868476
4220,0.004366098168734354,-0.024316527671384564,0.1979622321370988,-14.673350263638355,4.396510192373901,1.8712559456766837,99.46839519420645
4240,-0.014188871056448263,0.060495816410161045,0.19523385350548184,-21.400889152094166,5.220029182595387,9.13522616322609,99.45675623416722
4260,-0.04249154645760306,-0.00068663987369319,0.23357293589207764,13.427237988736692,-16.756960408959635,10.518519635839072,99.44994367228499
4280,0.026038584619755972,-0.02823892237831694,0.14851313832839275,7.009424683900584,-11.232827758168167,10.216018213844187,99.4218755704724
4300,-0.04332758423999481,0.011030709622045583,0.24080263460608323,-11.001086809812204,13.406790419782517,14.980811323642703,99.45694282943376
4320,0.013040944858756221,-0.008687456245628672,0.17425174933488577,-16.42447520916051,-6.704029338310061,-1.9994275373183505,99.43551348858433
4340,-0.040845277538221494,-0.012920138899994441,0.20939454329643217,21.061561714855607,10.05052414827487,-2.272442974418482,99.46456797743281
4360,-0.017068678987742884,-0.02015739487544453,0.2408803673399042,-5.931581647052092,18.610022563677088,6.992103965735497,99.46742555286045
4380,-0.08706748285548549,-0.003483115400834288,0.14115741356641934,0.3091123792354944,-14.200309984685576,2.144968422224395,99.45037764692978
4400,-0.06621241884174672,-0.02343647436129544,0.27155341714225345,-3.1568543233025075,8.171203419840108,-21.366037101655518,99.42958292661235
4420,0.07402338702392239,0.019459518077816786,0.24560402461253994,-12.072311645323005,-7.791077686802853,22.139278640258713,99.45857215728664
4440,-0.01836302612371434,-7.287166966367774e-05,0.15211776499865978,6.310786022381249,-13.27195414047134,3.9561530422495697,99.44452622192041
4460,-0.031271846300566404,-0.06710401825896821,0.24187968556960426,8.06451896213586,-22.491094738234175,15.669201041249261,99.44119460673284
4480,-0.01760370435979884,0.025839945119322052,0.19900679232379354,-8.54647823124388,-0.49627282186206595,13.376368385699948,99.45321607675562
4500,0.004576954128889734,-0.021067201777922828,0.1821281444214958,20.030330000169965,-8.39465256617561,-1.8565524987973567,99.44250703218191
4520,0.14424850582233473,-0.04425918286910837,0.269912413245672,23.542307004132613,-18.442909905733572,22.00296327451023,99.47545731293305
4540,-0.009913549734233189,-0.04031918110418809,0.15114305882907142,-5.751391317544099,-21.069399712191508,4.544567351137911,99.46693926971004
4560,0.005818470526199337,0.058536377881099215,0.14222751919335141,-6.240225798347593,-9.610412593173988,1.3087333635885954,99.4572564763572
4580,0.0315878319765312,0.11104605956602642,0.1867656296318018,-6.141855470503544,9.839186058096038,4.4691736548148056,99.42343465285984
4600,0.023563169764116067,-0.06444064106851266,0.1383624426113933,5.608311776156577,-25.604670958741227,6.4467165324887805,99.47684228622609
4620,-0.06735920875756808,0.0283275939891154,0.21950342734989828,-4.6955477251281055,20.812388051575883,-11.307026901067402,99.42164641075584
4640,0.021223189236049655,-0.000686284110649061,0.2099641307330113,8.21257160243987,4.589725176723531,9.158884511829333,99.457674878609
4660,-0.04071930850973914,-0.04811931311606815,0.20046315625457253,7.583370674983947,-6.540079079110281,-4.63244029069426,99.460577869219
4680,0.0035695426862828467,-0.045561893471351506,0.2092762996544341,12.7026259864969,12.896534626965964,1.2889857953235122,99.43737546566292
4700,-0.009648854046920688,-0.06683914674067189,0.2800351415189465,13.125329865904469,9.253910469551984,3.2389615900310638,99.44267140590867
4720,0.0038200754517566204,-0.018392832745612694,0.19238782429029133,2.116812507148157,17.591147710180515,-1.5137829962928528,99.43765279022648
4740,-0.018786505867405323,-0.002268197266260506,0.21229327097319148,15.144185535637138,3.4316533503719144,4.466611335042309,99.42019283489583
4760,-0.016239482792102133,0.05455168294936912,0.19198250582542958,2.059481638816329,-2.576726751889794,3.275137216096218,99.45409089850504
4780,-0.05205193881423834,0.03970745160619672,0.21093521565611204,-11.967886823295009,16.132129299603765,-6.488967405570142,99.43476288496248
4800,-0.05124897117761558,0.009530475258910992,0.23804507815866577,1.6761966660548033,7.332854031538911,28.201737817637493,99.43471542029121
4820,0.0009169307993110453,-0.07664760748801062,0.10146523623898575,14.459411820677618,-1.4995420401132682,4.9545395147099125,99.4722812935241
4840,0.05961346068102507,0.03051418170785823,0.19789809226387917,2.1146322510823694,4.555907300808627,-11.793686229824974,99.43826709393115
4860,-0.04498412353890876,-0.0780686285512595,0.22606283277412073,-1.201657360041205,-17.30972360157952,5.708689275333235,99.48571207629297
4880,0.07765584682745649,-0.044647029761960444,0.18411870708183403,0.04290621361196158,-0.11358483144086365,4.792041587544404,99.4644752971821
4900,0.014370411356942637,0.05179353663384714,0.28889344397858263,-12.987822053457517,-4.771440356231243,0.7236564394198747,99.45337836567725
4920,-0.01452195793442854,0.03655004405305606,0.19814018718095483,-19.446622126419378,4.905247705542421,-12.926708239767299,99.46149183366794
4940,-0.054639065078332265,0.06305312031499273,0.12273578715080334,-8.208657627491812,5.743257722940889,1.3600936284702996,99.45591578636966
4960,-0.027740033969411767,0.02567822495067489,0.29381919033235415,-13.044266658581119,16.971908889939037,9.846469730376006,99.46730220706314
4980,0.014842287164805571,0.06106833550880253,0.15473540814475367,-24.067793928131792,-12.045502014369106,-1.638709964547671,99.47567969426113
5000,0.01928445349799068,-0.06488803584852748,0.21903580467989656,-10.008631931289505,-16.291390829490513,-10.64294757779432,99.44887754925254
5020,0.004977278283901196,-0.020434948791787123,0.24050742669753813,14.9527732138665,-11.927703158801808,18.220175745471586,99.44741010588119
5040,-0.07942919978669442,0.05415537324757448,0.20048917388905793,-10.17593379907966,-0.27903224117475856,2.374074856450538,99.4764269620993
5060,0.03559184311441542,-0.02407202441282048,0.26718644135758113,-22.04757996621574,10.820538603002817,2.0865601755765093,99.442756480176
5080,-0.0707968509744364,-6.0561699666706196e-05,0.22846386925567574,-11.90253342557629,2.5234372365767377,-15.201767357031962,99.44004762425713
5100,-0.00011895242816829454,0.025987984653836668,0.23406087211817334,-8.16001882962008,11.776908132599573,15.720388809395324,99.45455840370316
5120,-0.01282158344162247,0.011196892770963696,0.2076468266008163,-4.324232076628914,-0.7124782687307565,-8.37015251736517,99.43138934519969
5140,0.011415321791280422,-0.05982353071297225,0.14679317748678686,5.26311556763566,18.196929468850833,11.386899897682621,99.42920500791409
5160,0.0017584211140881396,0.05774113793042987,0.20189851632139155,-4.0772946257465525,-3.0448126622733476,10.920962299447954,99.4432933930389
5180,0.0202204249253764,-0.028810471093856177,0.17904733575775034,-7.596561553570457,2.9792590427613193,-16.09067760157764,99.4567724491908
5200,0.02931651132563779,0.10478803325281345,0.25465856595840397,1.2569256113438323,4.748773260052582,-10.033637574922643,99.42144165921819
5220,0.05319661969788915,-0.029266316734636994,0.13528508092874794,-16.595049882592647,-15.305937322507871,5.394727464275895,99.42796777695932
5240,-0.02287664852924523,-0.03488186481112544,0.18810405633942232,-18.62216300645124,-13.200349939855911,-6.5045782161371575,99.43902853269327
5260,-0.03817537954978498,0.012714367634205598,0.18041214744993667,-11.109516090309072,-3.854225609232499,6.85146969480824,99.41192951333551
5280,0.021143940691100722,-0.09334318484179133,0.1975325535399367,1.5088812926013901,17.173635141301034,8.93603965933826,99.46068788360779
5300,0.024285292851925298,-0.03620421690184751,0.18549476790953728,-3.0075859638863056,-6.794099349754662,-1.9863128351019101,99.44556518511415
5320,0.07498303892926043,-0.02877966313767071,0.2886253292046143,-26.818910079701546,-15.488350681368686,-12.122367134245815,99.47823685330074
5340,0.07418399060918328,-0.04620863274111931,0.20330222910280704,-11.914837450609467,2.8392245701845837,6.706053103248926,99.46153922136062
5360,-0.017708837588326996,-0.0918442868017488,0.16973935661831588,31.304027286642395,-5.369357401067859,-0.49821773945062275,99.46719647187797
5380,0.05984016632091374,-0.024635692555950786,0.27607928088125316,-9.881909432918283,14.53172744415522,-15.028961622052117,99.46480249745012
5400,-0.007969866987725635,0.041924552067747305,0.193609900377687,1.3419301580273464,-23.560480451477602,-13.924887393014576,99.44360873275785
5420,0.057721743672024865,0.0019739795113403887,0.24426241863149808,-12.157288307686336,8.2433841752752,-10.31859409994386,99.4712553199324
5440,-0.0009106331736131479,-0.02457516822329879,0.17381832477813985,-20.833548020216693,-0.5399078673366309,-1.3539597539346513,99.42801592627843
5460,0.02969600861605874,0.03944140086807787,0.11859669415810103,3.0072919655565302,-4.801011674518309,-1.4232689596308228,99.42119625765089
5480,0.05689442746962384,0.05366329027279529,0.2512637970143758,-17.848162287836082,3.0142369817108436,-7.090532943964389,99.43914250138513
5500,0.03196519472279994,-0.0030355843362398238,0.26635783496859006,-2.318443722584557,-21.499091195982963,-8.818577398902477,99.46642380741993
5520,-0.0172534446552102,-0.03383786072778715,0.3099270437878606,-11.635032164084564,-12.178972080315923,-1.150711272248501,99.44352422195782
5540,0.0699280514875578,0.06504857128982049,0.22810490372648165,20.80184477823728,9.201157543011444,6.244463697179418,99.45873527893038
5560,-0.03623129682590447,0.011286415474481115,0.28949933359594676,-6.2437344335671625,2.887761099497141,-5.679458703199741,99.46107162256015
5580,-0.047367608916434885,0.07707750036191648,0.18568668839926797,-3.4045857623171187,-19.047552055669097,-10.715738658990094,99.41319550227655
5600,0.08461072763227795,-0.048603464016374776,0.23888765378382912,11.251474096606124,-6.434950880368982,6.859063625364513,99.45637779182275
5620,-0.021764266216825416,0.03367399142796403,0.18399739692377665,-23.360207684320024,24.128525969586196,-18.426652094900092,99.45166729530219
5640,0.02152512106774085,-0.024667020012428435,0.23128141961715226,2.841886961631776,-13.5919437585891,12.367873256118482,99.4250208751858
5660,0.04187324548339998,-0.03580097015599721,0.18052175291032582,17.49810403550336,-9.420231034654437,-26.464867356003694,99.46893438293878
5680,0.039974776459571565,-0.07862979871100208,0.15723860569274603,-0.781992848889134,-1.691288722001473,10.826321654784767,99.43703986865968
5700,-0.15039778363430475,0.028269043259197837,0.15321324158717806,-3.336735871036894,-10.89910340887139,-13.084013090661866,99.4357942528056
5720,0.09273953791717822,-0.08646377010132154,0.32161192989715065,-14.116381947492036,13.247462866695301,-0.47791851534480945,99.48738803126489
5740,0.023138740412627534,-0.025198916667576038,0.23164897786432181,-14.45038035693085,22.514342718213346,-14.637234017696706,99.44797581041874
5760,-0.01805112805353372,0.07409794304286571,0.1677046796513735,-10.155090650734834,9.758918562056706,8.501750182661954,99.45252911361777
5780,-0.022372374272990173,-0.03423840508505729,0.21977446551756502,-8.41527042872833,13.005008338408969,-0.9571770982711698,99.45343600197302
5800,0.012952500552746547,0.03206289028038982,0.30351818573864103,14.212785656063101,21.10958401791977,-0.822670797768519,99.46523685080713
5820,-0.04837152890224078,0.03338071837260021,0.20178320443212072,-9.051541632753288,14.256270422643778,8.486249569217758,99.47069803342269
5840,-0.10155052549717428,0.02482433754880258,0.2702134134964087,19.599482547120086,-15.371931441157816,1.0489876663042974,99.45268216164868
5860,-0.07973839302642734,-0.08195162536296127,0.13361265533413086,8.886268943334537,-3.785336231602048,-7.5841112345567,99.44691104099986
5880,-0.017412174873197458,-0.07396044139806388,0.17761467384199742,0.8796869850191802,8.013593812755856,-29.12357215134004,99.46808218727227
5900,0.06248423751503607,0.0067977296350044,0.187131804833905,-1.9542225883733417,2.4532438032059085,-9.119500597776163,99.4221259438107
5920,-0.0342928572065165,-0.027369851756225846,0.21964790700262293,-2.6374995717096397,-3.1277231656543725,17.29945222543579,99.42877325164714
5940,0.036214697369898595,-0.0017454636905554783,0.18897551053365313,-6.08817077165431,-4.4984043101301285,-13.189270325143047,99.42118984185211
5960,-0.0027676989320830226,-0.03571364664664269,0.17213546938153526,2.5451781870058565,4.446235267703442,-13.934648220247253,99.44481457991726
5980,-0.03719911999978989,0.06471072142061227,0.2210523664279445,-0.3215223817207181,9.084236988844605,-8.02815873994904,99.43426777506183
6000,-0.0777033237758256,0.030580459416997014,0.2159522450877306,-8.75749178177771,9.293401045074393,-5.236096969324077,99.43965573825989
6020,0.07454212592726447,-0.023058918133261573,0.19155841298748832,-15.446522318907034,25.193471374194534,14.475974392128283,99.44914012747508
6040,-0.04342975622303777,-0.07196173115621765,0.28744580217281956,-4.914263438849318,-20.87998452679858,4.319741019466015,99.44251648247125
6060,0.04632446724062205,-0.008202838286099957,0.2342164770843942,-3.552530602536939,-1.0977359014880066,3.4811249444375005,99.46465877216897
6080,0.03845225149620123,-0.04321886932679361,0.12717043871618064,3.9376620728016793,-3.1833179704447545,21.09340542297978,99.46468616541895
6100,-0.024036344167925883,0.0480447563904957,0.21977381790795625,-9.598845302779624,-3.47306503175648,-35.48170007649263,99.46028904265074
6120,0.06960571488014815,-0.07243822020213472,0.09335842113246706,12.359127007022465,-7.932417090928849,-2.5237716096217833,99.4465389198201
6140,-0.06283877439431479,-0.04911887056045025,0.20933873653372947,19.43172488873017,-16.37803981564986,7.958070037577798,99.43537516485844
6160,-0.04125834198967598,-0.020844651575252168,0.26686817224111536,-7.0112308884630465,-14.890857436580148,-3.228722117535291,99.46512026923706
6180,0.03255748829742435,-0.04323382141380777,0.11244665631738567,10.547538438935725,7.836233097925126,7.106947445154481,99.44687515923606
6200,-0.042496084500207115,-0.045383843499786525,0.20242173763336235,-11.244374461284078,16.763774374579643,24.111275676560417,99.42433865679104
6220,-0.00043968217154599306,0.023018337238818118,0.15820443966992673,-5.769360255276235,-18.884188290249064,0.28246507346123567,99.42155442983714
6240,-0.011915033106466374,0.01255424333888332,0.24232528488119554,9.6935556117873,-3.0501100894211324,-6.103771242403669,99.42290621203945
6260,-0.08151768547591154,0.07851974372013254,0.20827793932786456,4.9279192063492765,1.199982691614383,-18.595189846010832,99.43559033152054
6280,0.011076059223553966,0.009545512191993118,0.26383062937051416,-10.25495410786183,-2.419763333637784,-2.8156997202266227,99.45562503554147
6300,0.01604682788722782,0.047726735019384646,0.3208100178138086,14.982079570783352,19.60339011415225,0.6125787625920891,99.42154226590684
6320,-0.03603643534379738,0.019268673715033057,0.13679348012477988,13.960611456653698,0.6699611514877152,3.5945960985288377,99.47323911501358
6340,-0.0806793586400405,-0.01473668835967499,0.24466832773743594,-11.975903698085563,-2.4380206152340587,-18.733159464040227,99.44232554889632
6360,0.022876795180897577,-0.03853492987055724,0.25579701219240264,-1.2441889104311186,11.355426026669514,-3.158297388438485,99.45703221179159
6380,0.04203280762900205,-0.016921429674155226,0.24721502733744843,-28.895926072676986,-7.843784204664225,-4.057060291604518,99.42305787978577
6400,0.03817290194730785,0.005062984254156601,0.1507274362091659,20.1367568891822,3.813796318188407,11.860483821260107,99.43795913066745
6420,0.0202341623409799,0.0036667046478262954,0.2209083688524665,-11.086187537920862,-0.9403685635953569,5.205056577693989,99.46818716595952
6440,0.05454184207587787,-0.016525109835049175,0.17793346206559066,0.7268894887456908,2.137779752464644,-6.1809290064255515,99.419406820994
6460,-0.023897893686550657,-0.022714236962083852,0.16886778941183483,-6.9641403981388725,-1.1574435230028235,-19.890222177174262,99.47125764368343
6480,0.03836414956810755,0.039685698855629614,0.15263457247609508,16.56380379058818,26.3986556476117,2.9307936471188247,99.47273165869882
6500,-0.06344543542590068,-0.013384629112854577,0.26265877055179615,-7.314156486947996,-10.00491557953252,22.07960317422604,99.46421164614688
6520,-0.01219633548163046,-0.04969002447202005,0.1585173779711804,2.151673752596687,-1.1716130584150675,3.9145428841083136,99.48189345572843
6540,-0.005683428382648615,-0.033938906612095386,0.26172590897495795,3.313681664413405,-14.436207557122728,-16.73280413211076,99.44547176884369
6560,-0.006812492325317471,-0.06897098277754525,0.16965026471511127,-22.631041788826387,-10.518847423217714,11.858649790512013,99.45004399273046
6580,0.03154517179723082,-0.07257525106188836,0.22934322509989308,-15.12846442553757,-24.4731999193366,9.934335748859947,99.483078415328
6600,0.10329190764710885,0.02754691271896144,0.1748051383940085,11.790984210412933,8.447846868324449,8.239264352978015,99.46388075519246
6620,-0.004560868246765677,-0.014364440311724494,0.20263905528352333,23.25017265945355,9.79516438118038,-29.409309723066606,99.42341945553068
6640,0.0026517099020287784,0.01829718286127007,0.22688563006338824,-10.726137320075162,-1.073711146230873,-15.875427788890185,99.44592779018699
6660,-0.10371587552622817,-0.029161786976935784,0.13399375395893176,-2.7062940905926585,-7.67379657928543,-11.040890229850428,99.44949705347283
6680,-0.026203300720007944,0.03179889245349105,0.2612775216236386,-4.193216305721451,13.59585751197653,-12.265047822854225,99.4522740980574
6700,-0.03074445251883612,-0.05648894193039797,0.2169907595427492,12.929175508346805,12.755436644238465,11.505391561907473,99.45824892988362
6720,-0.0212119272389913,0.06293157532708112,0.15007597059248354,1.7971645015044704,-13.243587816169212,-13.016806389806685,99.45356773128374
6740,-0.04592833882747698,-0.02936608405927892,0.23379034127401377,15.590240860784807,-1.4787356283693511,-0.7118866846738408,99.4723021394303
6760,-0.026185384750189902,-0.03359411507749906,0.07186259425974253,-3.506699961171333,-4.641731409241316,-7.288546792800155,99.4503530808062
6780,0.05538657752001877,-0.0011549554833494011,0.12844898362706514,-20.379141221983026,3.317427054287141,29.700219700126496,99.43433237618629
6800,0.04852983795268439,-0.046842025068369264,0.21667278366742795,8.128368116670675,8.470944882281898,-0.26070796258884016,99.41727212711675
6820,-0.10964504098894193,0.06689033141837773,0.12995696643081361,0.3573129502331058,12.345891325893845,-7.318271735454015,99.43869012757628
6840,-0.0574529516819676,0.023331366837547943,0.22146690266493166,33.43637006552012,-6.191015664442345,19.436373106996832,99.4817085351237
6860,0.017435815407156822,0.031893424476359816,0.1699213660395484,18.479008611117248,3.1947103985965786,6.28850002092129,99.41242396900306
6880,0.06836254067553514,-0.015170837648944075,0.07139885307252367,0.6033421720672801,-1.1462094198318102,6.3433466051460945,99.43295375015492
6900,0.009717676246733538,-0.009016805109369483,0.21838481898658313,-4.666398368259308,11.492014558118594,0.5888990778003937,99.45013810497163
6920,-0.03337638625622813,0.013533209346512335,0.18849220835304523,5.371615098454224,3.15579388862713,21.827888898232917,99.45279983181219
6940,-0.08456966212282704,-0.11124891876037574,0.2210615287231118,-4.434884601549686,10.124308100296979,-11.756960270985616,99.44913143436554
6960,-0.03872563392468234,0.016153144570716628,0.17278587766897247,-12.660312689105421,-0.22820367458232182,7.349559605711711,99.4352627536453
6980,0.055746193620276635,-0.025916177982081387,0.21464637210274462,-29.774832277186015,11.11170670243338,-8.10252734044786,99.46561497075523
7000,-0.08434736765366169,-0.038594125616572134,0.17659177749491017,11.225330785689781,-34.15153758727019,-31.42670091831429,99.43948974747954
7020,0.05839632778485387,0.0520694835114831,0.1980332472363915,2.637929892197574,-4.254429541982719,-5.42391382539557,99.45420599056185
7040,-0.022236427939146323,0.014829160360221156,0.25221906699208585,-6.416750982576353,-16.583631748366912,2.58104217210768,99.45323573122475
7060,-0.03535739419678956,-0.05342193310531981,0.2105520234294217,-6.340335460322872,-6.0675788797845165,-29.105408443674364,99.47295310253374
7080,-0.0109346754030944,-0.0017492484675108247,0.11559525555819877,27.841927873499277,-0.40073039209417527,-4.79410278923689,99.49141085498391
7100,0.0332843813931182,0.03109953225622958,0.1925618211750055,-18.512040536582628,-25.3651199863177,14.67489110669354,99.42177562255277
7120,0.022511813357066864,0.011165440243945356,0.2875660006946233,-0.6400781282188823,-14.744449864398373,1.3321479449188827,99.45496473986512
7140,0.021731402126738887,-0.05490040338122354,0.16583505205190552,-16.444969567900564,0.4982931987548376,-5.222784810084599,99.45140684514261
7160,-0.008031876177358765,0.017574836262308838,0.19920819143197263,8.736413038574899,-20.820687349192635,5.145087452917144,99.44957643303684
7180,0.0638634571872476,-0.06256298414403538,0.30414740401737383,11.03049621535756,-8.162382465719373,16.88079564483583,99.46409722721086
7200,-0.031340369272100606,-0.016668415144538425,0.21639805209736418,-22.576045249967773,14.756122539358548,-12.895004981582998,99.45340994839968
7220,0.012903384518439177,0.011601466980797516,0.21820490453540725,-8.992789426760293,-0.5113103596222794,3.7330148025323107,99.45736194048744
7240,0.03129892899702884,-0.04159285534135991,0.0991846788328829,2.205208859386307,-1.876229737756254,-1.5258318223436467,99.44711628700261
7260,0.04699539131906619,0.021039320889924263,0.1723962589809087,8.704311911137664,-4.241317368816523,-27.6900658711444,99.41595700007846
7280,0.035009623133650095,0.05978754551858905,0.28274757937651496,-3.168340248255144,-4.342329825982229,5.898097875300718,99.45368432275016
7300,0.06074884881374598,-0.07789455282541814,0.20275425613016806,15.387981489448293,7.965745766958204,-6.036274878144485,99.44721454247657
7320,-0.004335189388325972,-0.012781460033975848,0.16034200137518265,-13.983626095073511,-12.982495623966777,-8.144475052369659,99.42972352458813
7340,0.04896120381226113,0.005172248380046935,0.16029552066745495,-3.9502675380997587,-1.2451380602659854,14.933539102576084,99.42885392033344
7360,-0.030397627983307196,-0.03387658505635482,0.25533586703787053,-5.127618962811647,-13.418457970821011,-15.512163797499813,99.45643135470412
7380,0.13112676990480718,0.04843282829097206,0.1794263992407205,-28.69096538146131,9.315114878555914,-8.167090535250601,99.44183898613296
7400,0.019745621789188258,-0.046011022131565195,0.18136165424295936,-2.113266129745454,3.147389591099489,25.7802190466928,99.47020299850116
7420,-0.007513271400969782,-0.06363855713323952,0.2829898193144681,10.479925933543607,-9.978973360401493,-6.27429181603226,99.41241432972508
7440,-0.004215913008317223,0.020522682379169876,0.28144011682291714,4.394064723578434,8.830595591884903,1.5683412461396455,99.42846893019467
7460,-0.030706716978645823,0.07542903904467373,0.09955202740798691,-18.52780495419094,3.1141463938074896,-4.434630751600194,99.44009937470375
7480,0.03216198991626786,0.061359490380731296,0.21010320645566508,12.327638295636888,6.678884756847018,-37.27457647508449,99.4296645013594
7500,-0.11492458144240092,-0.02456709099688456,0.26068550198638235,-6.298662468578799,11.762640711068784,8.151186111002854,99.4620122205903
7520,-0.037574516438957206,0.0559115430531533,0.20104609753234015,16.906915709856587,-1.224383336523287,-3.733783643031125,99.41624295565587
7540,0.0161055442865136,-0.0530755440810004,0.20705960347441832,-6.45244875583461,-11.68806933720214,15.148869545146486,99.46706557695113
7560,0.017610286785048536,0.04032868347508762,0.19145820628018656,-7.553421621200751,-8.264771578145826,0.6050765979345355,99.45040252426328
7580,-0.033780762331555546,0.0012969151670152606,0.2187269688554725,-9.553464208491993,6.911487891287486,-4.867327369929127,99.45648711864153
7600,-0.03161513402597942,0.027621002626423936,0.2865499670272501,-9.507101333196495,18.507849180851757,9.440719652168656,99.47002119602399
7620,0.06482506114600743,-0.019937848405099313,0.2097636898274655,-8.235725735527092,21.0972935658157,2.0375733708911468,99.45493742233108
7640,-0.008079710881790683,-0.09677345066235804,0.18993176041013032,-14.302150579843858,-2.9899389016331552,-12.967371692164502,99.46033382808987
7660,-0.010732696372607984,0.04520029398144356,0.18728738449935772,-4.255683224608998,-3.0376280213159053,-3.8056158729923135,99.45576113884471
7680,-0.046426796616105395,-0.013805822151197198,0.18731817663905054,0.9421304880968662,6.375080531421521,0.8307882922890493,99.43298914434467
7700,0.059411818476487466,-0.005105611659174551,0.19417772073376904,10.679742426194181,-1.3652079727369364,-3.355643227193283,99.43124166063228
7720,0.0597561875163734,0.051266650735002695,0.163647505557743,-2.3286988538173357,-9.306563134230633,3.582628383049286,99.45195637232864
7740,0.035450296932282306,-0.06396532046044374,0.22078612027315747,-20.706369178893656,20.55862559768907,0.44924615982206817,99.44918496956154
7760,-0.022510205196370703,0.06670686950830577,0.16711822995141093,-2.173194256799699,8.228331045281191,8.414244370322017,99.44789671940491
7780,-0.024274266908166975,0.02685950276927672,0.17707523035247597,16.940136279816436,-12.042350076883507,-2.6043922955912295,99.44729178373682
7800,0.012160159030633541,0.023261017020961117,0.21942518707198772,-10.521191058727307,-1.25539279271982,-10.560372620902626,99.46038819085479
7820,-0.09080271675484768,0.08466978201061755,0.1867054997580926,-5.146452962880673,-16.394919731357454,-6.062197736999999,99.48218363028103
7840,0.05161041925334561,-0.0920966088379639,0.164976954098484,-15.370048612599673,-0.4421888112433672,-23.17477670976797,99.4773469561832
7860,-0.026455077709398363,-0.06212281844895029,0.1539389976764363,-17.50460482069711,-12.36058935243627,2.7344155477648044,99.44686491714386
7880,-0.042698549054669216,-0.04391782364880977,0.1926655791815905,13.045281274398452,23.944722567434667,-9.213722170950156,99.47089960890538
7900,0.01745076059230745,0.028523415077187465,0.2706221601562533,10.898090488194846,-3.5664953915340476,15.723431246258569,99.44469333336524
7920,-0.08449914538413898,0.04757526263655887,0.14288646196027757,-6.608294084997899,-0.5188886919748031,14.29716228131771,99.44379268743471
7940,-0.041808535182564346,-0.03290672194368314,0.23122273443271063,1.8208507289177105,-14.572361577588259,11.014215177103939,99.4031158541642
7960,0.009089396737111512,0.020425792930098573,0.16529089971812597,-3.336309579997327,23.851340072345568,-12.838985133336983,99.46101752496317
7980,-0.0017872167119010404,0.08061179887605206,0.16862239160906486,-23.614570923155647,16.492548276266632,-9.467149148814283,99.45636439075844
