timestamp_ms,acc_x,acc_y,acc_z,gyro_x,gyro_y,gyro_z,baro_m
0,0.04402439358193229,0.017174555343773993,0.9841392014474535,8.308215011052434,-11.899162156834748,-5.887516649373749,99.98083914724799
20,-0.04891249348002433,0.036584389556602724,1.042847539598244,20.16211632454341,6.166692117644346,15.035893489397655,99.98097979987328
40,-3.395297561780259e-05,0.009374917748150748,1.0344998218027441,3.8453763281675486,16.066439371111073,2.9149359235598036,100.00583326488326
60,0.08394880372028404,-0.032314948848868034,0.9665738100543685,-10.584078249160516,-20.542475398457462,-13.11146783894206,100.04079865808781
80,0.0007278770816091165,0.02445083063365496,1.0028623700929833,-16.069687852316363,-16.576218696104515,-11.511416409336142,99.96645481361563
100,-0.030114773301864503,-0.01944309100819692,0.9091189713593832,-11.09216703169697,-15.41858594679941,-16.11925643073015,99.97474293355572
120,-0.05844404180358817,0.10142009818015917,0.9631249040458714,15.99213277239271,12.977485872733943,-2.334269321039243,100.00496341531277
140,0.060976148037481984,0.035323149930676666,0.9959720654223009,13.248704307416414,-6.62194006180011,-8.04158850918133,99.99300456322625
160,-0.00012499179481293405,-0.03556579370149654,1.04761956672544,-12.821890797393626,23.24362153879843,0.09060667509090257,99.9780040242237
180,-0.10010677537688224,0.000396920915060687,1.0209923078320455,3.8440709434008093,-0.12490100548433532,9.094670825273576,100.00087679109885
200,0.0313452787230683,0.0087233006215964,0.9968863781013552,-2.5093703494755686,2.9792931988903786,-3.490810462431985,99.97373986980848
220,-0.024965689231390312,0.03541650138594349,0.9632426285610562,10.294496265224405,6.480648585901774,4.404844362384244,99.9782941473076
240,0.0016020308039613454,0.019100922314817068,1.0602859793499975,-10.818729713301874,-13.261351221072708,-7.044893187163275,100.04571947415808
260,0.022346624752182596,0.030060828999761643,0.9343051452019577,12.883967191152024,-8.844400043861881,-4.015168177842573,99.95012090019033
280,0.03829510098613497,0.08230308996264432,1.0462019680135368,10.953426133436192,13.558953330775164,14.505434739944942,100.03781918758273
300,-0.015516359321017793,-0.033637508213775084,0.9680850957935978,-26.968735663901498,-5.452853498170758,-16.963895769019153,100.02943421217255
320,-0.0841886842648765,-0.06835479746216729,1.0616166904554332,-12.81899160050523,-14.47350627549914,-3.2475539893440937,99.97867551163674
340,-0.02401760833746701,-0.08816656055470183,0.9495050854612176,8.461839944633864,19.745435065757395,10.037362532219845,100.0090849382288
360,-0.05968593343926426,-0.015798720796960385,0.9936934958608441,-11.770346591726593,-6.229718576213752,1.7526470276847381,99.99873767619955
380,0.019738254110603336,0.06871060555066238,1.0734783717996565,13.012068073488724,2.072267528545023,-4.083873167664658,100.0039535411349
400,-0.01477109266953635,-0.03150575222225172,1.050808613292107,2.672439868959543,-2.354335066268675,-0.9561026298073269,99.98779591586293
420,-0.011702735045168772,0.09096401289402663,1.023932471163211,-6.600399431192939,-0.3595209338665562,20.689173645690126,100.01473916945967
440,-0.030417163377151574,0.037176155155202145,1.0350971018894304,4.625264305009553,20.71968919244603,16.427302596652268,99.99177573577484
460,-0.05713548726501053,-0.03316127651319341,1.045709328792934,-1.6505446310488854,8.531570607593128,-0.06749425434489024,100.00802201802126
480,-0.013677938205323651,0.033799824554758474,1.0573683448052775,3.72137441715138,3.3452601525132057,-12.093432034273452,100.01403314407506
500,-0.0037411438195869237,0.047587233793999394,0.9247393853013335,-11.262063106155484,-0.6357020574753007,3.640266347692682,100.00197564332228
520,-0.0007269425652469232,-0.016351120303351133,0.9837547465923843,-8.08193738020173,10.646665127494003,8.068199892088707,99.99416108660715
540,-0.08893718246407488,0.052635860701563536,1.017263676485764,12.505704882104103,-4.736973297136647,-15.625318040324625,100.00425512194283
560,0.09245173083021935,-0.04843634836487567,0.9533197075743436,-0.0548661091585159,-10.741995252929073,-1.8028361797188062,99.98766766210831
580,0.039573668347137915,-0.01225608609916527,1.0806800071152063,4.021137948529777,0.2686685633175373,6.912107208948598,100.00513848723281
600,-0.007813229389912926,-0.053028910237327656,1.049772129362339,-0.09035116521806302,9.048808876101564,6.505898913423014,99.9842758827472
620,0.03095707494104549,-0.03695039936683336,1.0137405219281124,-2.7413823894053495,2.4870728518317136,-3.0652613478440762,99.98118276669858
640,0.06119166186555106,0.025217722363640335,1.0605154532211607,-1.8718279785608178,-30.99936294607793,5.852308489123184,99.9747655702068
660,0.03454655567066419,-0.07895221317758382,1.073338328030544,6.88491461699476,1.8753591001967371,5.468612832265771,99.97642028023591
680,-0.03613954076495731,-0.006395483119898637,1.0073114181373561,-9.649596529088395,-9.52118128939705,21.99540308575085,99.98804475887152
700,-0.001970258817067258,0.06377207660579279,1.0147517097982635,1.8404115581713258,8.534204410423195,9.057602645632866,99.97075362573588
720,-0.024470319178845165,-0.007139073888575318,0.9383559562564281,-0.48397256866975424,3.391663972532778,6.796195005403016,100.01018044303297
740,0.01411611929678621,-0.07866032262087645,1.009652019688262,-4.761846776582214,5.156403211354114,-3.4394436526850396,99.97164992136325
760,0.011155079355425524,0.011950180463416936,0.994104788037513,29.969574987496244,3.942483428198367,0.18396748313496475,100.0160791564203
780,-0.038739594400443916,-0.03171522489490198,0.9275482592080325,20.774636203012495,-9.67393345208843,-0.9641284813448752,99.98918337778483
800,0.003975297286665212,-0.07901642403486347,1.0567154730739587,7.211886823025095,0.1690951043985094,-8.732164087577042,100.00216260088992
820,-0.06420870518471263,0.034098810068320905,0.977441504040771,3.072980275084414,4.4529616419700115,1.3475241362928168,100.00279544412345
840,0.08442460530855281,0.025380963247213523,1.0064308786339007,-19.16041050850778,-5.944191630660397,-12.826694471042051,100.0214758690335
860,-0.016754514621649282,-0.03511831673486534,1.0644439893148219,-2.0586956564227954,12.338488672992888,5.762686534578969,99.98514102787506
880,0.0272065965077555,0.050293961021847855,0.93673413108477,25.935787329941483,16.963008517626587,3.2138202682001933,99.9702169771172
900,0.011163510541422587,-0.1204386695665935,0.9908384733966779,-2.2746172273412686,0.07530462148011917,15.445763293506282,100.02718173858119
920,-0.028300577742245772,-0.012370903522282954,1.0598201787978008,9.696681186205485,2.7488347956064656,13.064205837747252,99.98625122100958
940,-0.03079640677361526,0.04165595157304101,1.075331672507825,-2.4732176763379936,-3.8781551915395958,13.266950061372054,100.01691200400813
960,-0.12245495132183802,0.005317565850160722,1.0094776272895634,8.806162948317265,-3.1884573881404545,-27.279068708105232,100.04381677329675
980,0.03325497319548389,0.06200582036612963,1.1460628750810964,-14.952977528414458,14.082043011237134,-5.649294259923436,100.01029163842051
1000,0.03351788209872743,0.0015228781683195869,1.117487670359228,-7.042051340493593,-7.172827517597083,11.214448961087076,99.99399922875935
1020,-0.012375882774718933,0.04673588701036823,1.1136346364229865,-20.48861098961067,8.036352433162357,-1.7948973932823011,100.02984192225358
1040,-0.08559851474484709,-0.07238391436642401,1.0859494106965673,7.457290709738056,-13.548512013627583,-7.823104903472316,100.00355043901452
1060,-0.02021224206503296,0.05303228294868926,1.0002745307457508,-6.9506710178227085,-6.620765041730747,-1.612728232204242,100.00103580907312
1080,0.15450901599733363,-0.025617857567590635,0.9552957065213858,-11.524092439465289,3.8807409360188982,23.923875213686348,100.00742206290694
1100,0.017104080134078176,0.021800678626659444,0.9499535740784355,-10.673663887808452,0.174986053493427,-3.9659743261696425,99.96854516959188
1120,0.06851999478783831,-0.01334424021861616,1.0587806534016457,-8.918284288510037,-19.705067439713666,6.186932393287853,100.0146460762723
1140,0.038025589477062485,-0.014330669732156976,1.03925545169052,3.893952011495081,-6.454190650479266,11.97101417234182,99.95493094650075
1160,0.07679182117556137,-0.06744293582960063,0.987635493986678,-1.93500301687471,-6.859204675561782,-3.449151396310712,100.02513287238544
1180,0.03176310019808387,-0.0639807738679689,0.9795020344142994,-28.66030169051197,-6.205486634537616,9.013362051497996,100.01973229638033
1200,0.013764698261135586,-0.05326298891527031,0.9564728799857454,-7.969558068297859,-10.25976550031025,-1.8650448403686304,100.0012600599844
1220,0.0052919194886595555,-0.04886261927445596,1.0182990445953366,26.239644765009967,14.856301833475193,-3.283263893946142,100.0012950781557
1240,-0.03553139460666454,-0.11231392343965048,1.00945522132187,-10.766528212940756,-19.706688601266027,-12.88528393457613,99.97763920424121
1260,-0.04278789833636197,-0.004052479059899162,1.121737519769988,-8.662749526658711,2.90797383984447,5.795821918151396,100.04719987177408
1280,-0.05526868623852166,-0.009628478847995722,1.0445567883119349,-13.348737515606624,-3.2869946457161254,2.727892028989159,99.96636187465363
1300,-0.010126532530295178,-0.03093698942812443,1.0240528315927535,13.785818980820629,6.0013971782029385,17.959733395634643,99.98210287267749
1320,-0.03832598575881818,-0.011561630761861327,0.9707859529018518,1.3313257793100455,13.57753359943137,1.9563439615764016,100.00038997412268
1340,0.06900351234840964,0.06647133420312262,0.9368167252416736,28.3466298229652,10.596840485594722,21.710449853980123,99.98762844339777
1360,-0.03226532378998342,-0.005697804379464618,0.9417470128138985,-3.483474186101009,-18.169913302785375,2.0587479234886024,99.9813630677875
1380,0.03678594122230536,-0.016494974243778274,1.0004261277756301,2.4833081622214968,23.01236484200951,21.67144578243545,100.01269045539874
1400,-0.050840223740459135,0.05548038992732157,0.9580799304402124,-14.734192202076933,8.933968161480816,-17.084283542260582,99.9656861026709
1420,0.09822857375598361,0.06576882044830919,0.9095036670201904,-11.826824546854567,0.5185479234102605,5.007756228549866,100.00314735636155
1440,0.05268299440902389,0.04440093707052234,0.9707812752671873,8.443293810875826,5.138034798014726,8.282598855566821,100.00675729512858
1460,-0.025860014422242946,-0.039062722943462774,1.057992534983427,1.5106007395962382,-11.906417029876444,14.581811635526503,99.99784769422898
1480,0.07481549359065968,-0.015445949307757717,0.9796263725045723,16.433326409829725,19.408652483995674,6.858188826734487,99.98776105019158
1500,-0.006280892665588337,0.0343424061011289,0.9975732943607994,3.0368596980761033,-6.6139337437896994,6.785474127584054,100.02562949584967
1520,-0.009414229556112728,0.048074374081682164,0.9690645552734081,21.08017874419707,15.786272636668778,-3.2050136924120327,100.02442900314597
1540,0.005786458622015301,-0.019361822173111335,1.0669948011296586,-12.007271130392741,-4.7084645085024235,5.542086337257681,100.00387295403685
1560,-0.07037415882020533,0.011368693491322315,0.9675358089116447,11.980608864806623,-16.47302244951494,12.919015798854339,99.99731973031385
1580,0.0385827893787287,-0.0011010369565775183,0.9970172913068958,5.409666123155495,-2.1485880473046794,0.5245432559233706,99.99938778604194
1600,-0.02841704353201457,-0.018559941337883776,0.9502747996154388,-12.701300556526693,-9.415119374108196,-19.923399031652334,100.0121078023749
1620,-0.005988482606182274,-0.04608884444758029,1.0412266275703053,-16.912884266056597,-16.948150453544788,4.3000186765389,99.98527200429054
1640,0.00862597719014957,-0.05257914681663661,1.0421192810417081,11.957010409758633,-1.836661857701197,-7.685075950896577,100.01544369533829
1660,-0.007236021166367089,-0.00030780278307677674,1.0840109382060166,2.4600592884361037,6.024490118416681,-9.491143931205194,100.05089042822172
1680,0.04303946723634614,0.08181638390498029,0.9453747731549633,-9.069694783419122,-4.946093816456295,-25.173387644928663,100.00188264300385
1700,-0.0008008509825636895,0.02603071481910074,0.9967315275831222,14.618294953981056,9.061256833302762,-1.9151360657738783,100.03918304895691
1720,0.054782280265129005,-0.024506243929700206,1.0903747375168584,-1.3228737027655404,3.0010556535685615,15.94325272350986,100.04373514627474
1740,0.01858525289474384,-0.005233776164493139,1.0635600458723449,-7.607739523644623,2.0262703040190266,-4.063727740335732,100.00753844586558
1760,-0.030941272982410874,-0.05356922681477514,0.9774767603999045,11.125239036177566,6.637735340800004,-6.747130726281798,100.01281245863989
1780,0.0062379500857274554,0.013505602037058749,1.1378615410545772,2.6715503290665885,-7.83984970226474,-2.6743462410398386,99.96523266190964
1800,-0.050016420709359855,0.02824577122243729,0.9543697606556246,11.52488726198606,-19.043721184275604,32.06287380323158,99.991547250608
1820,-0.06685999646300704,-0.03530446905195396,1.0453872518334941,-15.594391417003507,-6.267174222360206,-14.39076038445291,99.99589623827741
1840,-0.05861746613499096,0.028265774916533926,1.0708077287168687,-6.212197174270633,2.131561591320393,10.55441820218946,100.0148726938012
1860,-0.03272829089131112,0.055994626142728134,0.9802125717654109,13.646882206998413,21.583926257260337,10.191969177957263,99.99205373220762
1880,0.05449060705954966,-0.013711739762013456,0.997166851685797,-17.708112700027122,6.282707461407979,3.103551658210109,99.98652772599473
1900,-0.07715242659576334,0.0852902065996921,0.9957133688797454,-7.257313107223172,10.768480240052178,-16.289188663120903,100.0050658419335
1920,-0.0374810050790278,0.03434204372769597,1.0491465816813146,25.123626161242605,-7.857856141119979,19.043158222838347,100.01652857608191
1940,0.01465728368445283,0.025709752158754446,1.1147554059019966,17.54330650576085,5.151902345231024,-11.485677652838017,99.9975324632427
1960,-0.05840277385239095,-0.006162814952528222,0.9830338149647943,7.339267154190107,7.972993577550609,8.081848157155978,100.00639230544186
1980,0.034628768120107074,-0.01251625993558721,0.9059709125116377,-12.179175730773267,-15.840265790996717,12.753463321150628,99.982264162268
2000,-0.04155384496599538,0.10342550521478322,1.0274556875266894,-15.947636947227345,-13.413535485034497,14.724799711511677,100.01288474862126
2020,0.062269349362137516,0.021926633363584754,0.9448467399850303,-6.312311802645084,19.01641462749817,14.071221154893479,100.04075817306104
2040,0.04897236648759309,0.009816811345690391,0.9629597578808674,-7.432716222026316,-21.29521487845045,25.829327078051037,99.97632898143837
2060,0.07801922585273588,-0.015039262096741363,1.057129690158719,-2.2498282072656375,1.1284539396502085,-0.8268575356376213,100.00424228322034
2080,0.04051566166975831,-0.021639849383587303,1.0374485641629079,7.114331620140393,-1.13703162344884,0.24643484672941546,100.00507808432201
2100,-0.01235263716819045,0.09808645157981372,0.9924427709589861,9.315197469899356,-19.237118047704303,8.663403956167025,99.97337620869374
2120,-0.033065012629891984,0.008407730050555033,0.9249693143172408,-3.1494084132511135,-18.925461397779213,1.1722872928133885,99.98823555753545
2140,0.0022785331138816395,0.05559997248843151,1.0399851145511096,14.611262746663463,-2.817149985196714,-8.619184344427676,99.98318163148626
2160,0.05444231401140525,-0.059797941844468294,0.9722711120613443,10.770234180046685,1.9015643140377638,1.9980700848602644,99.9611660065895
2180,0.06268856494814344,0.012016382742029513,1.0050411317249655,21.86486168550831,24.253185129003143,7.205347325157476,100.0396137740576
2200,-0.04471233133974272,-0.058971336507216615,0.9920085153120134,-23.26360873076309,-10.31869800511971,-18.383001538590626,99.96832620595926
2220,-0.023788947766607824,0.042840348261081136,1.0282155434526947,6.370128704194381,-12.937471942189514,-9.310694954174593,99.98224200340638
2240,0.02817158214342503,-0.04361494527300934,0.995878100205156,17.77978261761436,20.45036493366473,-6.393591226308159,99.99587606522563
2260,-0.059139745392899956,0.015793091984686643,0.921067930289251,3.0094984252060586,-6.346859464583739,11.601940122530868,99.99291166980696
2280,0.035852295218223716,0.0570307813985433,1.030382233682866,-2.437493668356372,-35.137199661100524,0.036112134327968004,100.00376417504802
2300,0.01118407632532791,-0.005213266370473119,1.09601147566228,38.01365650256092,23.32337496559247,-29.121118783726914,99.9808908846525
2320,-0.06087320301015632,-0.003843108467713732,1.017304038700525,-27.189837616250067,24.99335585016283,3.1300612012226927,100.0064238037262
2340,0.016335360489796454,0.028469499760695884,1.112516100767357,8.452651009320782,-15.231802616726245,1.7515461652860849,99.9629925359962
2360,-0.054486915965661166,-0.026919750207637344,0.946810510155713,-15.58158742194538,3.732424208892481,9.14086850026319,100.04268748246648
2380,0.03945416163152455,-0.06876378163895307,0.984520574879298,14.95687751355932,16.101926543831404,-21.032238478553836,100.01776519127513
2400,-0.08542868431443645,0.05379851792033578,1.0177262898874646,-12.524965829122637,-12.647081909472183,6.041802378283434,100.01943531724268
2420,-0.07557171236353394,-0.06700760313810071,0.9368118803505043,-38.77596537855078,7.410487480570326,-7.482667367262585,99.99294851743903
2440,-0.0045297969196433025,-0.03288279069178055,0.971660032212168,3.0349245276518326,-22.714006800128757,16.97487361385627,99.99840962493599
2460,0.017570702517552644,-0.039637141698209304,0.9876494376582359,6.041980826645268,-9.186657470311276,11.753257204025939,99.98790376956963
2480,-0.02135447740944314,-0.012099529938588378,0.9400386129332774,-1.0289523714020716,-10.640466783049774,-4.3687721381471984,100.04014170182518
2500,0.04337556270958301,0.015308897317163395,0.9399072379886736,1.4049476403779761,-33.255086131614995,1.906395690979409,100.00411683146861
2520,-0.038729350311208575,0.015831375787463162,1.0061476792707384,13.725215230598394,19.686730281210785,-8.826684847640205,100.01796154377462
2540,0.06122278373064939,0.07889381175489774,0.9737342611245908,29.14768162276068,7.8725859060620875,-4.0395767143141885,99.98556994358708
2560,0.028843136460471153,0.0751345550918251,0.9789484556576937,-8.987837700891117,13.57010991652246,7.725311406964781,100.00726096855028
2580,-0.04666532068000734,0.024530686367256915,1.036827593611537,-2.8716548802438533,-4.319480788585071,1.4289657346665003,99.97957078271517
2600,0.00709393525659309,0.08515103632491047,0.9943430913868683,-6.968348365394875,9.939227888431247,-20.23639294936703,100.01645642634644
2620,0.0688392819114768,0.0025123615127784706,1.0247664551517854,8.248553338667515,-16.39741364481623,2.447153976046679,100.00279587347181
2640,0.012204924136962773,-0.05341239749331779,0.9312788728376248,7.741407497717571,-10.118773058931703,14.76801407401593,99.99219571374013
2660,0.025503965995975084,-0.10547758784602229,1.1296061211109765,9.874436343852759,-12.26895653913218,-22.33279582448396,99.98610329060074
2680,0.06653758091876326,0.03387142905678377,1.0690147225461823,10.235642360351061,7.409533907461493,-6.689040680136053,99.96506388353534
2700,0.023406489086184534,-0.034669807486475204,0.9214898364537396,-0.4153838515910211,16.41242511545611,9.195954747267443,100.00416004065437
2720,-0.02933684948354517,0.10656565435918311,1.0385072119172793,-0.4358505347759082,4.068113876599764,-10.72779715605359,99.99896579749361
2740,-0.0642073911158424,0.04948260207651685,0.9553385831362222,8.152940736609839,-11.889567607690257,4.545710251297454,100.01776370138508
2760,-0.009484275234708787,-0.03406493540764525,0.9566718602684401,-11.093200886414419,-4.188560515561427,9.07213428848089,100.03632221472678
2780,-0.03340448236685078,0.009451402722422307,1.0288506160671893,-8.836779360948535,-2.426791155168591,-7.785564065449487,99.97981890386896
2800,0.0676094093249702,-0.0440879460036769,1.0042108732427173,-5.5541283037181595,12.774292173879218,11.038050026652504,99.99532147283617
2820,0.030448156280682755,-0.07254028477263266,1.0655114241267707,2.0872085409518073,12.809527411921568,0.2609688898171943,100.00879156902403
2840,-0.06708677620977498,-0.01742944097486805,1.058310336234699,-12.59706397326591,6.39079093445967,11.17373781322928,100.01773029445509
2860,0.02065889052928945,0.04060441082268662,0.9533180773591426,-15.526273478740922,10.377016260210077,6.388287820444419,99.96547238643001
2880,0.07169163722828893,-0.0067848238170038835,0.988379540198668,-2.2957078593899465,5.4650953260387425,8.497298978531171,100.00443836971463
2900,0.05958814929267812,-0.018379447752088274,1.0532579088699674,18.735395628437296,-0.2939645076537282,5.897835542417526,100.00131415729582
2920,-0.1040006629160317,-0.023664552959599763,0.9012177231088834,2.3618941116166092,-11.469002368325366,-1.712618931677433,100.03725165025736
2940,-0.01592408252910078,0.08405445233472904,1.0742741722118856,10.438490722562936,-2.702526192174394,12.336426022514072,100.01129962627175
2960,0.03562984536062641,0.052149219377571866,1.0514716450865045,-21.07557378602329,6.930290106584983,13.925654503756395,99.98401552203474
2980,0.005212993679135708,0.0033933079598443884,0.9893065376555076,-3.3213650074803827,10.666139332641835,24.74452726686029,100.00460778467057
3000,1.9767160804332828,1.9508611351410226,4.300069824216855,337.9225694803001,344.32637063735814,342.7636513289978,100.02624900069323
3020,1.9233955891685277,1.965474487006751,4.290057344380093,342.0526451509584,335.6547135535433,334.6065771099869,99.46992692431051
3040,1.9833986845471614,2.090103595348898,4.256393822044824,326.7129718642827,342.51022316602666,337.0200437681704,99.46472074272994
3060,1.9869291785400502,2.0579388151693934,4.2936196414914205,344.5755357366444,335.0229747832379,324.54665148949766,99.45479223155566
3080,2.05108560625744,2.0556125535428724,4.307595733994514,328.77972968649436,337.04149918969455,328.07472622673464,99.42769368858352
3100,-0.010190928466713841,-0.06192584369215179,0.9945770922297447,337.30770558684833,315.82718534606926,345.0544911975326,99.48757887362277
3120,0.07074021555352468,0.02481669299956308,0.1394463170421835,326.01485294106936,338.3447831033114,341.15469388330905,99.45294195642603
3140,0.017627542227711828,-0.08497671163392118,0.19002336158111177,347.9094856205691,331.65775603834425,347.0559148322367,99.44951515573685
3160,-0.007920283862314208,0.06011084197380972,0.2770893159506398,-11.927150681679926,-16.378963608666215,21.733675529613436,99.42377666782662
3180,-0.0840407044153826,0.03410628930333584,0.13788822212630092,-17.728671499668696,-16.332765056550848,6.176776991667459,99.43303995549678
3200,0.004786073502568092,0.06540956296228646,0.19584665101862916,6.441527834220093,-14.960783634212259,21.407608713118023,99.45171875708454
3220,0.024187333008093847,-0.0397648644577903,0.2483871141656142,-4.94049302893769,13.057829067645999,6.37718790645445,99.4448289198612
3240,-0.007587530339984496,-0.13748546614908314,0.1938948010561543,-4.858564157568675,2.7458946440031573,0.043320327386054035,99.46412979325493
3260,0.0632520756559765,-0.0029755634605823865,0.2428102350302877,-1.7295087378728216,-17.194949532027053,-9.535598660315408,99.45388446003467
3280,-0.0036937939202918595,-0.12133172254582719,0.22620711764720122,-10.824544987253633,-10.610904675699107,-5.95498008446254,99.43502186289814
3300,-0.001149654095148707,-0.01239345063450003,0.15939883898462587,-13.712678809127866,30.312707367918442,7.259126410126758,99.46637826643752
3320,-0.017087991694500017,0.08660180265888108,0.2624501716236703,11.460869063017332,-21.40463762865282,18.0205734569213,99.43042563077478
3340,0.0323736598519716,-0.022496476602530197,0.19437835997006273,-8.729164385104308,17.493916590594758,-3.131668700868696,99.45889004993107
3360,0.01664851702781436,-0.05742053644265038,0.16168129493083067,4.6652809795128265,10.420441703562695,11.897369210972217,99.44974576838531
3380,-0.02355379557692189,-0.0016109038482332442,0.18657040716952347,-2.6415676610057295,17.93761904773541,-1.0122548605839428,99.43910353497823
3400,0.055189455472442576,0.06855898977593515,0.17027513321530804,0.8631992686117014,16.86208391174308,0.8820791425756043,99.43352085658336
3420,0.05195710841311432,-0.01858727918630481,0.18039408063319826,5.706226827412522,-10.49083410173816,-17.431918440443486,99.46439615969439
3440,-0.14719613522054034,-0.01499722411625776,0.20210858603421392,-6.837474458131695,4.849433707809618,15.95530482428359,99.45230090855901
3460,-0.02381595863897458,0.010882529542245944,0.2929429193642907,2.8247367394884892,1.981167697243564,5.421450703966311,99.4574866796452
3480,0.04749365150882559,0.08780095948333562,0.18077029529572425,3.966683623633722,-8.071992225644557,9.056397482048538,99.45190482009038
3500,0.007880610999731462,0.07620764183644389,0.15915586870862086,21.096666048195733,-14.44916920538057,0.3549710148306023,99.4353098024552
3520,-0.01136409099457257,-0.12279634877435192,0.23857420756913716,-5.14370846510443,17.84031839610928,0.10125976866646555,99.44434346633452
3540,-0.021267434385946027,-0.03951960258834721,0.1936583302242802,6.573642181600981,18.50266236469296,-9.761287362953931,99.45895437870068
3560,0.0037578363540548133,0.029248375433333248,0.1725751032918159,-5.236392977276633,-14.045546081944101,6.040489765238638,99.44164348204586
3580,0.027164075896479224,-0.013676915152366366,0.14320094368259365,5.388541177390884,-0.5997566296078591,-7.890198027382336,99.46046856280365
3600,0.09241102122667208,-0.04730087677299959,0.17210383140744975,-1.4991512357563357,2.686212028346281,-6.231616543272054,99.45513922439802
3620,0.03661468413329269,-0.09346563999161563,0.0928440053051381,-3.005963665409797,-20.90202130758582,8.783682040364527,99.42702274202294
3640,-0.02143993536111954,-0.030406023017318692,0.1010013834656154,-4.9838996015404895,-3.1383529927444096,7.8549615453198705,99.47660621409236
3660,-0.05539091696465678,-0.028767906294293728,0.14461402809918927,-18.77508414764181,3.3001907844840517,6.522233640832389,99.45051312087065
3680,0.002799294753584543,0.004524016661090482,0.168191362180254,13.66778160976446,-9.566862276274573,9.034424861724922,99.45403556533125
3700,-0.021184719299293303,0.0335376436742917,0.2761871564913897,2.772266762159603,-11.38172501081625,-14.876916215308558,99.46436463707653
3720,-0.06736387601368281,-0.01931305576235412,0.1652828935068566,13.631926015914797,6.456005785957713,-1.8730356739933203,99.4398165968824
3740,0.06648631711314283,0.04837965845244641,0.15908326570758158,-6.317150199336,3.2718145234224787,24.896293518032387,99.44863644249627
3760,-0.02456499204872209,0.031250326891675444,0.220828482190772,9.765007372179607,5.750766192125405,13.23843347974342,99.47261744022939
3780,-0.1086392166390362,-0.08140926261850881,0.16790451117894478,-0.945038679418469,7.180504592008386,14.082116651828922,99.46813808311109
3800,-0.026631694673761815,0.005422818701924672,0.20833241750784393,9.098787367655053,-4.9350076525940905,7.641407509639917,99.45914006814452
3820,0.08104031569443076,0.12676013887018833,0.2288932939769103,9.069908678611748,5.453938437040055,21.251921266343548,99.44303764626247
3840,-0.0013710023003091652,-0.06277012773406405,0.2508336758840212,21.85578580132112,-1.0461072100141824,9.232715039768047,99.45998384866027
3860,-0.0021691197172064624,0.03245906213123872,0.17374458598475712,24.765249736847842,-5.74077282626204,-9.929206559106564,99.45454831575566
3880,-0.021575715830257025,0.05166465351635413,0.1504638803647005,7.775911487403856,-14.973985430440543,-13.186336740844062,99.47216960318589
3900,0.09655431368872305,0.02769226939341904,0.21905510050715202,13.711724174234405,-10.169623998960944,-10.875886346906151,99.43928065794334
3920,-0.06912021312175494,0.013481846311473398,0.18899455323793532,6.459396123696381,17.744414770614572,6.489683047351654,99.42714386439941
3940,0.02276859678103988,-0.08601433343120878,0.28593908503768617,2.6936922877785427,-6.970590063981073,-13.652448372339268,99.47748715305555
3960,-0.004915062442487145,0.029948551145661896,0.21680449667250912,-12.286890526431069,10.244998670830677,-10.008088548062958,99.48547431751612
3980,-0.00267884938970173,0.06924142312653278,0.2796693892834362,-13.370437315312621,17.41177113838211,6.806421510007116,99.45698567007645
4000,-0.04264740845429513,-0.004790953673310568,0.16928752285000917,-17.17312536273936,-2.6470002355420323,-11.58054551893676,99.45351654252873
4019,-0.01789640773952944,-0.08021192872242981,0.14942336265794406,-14.352053472151253,-10.139134580983317,16.014873057409705,99.46317899610386
4040,-0.009078040054095763,0.08718356997471291,0.1789467821208896,27.549258855331587,-2.854760924198381,-25.107741059330284,99.4499827705491
4059,0.008439588075710203,-0.03735987442838922,0.16763609077118805,-11.880382770168655,-7.025172595373213,1.385771293948607,99.44334504586917
4080,0.04957978512276773,-0.023549019026566018,0.2683729717778238,-16.673038409649493,-11.636169694439566,25.056810843123912,99.43998937296689
4100,0.030857435573340305,0.0064463654884960395,0.19674129584001732,10.215458832957172,2.3883995323873997,-5.146517157127783,99.46860935964173
4120,-0.0187497450898353,0.053591238500905886,0.13995858359120222,-10.862840644694222,10.670023008539658,-17.43367732077124,99.47070558890957
4140,0.030086215094723253,-0.010378700310690745,0.28983690776666887,4.388113711446779,-6.216363403818956,-3.083488955813341,99.47585884362495
4160,0.0521697748352982,0.021955920764120854,0.1130336189160871,-10.641976904359218,-9.204307298309772,-9.013587371704004,99.42632997926277
4180,-0.13500281056348207,0.0428831354177193,0.19073330389822823,10.416153296280614,-28.485292519485917,17.439152331815944,99.45612370983778
4200,-0.03464045234224294,0.008364907528534478,0.2214185567038543,25.76015909345883,8.854224155971805,-0.4076150952953842,99.41867889135821
4220,-0.026728745636498016,-0.07292600359750902,0.14453581560856757,2.21771272914409,-7.018131288259491,13.43268202338363,99.46412734395584
4240,-0.03521452121101663,0.033169570844829244,0.22453425657911114,-3.0327744509409666,-10.30971881084792,-5.075266996174726,99.45337213312105
4260,0.0018014895036060907,-0.024151251755512037,0.1789371152831088,20.433843331287093,9.718574575074848,10.154290095442786,99.43387244810482
4280,0.0022197062731015723,-0.06327120758363951,0.1664506441641209,-16.672115126344544,21.360152052709815,0.8320707059623916,99.46143402091961
4300,0.044440516034517284,0.012547792515660412,0.195568168893122,7.654544766006757,2.8052440650885693,-4.96179089675976,99.47077799195787
4320,0.028381185108487146,-0.06251274220581178,0.23673401524187956,3.8210522903721778,3.2336206334357973,6.329025558671919,99.49028721384872
4340,0.007847853781764778,-0.020209756043828422,0.09232566526103486,15.505934545874716,15.44844173660712,-8.23410275300199,99.42626121534452
4360,0.0777554428699137,0.058915462322409407,0.18074170343655954,35.77397278427735,2.1812488895968807,3.9872723872319065,99.42313296637909
4380,0.014633244557296227,-0.002325870239611913,0.29491724779117756,-10.32080908696784,-5.795075379586416,-9.625257334703566,99.4518747195129
4400,-0.024279295435831613,0.0018638057463922853,0.230045309040027,-1.6138730059360546,3.230630360792489,-3.985614272976278,99.4351641607632
4420,0.012251569291641777,-0.05364573548545004,0.3167960117471118,-2.5791340868446353,15.967992941279048,4.96929251155783,99.44442884567648
4440,-0.06421414386744477,0.027974915073870732,0.22431205955161945,-21.20346365023263,-18.17487002818314,-33.29943048220166,99.47595082953568
4460,-0.1387685828811203,-0.003987517732673466,0.18753754643970477,14.855176342639126,-14.20315009392797,-17.589142187982294,99.40199336817825
4480,-0.012736710034545693,0.0761767789690929,0.2978815987623957,-21.421313381697445,-7.41834293467854,5.05001790889502,99.46867620756946
4500,-0.04400523711881035,0.04161136791523427,0.15427580601372476,7.031722610367601,-7.605156141995917,3.454801300139574,99.44075656202841
4520,0.02842725320615937,0.007799595032104405,0.1339167059223793,2.435074830337699,15.625601310096895,2.370531672442519,99.40978390824948
4540,-0.00924042968995942,0.005758897440650118,0.2294199106192034,4.5880116144504495,9.41466977792733,1.225708499259089,99.45729670429658
4560,-0.020270876385122833,-0.08361209500872163,0.18631274154518948,-12.36321600957503,-2.6791904545464416,12.859994508131077,99.44723827718279
4580,0.0732165561951078,-0.056719575857743156,0.14565072115852343,4.507618637294817,11.29666437299035,6.36646929022723,99.50435994375609
4600,-0.015518056227602207,0.026042782344502715,0.23383804920035337,-21.051538288488068,-12.586297791378907,-19.572092312888913,99.43221352044657
4620,-0.08032485029972515,0.1265124428919073,0.2556030530341842,-5.216214048746977,14.271329967005595,2.1591213127947433,99.43992820612432
4640,0.018396785661249283,-0.004641244661728255,0.22715322176563696,-13.081641551838283,-10.582274125355706,-15.670281987634723,99.4486055755635
4660,0.006005154577599027,0.007571947929201736,0.11899270292383686,-19.403424449166387,-16.886562411219586,-12.571928141154704,99.45737779958255
4680,0.008451638662257687,-0.03206668660246211,0.2088094235441585,-13.312716719395683,7.444476081311369,-0.35069559148446394,99.47368376137815
4700,-0.03946132753653877,-0.008165071996823505,0.21065076370171726,-8.363979401138202,-11.48699562142243,-20.449361567883585,99.46278455760364
4720,-0.028717302425629754,-0.004686917437892901,0.15554102311150805,9.58166557158286,3.4443435072862574,-12.060123797703074,99.42092113086832
4740,0.00013267989110122573,-0.016609955897498103,0.06917971197220799,-9.372661411516875,1.1253846887423011,4.365406591056321,99.39881289562987
4760,-0.029852741134847257,0.03935274769140168,0.20913572103854783,1.0734076884711437,-11.955210815782888,-15.713166255768334,99.4395276166739
4780,-0.013151094678552475,-0.05707632289646161,0.13526554209533032,-5.698870287549088,8.738115706846884,-22.96547852111207,99.41892585517733
4800,-2.020057841555764e-05,0.0022739275061055557,0.2282929651110514,-6.023816394485696,4.444664339433162,-12.930737502782481,99.4350091651081
4820,-0.0657521537953253,0.01740137553049959,0.18632303662916744,5.2839743103477295,-5.380607397702312,3.306353355419847,99.45020990961198
4840,0.013774567927001814,-0.10599945856904208,0.1682266166151577,-1.4616028489364483,-1.70567708287445,9.506429378858755,99.44928815261251
4860,0.04760989568376569,-0.03142139378251175,0.28131718610604606,-25.136100061401017,-9.82136944825453,11.604295480756853,99.4511044050886
4880,0.04327576297522315,0.03148492657039852,0.22327074973473793,6.441983122067396,-4.930898888397929,7.179200086424514,99.46466865196854
4900,-0.07303965301689123,-0.035820978805791125,0.2190710424233008,6.315222725836812,-13.222823019190127,5.050258307486477,99.42755667374045
4920,0.01059932057494322,0.09239725902682312,0.1462651705451043,14.841529750380717,13.705922115741423,-10.443495183727347,99.47353703395228
4940,-0.0026716075432641996,0.008478013325861991,0.19965027395212123,2.783582510839561,-0.4095692589523894,8.747694056996474,99.41523536424428
4960,-0.04075151791128814,-0.07603979558412077,0.23718924033014385,6.054767407512685,-3.7460516929085683,-13.977676488067402,99.45170382366567
4980,-0.05485098143416986,-0.006721316338396341,0.12022700377702689,13.88451933217454,-4.453740383037926,-32.03795459305486,99.46130519761421
5000,0.03903408529766757,0.031009021741132493,0.2134961697692394,-4.47701811251426,-22.021698506733294,0.42632509830816945,99.442837137908
5020,-0.021730545230954322,-0.00901324002500708,0.23475474144480604,-4.4141832497530835,8.593491337682678,-19.863137536828567,99.47333753474179
5040,0.020095346094804137,-0.009760885058204239,0.20146874834445816,-13.37185199180584,1.2526619541082171,-12.613435656567699,99.47474619015561
5060,-0.051049908710083816,0.017336291763084995,0.21042070201806243,16.035535369081806,6.474376137711693,15.227618084737362,99.45083293788075
5080,0.02195617109164616,-0.02760431444270166,0.2231221422472335,-27.134178033751198,4.469196304987104,8.961610447010184,99.4430660235233
5100,-0.005872270082089921,-0.0046989220636665325,0.23500958866581462,-1.2611058608388646,11.544041850839683,-15.433522214910322,99.41477826802235
5120,0.002478176980609515,0.03321581315305346,0.14469300851362712,-15.185450606754092,-1.6133207714769742,-14.858410543993994,99.44183085166323
5140,-0.02754526737815909,-0.009951180548583329,0.2759881112173824,-0.6542719748197755,7.102318275155155,11.428079959608686,99.4567066518924
5160,0.01971255387430315,0.08423075094342074,0.2300610255220989,5.919082245496842,9.194542414395762,-15.607076708896983,99.47040150069331
5180,0.049901040320094556,-0.048957233520571776,0.15452135365544994,-6.108717819399357,2.4268256032621793,12.330376436144405,99.41539764208505
5200,-0.014330536339676537,0.02881380811998195,0.12850853543069324,-19.195535774832507,-1.5341514803594496,-4.52227036818673,99.46859186578457
5220,-0.0004929982601215412,-0.06261675963907237,0.1974620131167326,1.257453669230286,-20.26861579531456,-13.17464634412309,99.44637773914076
5240,0.02359529937312581,-0.04659356119757605,0.15430780004865774,13.442389670086605,2.8045717239663235,-21.004407697961415,99.45543731358624
5260,0.007606224719150331,0.014573741146188113,0.19196314976810985,-3.4809359590780664,-25.863516862689455,2.0029439437552004,99.52209305899919
5280,0.0343100104070215,-0.06673632112890165,0.15434605890435382,-4.145164164849909,2.373302014434532,-6.529504949169954,99.46756720249596
5300,0.0503892740546652,0.005468273687448106,0.2578422983020678,9.017523558415036,7.890394835058398,4.319938192481278,99.44868796648835
5320,-0.05376025461353846,0.07101753333689514,0.10721769019633368,15.215702440736885,4.053465345019512,-1.5485421854307126,99.4317379303623
5340,-0.03568406263906287,-0.026978920294823735,0.2688328182246723,-2.8697929504323794,8.144941288087661,-4.002607839118899,99.47346318105436
5360,-0.08168982152051313,0.09673967336233158,0.10962032590909009,-6.742606981978151,2.218031599685256,-13.86776098499755,99.47791037487386
5380,0.031174284253359066,-0.036557278914919396,0.2070928591686678,7.157352031673432,10.262970722671485,2.685973764355416,99.44070421235733
5400,-0.04038874392184583,-0.027014712995049695,0.27372279815448564,-2.2997321379256155,32.62226836558841,5.477813475851423,99.45134300891694
5420,0.04613498973417598,-0.005474582263859804,0.23585330049878328,22.44523591219663,3.677947418943565,-13.242599924760322,99.44573818986052
5440,0.031579522364705064,-0.07976134543753555,0.18872467422931918,-0.793110060237632,1.1951846463889946,4.633138983042568,99.42446950710858
5460,0.03729682241242268,0.0009853237701482004,0.1974591746250688,8.171035300402345,17.827532313571297,-11.342356971606696,99.45072871012124
5480,-0.01651496209873162,0.0845562798206747,0.21414098997448533,-7.643092930648958,-13.561010747759141,-13.995586547379336,99.43624048611007
5500,-0.030413749591018197,-0.039458753789196055,0.2643362490404005,6.277068972029106,7.955651598440722,7.411660193310128,99.42788255725922
5520,0.011247277363085291,0.0267805880106808,0.2703541211459685,-7.855963266750482,-6.854974059320488,-6.0247361387295655,99.46164711313985
5540,-0.05274264323851344,-0.04749732324565863,0.22148171920717202,5.8304512329635125,15.255370965089075,-10.451652974160503,99.45772282186195
5560,0.042861660523872754,0.010993834228893202,0.19746504593139355,-0.1312100969517553,-0.7717564075884081,-12.064105549495874,99.4188113925287
5580,0.04186058726151723,-0.0602475732680966,0.1663301490488574,24.547192091225106,-4.826395028952367,0.8528849611968947,99.43340406520605
5600,0.05011676467387301,0.07221698650733814,0.19311916089251957,8.692218924316803,11.618270467282215,-5.879566014635604,99.44319885955483
5620,0.016466354081269754,-0.07486387317399688,0.16999952945667735,-1.9431003682804615,5.235484878021837,-14.159778391183053,99.43439579291093
5640,-0.03343943745176527,-0.014099352344866806,0.2497702778114757,-3.7560076624535856,3.039752856979791,8.48828867964744,99.47762377965354
5660,-0.05614315963551861,-0.04622929024709288,0.17665434301537425,4.419761734999087,-8.98509163548204,5.221826676766037,99.43219815592587
5680,-0.05153406314938648,-0.02762089869679027,0.23779924251398188,-4.557609182676886,-15.870231681247816,33.76291981158455,99.43137553029433
5700,-0.05713209020012368,0.008069916103796291,0.19357309722316646,-22.879784674639907,-13.014288278844425,-18.267934719047847,99.44787424794137
5720,-0.01155490751776833,-0.020983528204046573,0.31134309698087076,4.884157002344052,-2.0055058865630455,-0.482770073120658,99.40729029187834
5740,0.016102431193119975,0.08362585875888741,0.21279282356910018,4.761931106173264,13.68347215433128,0.4347246162326799,99.47316600363185
5760,0.06327294246940865,-0.02980099885213557,0.2208061875622131,-3.1643431655626775,0.8832292927965553,-5.4881980142424975,99.45564728819674
5780,0.005827143170869801,-0.07503916511669899,0.1296556921061816,-5.336570411830939,-7.112077434014973,30.12069253011795,99.45651529407927
5800,-0.029151148935642142,-0.025258649953561703,0.22447316134035583,-14.193021885739146,21.287753498602598,12.06850265510324,99.49065822728784
5820,0.027681229685175498,-0.09935981186116138,0.10804930513323917,-5.6413669230415255,7.454679127089306,-16.910877066594246,99.46733084824336
5840,-0.018526015372145026,-0.021601130180640887,0.17727623810795723,-16.2597261144468,17.93051015570914,-11.084176661826888,99.45037894320129
5860,-0.005758865548007182,-0.04343062347675072,0.21495653000002102,10.764172827923279,-5.5504524889068385,1.1237316125839865,99.4838498253575
5880,-0.06339874522072737,-0.05014877556049148,0.15613929743183844,7.19751385637557,5.43850238764525,-7.768796594287546,99.43733302167894
5900,-0.05595760055751943,0.003974204846953527,0.1881474799689643,8.497076313295857,17.74939932488951,16.81765660537685,99.44888135267092
5920,-0.031127563647377732,0.08208187362834185,0.11405267313390816,-1.087540571782105,-6.365237380805547,11.131425091687035,99.4514446421975
5940,-0.007827439282742996,0.01375302616671003,0.1706003106900961,-25.005787180749095,-25.78454663650862,-8.350232153554362,99.44691941161238
5960,0.02214275624343781,0.055468012240641754,0.22405810122337874,-5.429130064929007,14.514547696566954,8.204763041686126,99.44203310387869
5980,-0.04560045287435925,-0.043687047256430245,0.22243794701798145,3.3245878941735496,2.330699950536622,17.134458233538606,99.43177464694324
6000,-0.0003231000068403158,0.03931283206611656,0.25201885666193724,-19.14002146363099,-9.276815254455883,-5.411085108560096,99.43435188755038
6020,0.04694098934307631,-0.026571025820360875,0.22126737999998153,31.58614416797216,-4.5874254165163295,0.6614758117227864,99.4195706683597
6040,-0.04338467193314824,-0.02969252961552872,0.24317573335899023,14.35307067847498,18.160566413069,-4.95484915099851,99.41158571800261
6060,0.03984755485418115,-0.0015087605609391068,0.16217545524826202,-11.219746971466007,-21.959688356394963,-14.750452203226782,99.43703125716553
6080,-0.029789935936453293,-0.0520269216685044,0.13914028399009848,17.599666072984334,0.21260235564435603,-1.9603340296491345,99.40501716904076
6100,-0.024661433029393033,-0.03142853520969054,0.19044028315832823,6.412998098180248,10.71974363042848,-29.736594629412277,99.44817450020739
6120,0.009856307774437134,-0.002593986115764127,0.2135745535592116,-35.08407151544748,10.976698171283068,-5.98956924529101,99.4817687436471
6140,-0.022539692581802332,-0.010056710913540814,0.19875413395299743,-14.42956015774872,-0.728141829372877,-7.804446749555698,99.47215467910313
6160,0.029595009811866926,0.02196490885412647,0.13824869026159822,28.579733839729858,-11.61261941628346,7.264997820870729,99.40516831170613
6180,-0.014154126404140148,0.008451363437261866,0.18781860298859449,15.40478549468341,9.833225658544452,-9.399344640700523,99.43468675209772
6200,-0.04510211262099807,-0.005752221803318514,0.037029621668221574,-8.802780793206344,2.97154090993314,-6.821386449263882,99.45241808834301
6220,-0.044114362880125435,0.06931414660825909,0.14018409613370553,11.417470378874794,12.794282046053748,14.177468257336512,99.46830976841719
6240,-0.005132598192234173,-0.058037175957779644,0.22120132675212595,-27.117181926319784,6.218064535525459,-7.676151832059863,99.45920830494023
6260,0.027631665792589494,-0.002571257719218907,0.23621981474616421,-1.4474436748674098,-10.567834094759975,5.415937018958582,99.46270751731514
6280,-0.055901737145342995,-0.016220762010406776,0.19036498079229555,12.30040548901899,6.523991697863096,5.539665154046298,99.42823389193588
6300,0.055746898991759275,-0.015481064575546218,0.2095929675737059,-8.380263331486873,5.788262329175943,24.043789369705355,99.45459240643235
6320,0.047147785311706186,-0.051472208536842805,0.15684418168890957,-19.216968575794596,-3.162184560371494,13.692178048357665,99.455240397111
6340,-0.07802231146157101,0.11952974601794533,0.2509939638646256,4.164131005360835,8.428254277748824,-0.20359727104037303,99.43852532492605
6360,-0.0011753784109195722,-0.016692749998624423,0.2769543007416673,-7.308963715807185,-0.5964010803386494,7.73850809115832,99.4680911098851
6380,0.06802762253714477,0.023790392018245267,0.21245769454994506,3.855099455110431,3.555721073492401,-11.247217633640537,99.44945620755199
6400,-0.00821124794097084,0.05667108594326719,0.132416114690102,12.053804873049687,-8.005173633003386,8.094511260395468,99.44282399084508
6420,0.010141278540027568,0.10568628500193034,0.1944473742010695,-6.357648392627864,14.876166144811053,-7.54821746976244,99.44367863043024
6440,0.01852744535810169,-0.00574453200109581,0.2361045910178551,-3.8057285650403943,-20.193140434289063,0.4055592891275335,99.47804278234094
6460,0.0021617085235564534,-0.010181511777817287,0.2614308545329036,6.872216130259309,13.050752168827904,15.983880567366807,99.43627253350346
6480,-0.061592789324240386,0.09380146870330956,0.2889597555383575,-10.818107701224374,6.4021479197667865,2.4938651678150547,99.44627448746135
6500,0.07475419975297976,0.019297388800021867,0.19879691229903498,-0.21731265908247757,6.500136433034023,-6.543367067152296,99.46590825770087
6520,0.053852899359276334,-0.040561510297518456,0.14457275752689527,-21.58951804126802,-15.264253913837358,18.435673178759203,99.45424418469608
6540,0.01784817544906162,0.035023306070802646,0.20016582577991318,-6.309497774646816,-9.794609152338637,-14.544369024815225,99.48009529517016
6560,-0.008781590168524865,0.06608427252363255,0.24098848892580552,-14.475389020237499,-16.310153592288234,-4.074177881526438,99.43315454321258
6580,0.05847658658555384,0.04777561354664832,0.18355281714292554,4.734130176098536,-8.573213416697088,-14.481463297772851,99.45732538516889
6600,0.024545030013725832,0.025008556875225064,0.27664551101832824,-13.139021496633232,13.833578312072405,-0.9527376480067515,99.43524220905562
6620,-0.04595130836147233,0.05930877662787455,0.2614533879211968,-9.344459937938735,1.3056531867589674,22.85490039930184,99.46261543316186
6640,0.04347697816032185,-0.014304289398982251,0.24955603049398012,13.168032332240099,17.76411912485196,13.166692212921191,99.43784051746313
6660,-0.0013798455333296506,-0.04246676899843062,0.2483292916465798,-3.296822814485459,-5.842499577386528,-19.70681921804947,99.43002347186743
6680,-0.008173208681194899,-0.01941368966605944,0.2770399593843125,-1.2206405085187937,4.53414337111094,-3.5452722970527564,99.46575438488868
6700,0.02182735067014372,0.0023233161005488195,0.06349751739739992,-17.222657297317998,-1.367384716023809,-8.45363180784243,99.4307328576061
6720,0.03938698545722934,-0.08942024809951483,0.09947839851620777,13.294635881710246,-2.4467194864382606,18.57139646600664,99.4631075440556
6740,-0.00879699764449355,-0.014628810938360296,0.2346460555753372,-8.645213306125838,-8.254673791955483,-6.11119628188878,99.47177502965306
6760,-0.057313085175280526,0.005603710152453736,0.21584358114486288,-0.6993330612975888,4.200552547478377,-28.17674231589295,99.43241802584353
6780,0.02297276614698146,-0.041047076914207926,0.2970505760244788,-4.210742980074551,18.755507846164935,13.419541565412466,99.47120694831526
6800,-0.0036860410575864783,-0.056084803658647646,0.1699591491448279,-30.894972409533178,1.5760128543895904,-5.282260912687594,99.44922035720504
6820,-0.027187142141449135,0.08495508856296054,0.24021658749454008,9.26388213211696,13.987255847908827,1.2211942450375028,99.45613444358347
6840,-0.10191731573435801,-0.03042547902745001,0.20942775868034497,-9.646582659200467,-10.399090907487508,-8.015790586663046,99.46946652777807
6860,0.03304184731000579,-0.07147603233007979,0.2255450933791832,17.568559279613687,1.3194295119546355,5.866701367499223,99.47143097922083
6880,0.06312353509542422,-0.07331516189429661,0.16912934169322677,-1.330283568782435,-11.280092498567015,-4.438660319412867,99.47509758405215
6900,0.009730948856892234,-0.0758576307867276,0.16208380213310244,-20.807783421158,8.59338557277477,2.1927388021097496,99.43171961587535
6920,-0.0012529916286905056,-0.0016809030733802432,0.24565046721781228,-15.612806631836655,-15.112369570105177,4.271369147512579,99.45746999381251
6940,0.02453831076393896,0.023124086291830475,0.17982424209911,-2.734982663757242,-4.826639730440032,11.623727298742809,99.43930561847445
6960,-0.006013651443190238,0.04308380915354658,0.14490567624050868,-12.69013181136884,-9.594033218179042,-1.8678423506186355,99.4401831850294
6980,0.07881499595452704,0.09161719677250352,0.24375437401933112,2.0316724672242206,10.961141245854986,8.40565760576159,99.46784634876772
7000,-0.04437587216491795,-0.05553368224007843,0.16266419758816214,4.0466442678574905,19.07170756693921,5.373979964612637,99.45886029764856
7020,0.059629899778393114,-0.031268448261277816,0.27080447921027245,9.559247925230796,2.098837973461698,-18.352139076023967,99.48277648769097
7040,-0.02956390243337191,-0.026075094631248404,0.2124910388566508,9.79704545792909,10.777595110728887,-7.919812314362605,99.47943088087784
7060,0.015583329927660334,-0.06007302904392395,0.17092071569522874,16.213080923867068,-15.64857542566156,8.158214131392853,99.41253434638553
7080,-0.01733316451333232,-0.01298858367683426,0.2714997870740504,20.212603194867338,6.338355144296616,19.413852086295318,99.46328668683834
7100,0.01476473619487628,-0.07011773246153971,0.07245438521650979,6.29054000517181,-6.900976716440856,19.136056963321927,99.42664857251839
7120,-0.05067068948128835,-0.015840006129339366,0.25674439381660935,9.969215236636797,16.180512488423485,-4.669194485327864,99.42644032618308
7140,0.04046406330243902,0.005315622467795277,0.15800071701750182,10.47160003923767,-9.127508191674895,-34.69419289295211,99.47423266949855
7160,-0.03734771890963289,0.031522212164055596,0.1472289346658748,-1.089088391148414,0.8668947668420692,-23.10753426679338,99.43328536250107
7180,-0.009943127285746079,0.021045983463346563,0.08834030594125973,3.6478810827806987,3.8957116769595332,-11.989606794012317,99.45375788566271
7200,0.07267523600783661,0.10959434195020885,0.2729949155580042,-7.1833358000298215,-5.433891580656699,7.555320231701938,99.44886736376242
7220,-0.006963200271243023,0.01357705321737767,0.24482244586566906,-6.285261002223476,9.903831798379922,18.434627916608598,99.44914430990933
7240,0.01705601343971957,0.01261112504423955,0.17668968460793066,5.741474264016311,29.828883594874988,11.927055959900475,99.44744228614576
7260,-0.0995088302305897,0.03543699389118559,0.2474748675173188,21.332900236893355,-8.929415426906898,17.26169698831301,99.48840348124729
7280,0.032681635782999215,-0.05898474492272309,0.19923054039081628,-12.858977951208407,9.160900123276704,-19.532101900425914,99.41143496952841
7300,-0.021496496048528754,0.04400826229289659,0.2498157140414658,1.1963427254036507,-3.8846040210101873,-21.05934544524565,99.43170402637624
7320,-0.03748141099171575,-0.024309675558842975,0.23153703261685768,-19.640755920396938,-0.9443383479360168,2.5776314350439202,99.43653394841164
7340,-0.07509346282645507,-0.011513552672612427,0.17898640120502318,7.333499425918436,17.315426786531916,5.212715167542742,99.47702239564127
7360,0.09962724677761597,0.06101654185667166,0.2000331921762155,-7.710451427817343,-0.2187999194855422,14.223351087995951,99.4380450794584
7380,-0.06159824944208603,0.0179504127191699,0.22395970500108028,2.5218342682476487,-4.545229471859086,-1.8433226555422884,99.41058044087951
7400,0.0720383089260516,-0.013460914894102408,0.1860883423757748,-2.1556800196321535,9.261694241139313,-21.3134923180033,99.43044590492683
7420,0.09836390312637401,0.02104078654059274,0.14601956396870666,-2.851056335153384,-2.6881035100372506,-0.3102921067334987,99.45773590230596
7440,0.05535439824871133,0.03612050507093271,0.20651917178507898,1.2577584237474793,-3.2188814635775493,-11.516039303331478,99.46814753180107
7460,0.02582470721643465,0.07550704980246536,0.18130826902173947,5.632458228523558,11.30829592806103,18.91729853940508,99.416158719908
7480,-0.01422322365045087,-0.007540626062535978,0.22739817694750808,-19.82406963961444,17.988068025301803,2.159028228844557,99.49086995498239
7500,0.0020983839713280207,-0.036965101242311386,0.17359483910842188,9.508618707743288,5.458375442595434,7.214554377722649,99.49335800995956
7520,-0.014451193540727809,0.005584274409123353,0.22389323204244582,5.621898993740316,17.023599273511692,-8.998219456060959,99.45496757228217
7540,-0.009093672340948229,-0.016531822419993857,0.24283548755516593,-6.180739369509451,13.4799774379659,5.52231474066353,99.44620071376295
7560,-0.0764451421141441,-0.014369406768363341,0.18353084055803429,-3.5754748577293993,-1.7579899226821267,7.296998149972305,99.44624611582799
7580,0.019844109994174255,-0.01718655353822327,0.16284988517704743,17.997954425254132,-5.041826515883599,11.056668032348293,99.47792450433242
7600,0.016957412479414482,0.004110082608980772,0.18628451738984217,-18.975400628864037,-2.259689621906066,-19.698780982674833,99.44745787388585
7620,0.08395828662955263,0.0789896095944268,0.18936940108574662,10.55913393480406,-6.303158487763838,-5.933018737050462,99.431316360513
7640,0.06684269395658356,-0.017183223384756037,0.14641622785094363,8.871797364066268,9.812562106188842,-7.802545165844797,99.44512248530853
7660,-0.01953942434418539,-0.0003139907957863587,0.19964193266368632,13.591734524826242,-7.521818509285946,3.7287811352044513,99.41927674306717
7680,0.00911449352625226,-0.042864429566299087,0.13188809968994192,-6.204921491048001,-8.028554138740963,7.520170609630799,99.45202582877684
7700,-0.039552253854526806,-0.04793691703703881,0.24517451479519298,-9.364441123975567,-14.980710455708014,-14.148596555788862,99.47855297091309
7720,0.031688293904826345,0.03716534539927425,0.15583212684169645,3.094054676042663,25.301655035645645,-6.520128720089431,99.4602717330555
7740,0.0524933479458929,-0.06402951282246916,0.16950403616637333,-1.4282944154812107,-27.80888729062091,4.628433028655668,99.47300692545662
7760,-0.022801919114078598,-0.06278888157628208,0.27181672631360226,1.107189826699647,-0.8325832844225514,-12.263744694466794,99.4796897022068
7780,0.022050583136808417,-0.05448385030814065,0.24323808381694018,-8.98833364825615,10.66273168984008,-2.079786876456341,99.43262347552161
7800,0.06477534961104507,-0.108047810733344,0.25046267679964934,-0.011179952815211487,10.928276584673853,1.9067797298783722,99.45200130663206
7820,0.03469844278877357,0.011459387081499784,0.1580352253582461,35.22940146632066,13.392488549859202,-6.7754232414164335,99.4635143268395
7840,-0.04524078065518204,-0.09736245477584647,0.15187930997220253,2.7216499946847414,-0.9735123951724871,-8.5213321448762,99.46296213425298
7860,0.012590259520947854,0.017595064132358944,0.13511771103270218,11.711829180908673,-20.15695108499479,-1.7881928731030934,99.46972433229591
7880,-0.123022684050992,0.001419351854701639,0.196783655658616,-17.625873020329983,7.237113527328628,-4.086530491788049,99.40999575396458
7900,0.007991521027025827,-0.0616675497023359,0.2115725661269334,1.350621189274765,-5.49776119352237,-10.503702588151686,99.47447189582897
7920,-0.03499289267166333,-0.03143902326886337,0.2200477589583957,-16.61443984689237,-19.991596557531267,-8.809756108693627,99.44615209510576
7940,0.005899898510409529,-0.07476971378399909,0.10510127911762045,2.077869789883021,15.187388665089507,-7.107371139114254,99.4700874311638
7960,-0.03146838470569751,0.0067336599994445474,0.2219355810913772,-5.9815758115503685,10.84100731605641,19.080090439054576,99.42700179112855
7980,0.03947231571607684,-0.035299113933059977,0.19319650043107944,-23.34328668750028,-17.826361885848836,-9.852889507660292,99.45864728513132
