timestamp_ms,acc_x,acc_y,acc_z,gyro_x,gyro_y,gyro_z,baro_m
0,0.005030293864062619,0.14511112774876783,0.9933565511035111,-8.533279944729397,-2.178329703202231,-6.931362499863363,99.99782709848692
20,0.045042156919810214,-0.01747803294594388,1.0770368126806873,-1.8845335697297183,12.277728171157165,-7.535446464530426,100.00718021782912
40,0.020081616923739092,-0.07228823564404482,1.028010678785262,-6.26964019521299,23.578657436582244,-24.08972806864619,100.01412774318995
60,0.013509836328254688,0.014183175185751067,0.9435806057706038,-7.6261687152345505,9.941820228369343,-6.1902509996444826,100.00356701727385
80,-0.021141493131906205,0.011522450004451285,0.9922264871608965,-5.892572738242056,-21.02283937348724,-22.96952818939549,100.01276024514902
100,0.02377329641369366,0.058279922920068505,0.910209831668393,13.732144103018602,19.81517603941719,3.4970700959140997,99.98631645371549
120,-0.005044028107399668,0.0272939837133583,0.9036379823657906,-8.648142831555568,-18.4922940201636,-2.2610196034347156,99.99967335842454
140,-0.010530735915051326,0.024920724914537375,0.9708133424242823,3.080787224505431,-22.79050461454998,5.497686426779804,99.99707401674203
160,-0.05521431163683426,0.007316304585111973,0.9971302249457223,-5.542816736930991,16.864361990684017,6.282105838567073,99.98971561693945
180,0.00225118559557185,-0.06358886012596608,0.9336220921382455,8.622466561008958,-2.596903450954621,-6.92672966307188,99.9978167222249
200,0.0863089102389142,0.06418291754099771,1.134802872129123,-10.35748569270603,16.021788928139063,6.994758825687484,100.01197114945501
220,-0.05659551479031605,0.0132349730134714,1.0115306316346944,0.33767089103583975,-1.6877318445679057,-1.96161780777372,99.98383244374351
240,-0.033817355974222495,0.03143375928678639,0.9531295075493832,12.172055588947686,15.864664339807213,18.251590556542546,100.00062606582732
260,0.00956004978954157,-0.024613750912314505,1.1008189495507592,-20.88493474355632,2.685837493880002,-21.125223321339632,99.99615577309254
280,0.0024539305448690435,-0.032307377219115,1.0102373112388088,-1.938753041802074,6.5433518352502915,-3.345524455541966,100.02314599503576
300,-0.02283763739133208,-0.06688328506523121,0.9869856229768796,-1.7546740765440583,5.314693289811871,15.677747412614575,100.02570906137261
320,-0.024614864675895007,-0.028981829022751718,1.0205444184321304,-4.398924905702273,9.045721796161002,-13.193736521584288,99.98762757867983
340,-0.001973663201314638,-0.08770522603164671,1.0825666367530782,-7.983807719635216,11.173451578941599,8.423309188478699,100.0211673748356
360,-0.022886579475090853,0.009831749210916046,1.1173317950524828,-5.359077253404733,9.012362002264522,-8.791672977304891,100.011188309275
380,-0.09338193966107464,0.1060400682677357,1.0597985958106781,-8.476097225702334,13.475051638866724,-9.686765735125451,99.98562293939085
400,0.026188247797332132,0.036148099125431765,1.017793856307303,-7.806254843262186,-3.7508727580541565,5.106065647575825,100.00434380661933
420,-0.011484387909077229,-0.06722125256832155,0.9966844586279064,2.34496595211649,7.981296144537728,6.040999991360666,99.98595293273736
440,-0.06806285941787181,0.045108504968846636,0.9470208954967467,13.41659790218338,-8.1964473735606,-2.6217767415579436,99.99228642699313
460,-0.04534983387655028,0.09465043894338462,0.9844975401795786,-5.235428325643655,6.250901761686821,-11.776292754863167,99.98887095521107
480,-0.08120520982340262,0.054708077228823794,0.9616502690208012,2.2528942042594506,2.6689700348305685,-3.8081973523449726,100.01326895733693
500,0.0719978258448363,-0.05430212210083485,0.9805933738796132,-39.15120725322255,-9.959216160395947,20.284505844647963,99.99783100237856
520,-0.01873251060026006,-0.00019361219363083596,1.0631256154393252,4.227799154458628,-15.116183133923233,-10.603190685596246,99.98218529441077
540,0.01085377324656353,-0.0013366789183651246,1.0398437465128259,-13.060800632235804,-21.664500569533367,11.780408550497661,100.00857230674696
560,0.0059963450898485844,0.010592211709038804,1.0371386008078798,-0.3583014230774264,1.0712528373857766,-0.7150215934158145,100.0185443305553
580,-0.034191400619196975,-0.016442875547877225,0.9655209999223413,-4.494473743240839,-8.11344765840524,3.3687792886004866,99.98147629551036
600,0.010243402307871016,0.045695190157996946,1.0225363575725344,-12.975211576031008,6.191699842153035,-25.010741431802465,99.97329740375635
620,0.016779467448275104,-0.01387736576194401,1.02881416885807,-9.593317015124978,10.787291391122501,-8.45657472847458,99.98812421090804
640,0.07233751388829171,-0.02044719690083635,0.9118899075665484,5.065219492915501,-2.896481691138141,1.9431069213764176,100.00299982702893
660,0.04537141442327101,0.1517511922232906,1.0651337835475845,0.7087027514246704,3.258407002789049,8.385803345960653,100.02536853178279
680,0.011576960305934978,-0.0027441450687322815,0.9745386729042697,5.713275945360604,2.2027217416306195,13.40256606852616,99.99749958924708
700,-0.02898042022252506,-0.001327365645355988,0.9955211315346679,-0.45588650152633026,-8.79696655904428,13.45473738144103,99.96323463804066
720,-0.026685940949813015,-0.10655564232115916,0.9471936053384957,-12.469481199349447,14.332723922742456,11.887959749862379,99.98094146812673
740,0.011723937369971441,-0.06615924278387429,1.0012193799569924,2.4105222423154546,-15.06900469919329,-5.749356558547885,100.00562027205676
760,-0.009110285567411497,0.048689857030774726,0.967528593505265,-5.587087269675324,12.117204418706827,-14.183169282661433,100.03458356313767
780,0.05003213203327217,0.021416355438184535,1.0426199694143803,-20.838028825068314,17.126587091568318,1.0568951350165774,100.00898788172819
800,0.021835338886162507,-0.041566603468559594,0.9569833677462637,-29.51844382155536,10.499186204799507,-8.739756425972745,99.99074253825566
820,0.0673984117469033,-0.04066043786033305,1.036640473327279,12.80570930475621,-9.80175617331798,-1.60502015112797,99.97059498009264
840,-0.007679088700682292,-0.034976042474683416,1.0235180107312205,1.8162916076349642,-2.298085693904155,-17.243820571929366,100.00656693241885
860,0.06496347684871624,-0.05099704438082075,0.9801363595870753,11.406763874625653,-3.4969296041923155,7.650288891632069,100.0100814171179
880,-0.08322176887308708,-0.10885440685616526,0.9927288948931078,-0.009742826770518085,5.999077744689252,19.284040913523075,99.99734641499936
900,-0.011418566064832443,-0.03180220776307604,1.0330420007095753,-26.350528831286653,-0.010716387707839739,-7.9679510645612055,99.99441705874133
920,0.008895564537530714,-0.07486887644065429,1.0290974000562296,-3.6205336929588228,-11.690659660118385,2.5768489969855515,100.0163333613613
940,-0.0002893836952047391,-0.03163548147762699,1.0942378045370238,7.665501469423219,-9.354704288300054,-14.326682456979249,99.99901323543361
960,0.03448414694440469,0.025813795375503996,0.8951720547579235,0.8607874993811055,3.9333181370032944,-17.976345031579914,100.02364842700014
980,0.0006648839935355154,-0.07494946600881253,1.0086992446747507,10.859032860712482,-17.807518778388154,9.508952037696218,100.00548890356994
1000,-0.02271211280819667,-0.012144938506463004,1.0897676358290835,-18.66926163514068,-25.610377364018134,2.3533838824892706,100.00293415003684
1020,-0.0876636066990907,-0.004781624887719104,0.9850329532876442,-1.2795181672055715,2.824808377149629,21.51334375383725,100.00155137655197
1040,-0.06894701848411917,0.03830415803076043,0.9701750607394549,-15.123071090744274,6.496185881850259,11.913783908218928,99.98938676930976
1060,-0.042694108184209635,-0.0140543288117937,0.921247647879117,-15.787638623131048,1.1744143580408317,-18.00613688291878,100.03853258757768
1080,-0.0723557372179094,-0.02691771852721952,1.0437592968280403,4.393175812085537,17.139097779131948,-4.627173602175715,99.97730408063377
1100,0.012294289707912883,-0.02582223320577472,0.9603009035589751,-15.017890770782623,-3.295503879978713,-3.676976913092262,100.00090476625411
1120,-0.0033907630709718753,-0.056429567778261996,0.9182695891583785,-1.4945373298186944,6.19866516397803,-3.665730823668061,99.98965098024551
1140,0.0770763192309965,-0.013336897751792705,0.9149496157938615,-29.26842710932456,-8.013762884070541,10.644516303420914,100.00198209078552
1160,-0.07637708070527754,-0.046064783333848475,1.0036558322701254,12.2547146465601,12.295774598926652,-10.310800883399256,100.01049741015339
1180,-0.04138574086199352,-0.03841089827313651,0.9136746984449866,-12.66687156106737,17.406859575540686,8.001480838026625,100.01676888099364
1200,-0.02587139079741962,-0.0023416739775579715,0.9113558487115194,18.182668736298815,-7.306243612783503,4.152179301282626,99.97944608127217
1220,-0.001435645167844158,-0.02889322727532701,1.013376887884421,10.240225880439212,7.711446407494905,28.719743139981148,99.99395828210382
1240,0.0621267378632818,0.09237369099118407,0.9760636297902777,-20.180052843966124,-3.1730888115856826,9.212703548201754,100.01678286427872
1260,0.07402041079801246,-0.01135448823967606,1.0005802200864178,-23.357640826414393,-0.4974984152966071,-23.36409542258794,99.99737872710965
1280,-0.02513075515911777,0.07203833850785835,0.8950411859221723,9.40601902555347,0.734750590107257,7.445370101940411,100.01438505327528
1300,-0.027739903668969626,0.06719856876947188,1.0872564862942409,19.065784529875444,18.090981861712784,-18.43097992863189,100.00602781028935
1320,-0.007595253271173958,-0.1098093911013107,0.9757331335407752,-8.03163618933371,-7.59060574932356,-1.7299840706532086,99.95282812450509
1340,-0.008496166119404954,0.07018021158845783,1.0135826570816298,-5.798528677293582,-3.1856172967344785,-25.12716564242446,100.02146350184721
1360,-0.013279742060753892,-0.023235876115347463,1.0146424946155552,-8.159005916515744,26.298830119528922,-28.289697085990902,100.01001839028135
1380,-0.01284663119479356,-0.028041464203931346,1.0573948693198711,7.872573762176936,4.467263197465213,25.861206841176255,99.9780009218496
1400,-0.01499756555230116,-0.025217646563792565,1.0406918160074645,-0.3146508633570616,-5.820221520160214,2.0524019918421823,99.96827308021051
1420,-0.0649848679503449,0.07115662798875684,0.9540149630431312,-12.43590034341836,-10.369523096350775,13.320225458798788,100.04013614485551
1440,-0.01529126088780601,-0.015215197610564375,1.0118747858006805,12.696743445252022,-10.043797150442916,5.7725445825451285,100.03246933800138
1460,0.08818185218578384,-0.037183953055753984,0.9635782559527815,-0.4879050218014224,-11.264768931031602,17.88948037021006,100.011616425769
1480,-0.08653170305302295,0.046538677779228654,0.9599466861889078,7.1339797790393185,-11.489820815146318,-20.414277727708786,99.97639708962446
1500,-0.0219559034481424,-0.03779420147140786,1.0333443270898925,-13.400181862431609,14.131835688451357,-11.603638366112287,99.9940778539639
1520,0.0066805487877195915,-0.01952506842136101,0.9860754825934046,-8.01409461759901,25.853514735620447,-6.228230215343342,99.98850569505666
1540,0.06869045794949145,0.04315575471956323,0.9692387774038774,6.423125032457037,23.36628543383062,4.7324548182588355,99.99523563199914
1560,-0.10167690357359992,-0.013613535218179339,0.9881488516993702,-2.844686494010917,13.726593460955986,-7.2378567785988555,100.00726251699906
1580,0.002350847967684035,0.03711150803031878,0.9980138483057319,-15.964537727725023,10.602807337242758,2.27792197847954,100.00759857017131
1600,-0.026405329296260518,-0.022314214966333776,1.0210055929425104,4.8361411870302735,-16.395661919243327,-9.47099253467991,100.00936238267279
1620,0.05048524375087944,0.05540638110521803,1.0249559904112884,3.2919672335387684,8.674922053460733,19.547104575872478,99.95435048361514
1640,-0.03684327137648806,0.01863348266570668,1.0173258632584288,-0.2145677567030712,-10.444036292066901,9.841533978691734,100.0119750235777
1660,0.029284869994163406,0.0722071545597894,0.958574042857838,0.509020110893712,5.777403827147525,-1.7732151527955677,99.98173531920389
1680,0.011192787918411107,0.008129126781631265,1.0599756691537925,24.087688780064408,1.9302806673192854,3.4515733663178105,100.00741773855768
1700,-0.002302203914598627,-0.08438347231674241,1.054832095098506,5.118059758941248,17.997844778866202,-3.082873155706096,100.01832075217979
1720,-0.030947667993960044,0.0691426888112279,0.9279912790845433,2.6011862300846316,6.112106753262731,-12.221991300819845,100.02104974010591
1740,-0.05060604885585999,0.07150813793748888,0.9323728645880933,17.66119691948512,-1.5611252961401094,2.1954527362912,99.99508807639542
1760,0.00960221028776008,-0.009836106881086056,0.9787486557462473,-6.684949536037314,6.450822712205486,-8.262733439106533,100.00974094040605
1780,0.05387126271587868,-0.020081402079236435,1.0221354269467218,-18.32985480701248,-6.981994459988641,-19.907158322834874,99.97117605437529
1800,-0.012646407047034285,0.035507140164946625,1.040104983472019,-12.944595532163671,-7.021352015668896,-8.722674067542918,100.00167998432924
1820,0.10985122624875704,0.07481198682046732,0.9228476244079201,-2.891091115190124,-6.058142561059688,-4.1944389490197915,99.9801837811277
1840,-0.05373833910999764,-0.012719722664618663,1.0691031501853754,-10.920704919164587,16.84385367818975,5.7966960416286,99.9721483898203
1860,0.05286633101823739,0.08564925101967684,1.0582270159050666,-17.22189660745073,-5.336756724507215,17.78355345880963,100.02362349894362
1880,-0.06510302639447764,0.026340033216918548,1.0370225857604423,9.726262389713828,6.693098942920888,12.973448032462034,99.99684817187247
1900,0.034455524331808284,0.10223714492708047,1.014956434014349,1.8606922932864702,6.789356944668896,8.678328145709202,99.99999940710114
1920,0.05334884268517024,0.013191178907898225,0.9789160163113613,0.2803695635105136,4.497330926576601,-9.195652718039,100.00514318058902
1940,-0.08795137712016368,-0.004047604171832816,0.9952429671875627,28.99808500809879,-2.9499456905242236,-1.2089511595794136,99.96799410796474
1960,0.07206083556492171,0.1367189634702278,0.9241113578826117,17.43678296204078,-25.607266934540224,20.10019121903037,100.01781707669396
1980,0.07338633401614106,-0.07219361274890512,0.9535970419443819,-6.145631874245698,-10.482522371508486,6.3336064198789295,99.98356860559761
2000,0.042784650360600154,0.016979520003371804,1.052635978450827,-4.570767447915723,-2.5093187318668293,-11.9013260774502,100.01541922679665
2020,0.034356719567057416,-0.08068901436904821,1.0414300961415361,-1.6867301116451168,9.801585749848206,13.978385481441597,99.97102719984811
2040,0.025797855697465434,0.03460015714380522,0.9569860153635384,12.940393545362275,-9.398886180399781,-12.145608412306686,99.98046078654046
2060,-0.044451784770880985,0.011012370640741363,0.9757885343155424,0.5314392676696162,3.891591385231487,-4.343502702219056,100.009929529342
2080,0.04148611653010156,0.04108458268667265,0.9053080995051355,-12.842681562502682,-8.07441152595016,-27.706454498870848,100.02339016414827
2100,-0.013487361044951563,-0.041174471517613116,1.0601171980346529,-30.25942399744782,-12.748346915852764,-13.06148477878224,100.02983155559025
2120,0.019348527764633514,0.04114169830312057,1.0209413659820386,-14.82456643935533,0.4401170403732161,16.49532764275781,100.0107326922396
2140,-0.01124716778681885,-0.03428934154459245,0.9889083699666185,-1.5504523833565302,-0.887668945387927,-0.26115370350700357,100.00540643413673
2160,-0.06727724252778776,-0.01682184939271568,1.0027946003492203,10.175289917655975,-8.993082628421721,5.6889835603764585,100.00478020612358
2180,-0.023465196491075806,0.016150933673204654,0.9988520726556587,-2.7364493130428134,4.760815197420985,-9.004840207306462,99.99396241703074
2200,-0.022397967518086252,-0.0005431352273808765,1.000891893940087,0.6522384328816736,12.71010925271252,-3.2425055828115044,99.97513036593195
2220,0.04967007277545918,-0.026311342701320517,0.9438811642318512,-1.5262675153091325,6.457348473993509,-23.162102971638262,100.01799689290877
2240,-0.03311735991610504,0.06088769600261889,1.0285720078784402,29.079534901017325,20.311550999772077,7.787358372416933,100.00796269722947
2260,-0.08475362990989689,-0.022926150324097214,0.9725241005525115,-3.8179402677786953,-16.768583520781945,-4.811754846478033,100.01309367645406
2280,-0.0232916646722171,-0.02153239220295261,1.07091747031547,-5.251769127881879,14.60164717690169,6.30065697675483,100.00223099971727
2300,-0.007269031216188728,-0.01487817146348208,0.974492519345097,10.934382824129202,13.1006132775787,-10.522099236042056,100.03920413378418
2320,0.0012572633895648875,-0.009527766944193737,0.9821051100793341,6.270123400616278,7.911665806355428,-4.762133364427267,99.99504192044569
2340,0.06663385249503993,0.04453336235660358,0.9452013921615132,1.5094884902483154,-16.047129937903765,-3.6771555652505454,100.02005397570878
2360,-0.04329987848614176,-0.07527374376003383,0.9995839815362769,9.678410786870586,-8.596618983409602,9.682670658751718,99.99738818800368
2380,-0.011605844667574299,-0.024944475310745444,1.040245005115354,-15.367133057772513,6.696137976639692,2.175694909272341,99.96907058950158
2400,-0.002099034803303539,0.040522894869323624,0.9706691309232042,24.72153711452298,-10.209952485517423,22.554944271916074,100.01475926687839
2420,-0.05363736691208957,-0.07057072376133404,1.0578075674491518,8.771198070374297,-4.795818900581515,11.491309033038474,100.00391812533138
2440,-0.06364276142232195,-0.040046870331729406,1.0373669908911423,-12.332025588796924,-3.858976469341008,19.07254351276437,99.9787203589463
2460,-0.012478255367346322,-0.08582268957913193,1.0096792106395813,-7.443450964311464,10.807260593175064,18.62288424003838,99.96505353005428
2480,0.018940241139240508,0.015375497579782972,0.9938383037685367,6.381071552467521,6.006292318946109,-6.7066985419873015,100.01829840229998
2500,-0.09582700773374137,-0.002361472339512078,1.0046446149897945,-20.06139541740434,5.784395358211166,6.10862462955107,100.00267918504294
2520,0.07194945907063101,-0.0069314490931602375,0.9527474789852339,-11.56586952722769,-13.068691296968847,-17.976363648726046,100.01830097383909
2540,-0.07526131555325799,-0.0852171044355134,1.0057979885008423,16.669205872194915,-18.736084123584078,-9.863395821527824,99.97427687465029
2560,0.06764401937769189,0.017399863038740502,0.9394902562597425,-8.933339888515732,-21.90579275559457,16.359167964783225,100.04598406644574
2580,-0.050573482759474334,0.03181574831764546,1.05086176992568,-4.1296776618986515,-25.33158225316347,2.5559161834154334,100.0200487243817
2600,-0.07409927682953685,0.03437898781588126,0.9847493688052951,2.002179114198873,17.604280443120377,-24.893257579330392,99.98328804365315
2620,0.03222190980732861,-0.05009341419660773,0.9898509921921155,5.858441604853213,0.6080772435813611,13.806051742249835,100.00930730693419
2640,0.02154974279436608,0.06935407162424302,1.0025975958616975,-8.450340407498993,4.563440456135649,-2.8521065978837146,99.99467715567083
2660,-0.027245232751813293,0.022056968661664268,1.0360105821325367,0.08651738162441404,-3.0525295160401575,-14.211768857621681,100.02296884765771
2680,-0.008232045205539492,-0.039586881219685795,1.0908495277939982,-10.304344581907058,-16.325591544377996,-7.1235033559744005,100.01403033558337
2700,-0.06938021276376555,-0.018942371532489424,1.056414189587305,-11.36892891509507,-3.2885126225654773,4.826705275618208,99.97597821081018
2720,-0.12497607743230055,0.06560914636883279,0.9954650445559736,5.392318397280195,0.12217338935483617,-13.950948504613233,100.00134331728182
2740,0.016905530180929766,0.01711176409627214,1.033419488966706,23.685829270327037,2.2146074669229585,15.583340264139643,100.00274104466092
2760,-0.10773890524635606,0.056305416312166505,1.0579641862153948,-12.67898811749425,-20.558193728899447,-7.326834813157459,99.9859953707165
2780,0.026675070578977885,0.05193778496175543,0.9825978550459803,-5.702736544151184,-9.461950673994542,-8.851206800307233,99.97994979937496
2800,0.028940901295189527,0.0577307654390262,0.9751982382689354,5.733046782089753,-12.032906497451291,12.805225681597111,100.01285164368814
2820,-0.04444196341555125,-0.053594658369007286,1.0429709369182332,1.7034989090578687,-2.7879967407242363,15.645644898009742,100.0015532782077
2840,0.0637144951169616,0.013055287114471091,1.0957251270766126,-10.679322516535438,-11.3186031455411,8.727821780746588,100.01456553373282
2860,-0.06000631753904554,0.05248276626180799,0.9851517594563466,0.06963722989897916,20.816008919251974,11.989728791259525,100.0146589162624
2880,-0.023699920356309814,-0.03208117702485016,1.0109472190468258,4.889735379892756,-1.932051817137658,-0.9392331301291006,100.00347652206766
2900,-0.011860632399132943,-0.033734441505201655,1.0921991748632796,15.759065851988225,-10.082170315154055,6.681867056551027,99.9810489838112
2920,-0.052379170844360716,-0.014401434954152205,1.0367541712044934,-0.7624816545315772,28.78067043792,7.568580921561301,100.01464817224351
2940,-0.041407607384816476,-0.011814627867867626,1.0907782102704844,-12.994138134600691,3.7262235223350664,-9.748995790652211,100.00418237720234
2960,0.007878734246978993,0.059501658801422885,1.0045753476804518,-5.636864797917017,0.8768440256799508,-11.376395759012311,100.0182834969381
2980,-0.020294342831090235,0.07826358590507082,1.0513604358944628,-32.20857116225675,15.4570144876064,-5.304774776484292,99.98100270291921
3000,1.9788084956491956,2.0196540165069394,4.301730623764935,323.02296141602176,329.45136759167013,344.5419995135195,99.97933657945505
3020,1.9247607164176932,1.914284538179567,4.3824682143071945,349.6754128567762,356.52554276216614,344.48491784222324,99.47951771450629
3040,2.0234521157455223,2.032234040770122,4.188659427862206,360.01652352742565,350.8864906451016,362.3146678682522,99.47897290344025
3060,1.9698554719016779,2.0473501252292747,4.326795783969067,344.77854451636045,340.1454681576779,338.06614444104093,99.41414178332937
3080,1.9894645996969298,2.0769034527404022,4.316826817847301,314.48588136712357,357.26274853494994,340.76921545739015,99.46837484887766
3100,0.04531720494208131,0.14243360660622867,1.0773545971485095,345.5790182314054,348.3285223895463,362.4129166512038,99.47906476112621
3120,-0.05067342336738837,-0.004357014052337949,0.23382759337470035,335.95474182473777,339.55571561248047,332.3595957897728,99.45519502348276
3140,-0.015060070531301132,-0.004133483626891158,0.2383900087352165,339.01377001075457,359.4664318152791,339.4187481229006,99.4354106975733
3160,-0.019099299086848313,0.0426211916734871,0.23310995176708427,4.675199985084981,-2.275964342773205,4.6114064793219445,99.43974738299868
3180,-0.04736293829955265,-0.005716926723562413,0.20166882608152645,-7.576454063370607,25.82157800374608,-9.33986209456475,99.44989451506962
3200,0.05408799177488767,0.003433514543297676,0.2691856126854996,-6.748692906755723,-12.428645569327845,-8.61610257492883,99.44911700961175
3220,0.007621911585663742,0.06793261181281814,0.23154177230542264,0.1471148497699126,-1.1997181505740515,7.427219274339901,99.4640749415122
3240,0.062076281217687004,0.03896896935319277,0.2822822689641731,-20.794474734717188,3.1758677008845755,-6.923336123115119,99.4081527890551
3260,0.01560414109142872,0.042178793425655864,0.18634439645685097,-10.159127312731222,-4.762746413419914,5.123178174048295,99.46964367355916
3280,-0.053062658626875425,-0.006672416803375464,0.18105044118685365,21.687166146374512,-21.39331914182737,5.7721188046615834,99.43758925739283
3300,0.06835751389023383,0.012247010837441862,0.22918146509228732,-13.704855760222491,1.29451609779865,7.8949502781254814,99.44025824758825
3320,0.06715456014872294,0.027301549590973525,0.18119922138435018,17.607696179390256,7.8272535723582415,-10.058517928550241,99.47886732166701
3340,-0.021946590559365844,0.05652687238465595,0.178452775627542,-3.112225769612157,12.641120125039826,-1.029243926608881,99.42303143658192
3360,0.049256905646752634,-0.0230682099830401,0.1899710187396894,-5.827372188706429,-5.105277522871014,-6.786258658654885,99.45475312745312
3380,0.01583122012625014,0.09342944683808684,0.26989025509841713,15.694044963164147,3.411152510401793,-10.491525351750935,99.45760462962663
3400,-0.10487945949470406,0.006403909807263857,0.2654428615199612,-2.5990948224293655,17.778086597554775,-13.63546484442757,99.44373634127689
3420,-0.03862169414747069,0.04045067754313824,0.2294111403476746,1.769659895633496,-14.699080344718208,-3.5908080089914556,99.42501109961866
3440,0.01623984311870986,-0.09092087149081549,0.1724647900353542,14.120743688586671,7.7284135456053855,-10.517688559090498,99.4644268087328
3460,0.03329607687338409,-0.046555614589390476,0.15155523908841448,-7.2737512591078115,3.370851512879579,-0.05935476471656366,99.48618093000213
3480,0.038813176597590086,0.0009113090053981974,0.18810018991622207,4.303474843393172,10.502521618570874,1.047403502785564,99.45355660092378
3500,0.005101488994933078,0.012663928323617811,0.24933401740490022,7.546601956377996,-2.8379817276617954,9.016707191561935,99.45209862910501
3520,0.022390621414806494,0.028877709134979862,0.07446765313765533,7.137166346807013,-0.7692436654910992,13.08230886381174,99.4383643041095
3540,0.009514950531017925,0.014008697610523042,0.3147328454193402,-1.6485493253830725,10.556957323018265,1.5290286908291537,99.4489973918932
3560,-0.005234822597049961,-0.12007915348978578,0.2387445489014966,-12.147994895874115,-16.808476476560692,13.216269382545246,99.45919145121209
3580,0.04869028254973376,0.030132173072008068,0.122710778335579,-20.174413291070607,-25.990053919764986,3.354909580388173,99.4716151451451
3600,0.005252286127965436,-0.0066765238403841565,0.1690690302581512,2.2278443370525975,15.056337980688529,-14.382341226351048,99.43035339543657
3620,0.016716181739755406,0.04272245660950443,0.13139906145192565,-0.14791439146710295,16.157975417950404,10.932914419229876,99.47063829812605
3640,-0.009273582028290468,-0.0053843856382341905,0.20547111939186072,12.848295402674701,-0.09730909470328505,6.079326314097101,99.45095095873457
3660,-0.07263937847624438,0.0052287373890496066,0.24457183916801617,20.016534170033154,11.60108403683775,3.1809677596519705,99.4693863829418
3680,-0.03756685083883249,-0.04742846656750708,0.2689604801673341,-8.455805935403081,-12.496137302995724,11.002112441930166,99.47461019593777
3700,0.031223680758997282,0.03404648802087696,0.22274225831845554,6.841053229265876,-5.434492777958539,-7.999125232969952,99.46123458064636
3720,-0.004831270351106812,0.08145276468652146,0.2712417255805791,-9.605820006231987,24.814849103128573,-9.166763669301371,99.46434617048752
3740,0.1119870067173125,-0.045022620620551,0.2623014026261478,-6.7902501893923,-12.81462746204487,-6.87878951154552,99.45896132867739
3760,-0.08133627924027287,-0.04773882809865676,0.14273355748311514,20.168298800282162,-6.559171706121182,3.729580714487853,99.41198696127383
3780,-0.0042421589867574026,-0.010087920143560854,0.1427429194775867,13.078778476579137,6.815639050320749,1.915590894240463,99.49867087734481
3800,0.0229471161940559,0.04922884470587704,0.0595697923754058,-0.3424594365918856,-7.441819239783409,14.267204103464245,99.44651225723047
3820,0.001094707389142078,0.03130298976444163,0.09044196525926554,-5.793115177458354,-5.882100201282645,27.146408463343874,99.45527361207797
3840,-0.04879785716342306,0.0006249844945130862,0.2590256045793735,-23.474784238126027,10.521177292364351,7.700594308066311,99.44739262666542
3860,-0.0037961715504143557,0.09378312764363216,0.21041059946242882,0.6154070205276321,23.400496324360198,17.263862365675948,99.47330248155225
3880,0.02518058407531673,-0.023802593683538997,0.13899453014233198,10.971710307718611,-6.390929552200183,-12.452584353487495,99.4819503759161
3900,-0.03656398997258539,0.024185182863149177,0.2407088466008325,4.009867900790365,-14.530146256058913,22.61166218199849,99.45254472113237
3920,-0.033116216700989534,0.03403276750812613,0.22234001759719788,18.015461316888334,-14.198398381020194,9.52880252384399,99.43939591816658
3940,-0.03580752679482795,-0.049585028765864916,0.21333756868663004,7.596948950314632,27.571489659383325,4.651550596265832,99.45889862865904
3960,-0.08097664072476857,0.07970559877995573,0.17770675889973453,-15.074171416874822,-13.24415265746215,-9.925157208130546,99.45782834544828
3980,-0.013476000994038043,-0.003954679251819738,0.22042298441341818,23.522842289904624,7.348585336677479,4.4793132838982475,99.47889822493023
4000,-0.008441056967780032,-0.09396754457839693,0.15243813263466247,2.1890497736052663,-8.811512241864676,-2.806537650784505,99.44614920998545
4019,-0.020980618196921444,-0.03912367389874635,0.24278570683351108,-7.103624322390865,-15.861733257167781,26.882450970813487,99.46249026993735
4040,0.02470184625881751,-0.057195673977907674,0.1638960951667,10.665973209840534,7.707016450125451,-11.547719973574456,99.47058817709774
4059,0.05621822687412999,0.03321934093057449,0.12578542723908753,-4.8713391979390614,-7.802081687949028,-1.0631227536206416,99.43458756270483
4080,0.06672593057087298,0.0530977358430408,0.2243744367580954,-10.393958949910626,18.905963086253468,-2.3034231033463097,99.42976709020405
4100,-0.006080931973693522,-0.045609449495099465,0.19797518253429638,-15.05154679556063,-15.68529713500781,11.901881504005873,99.45152784796828
4120,0.06327043112626955,-0.017884546813987493,0.1732781677052732,2.7863502622931424,16.714090666243433,-7.197056166160268,99.46555573481974
4140,-0.06235271860153059,-0.04978582218229677,0.22771461752894906,-19.17794505441898,2.201970587415233,-8.218006682162615,99.43420015643999
4160,0.06731137094262787,-0.0068257937725637935,0.1792916321304041,8.282715429980836,18.204253112866756,19.83602680841279,99.46714525183002
4180,-0.11863693247405041,0.019201945263990258,0.17490179016561752,1.6326580448244652,15.588030090351712,-8.252721033951616,99.4439527336918
4200,0.07547372726923662,0.02947073873273062,0.19286820820923464,7.205204791266139,14.91722690374143,-13.875279131018647,99.4475666560436
4220,0.07061133155056015,-0.03785653538122605,0.24906624546978548,-7.302324031078934,-12.699776614614894,15.942793324177321,99.45519896889506
4240,-0.07063343982621766,-0.0558095319860224,0.18061748821866846,-0.3515471183265236,14.433271605383442,27.23957524782376,99.45830326087442
4260,-0.007580324932839626,0.01995006440042535,0.1574769460041646,6.003754462050161,10.647441592025194,-4.990806921782606,99.46225333022235
4280,0.05291111445459404,0.017478138171795166,0.22007609170896297,7.374584671891955,12.127691998759548,-7.481354221317292,99.42805817577161
4300,0.05846154697979847,-0.02859900172440857,0.18926358007838337,-0.8824837652724947,21.1553891397696,0.9458042137136509,99.43407839536513
4320,-0.0647000920562325,-0.08187224426475649,0.16181608815514717,-5.904908085965422,-11.106810046381637,10.841452036850036,99.44470140463194
4340,0.04515930625486001,0.018941696032064498,0.23351792567769247,-10.129874859922934,-1.0330496521646513,6.9641111087416,99.43241706693841
4360,0.05934498490582649,0.06756239173426105,0.23686275187733646,10.545693936656708,18.13126070080068,8.630234705605083,99.46240057538105
4380,0.028869446638541397,0.055216507671570915,0.24005781697857298,22.94938663731212,9.586537019200906,-9.50701894099847,99.4467911468201
4400,-0.07406459062174847,-0.030175729589524622,0.23630898180036145,2.2413672242320186,5.508835981940466,-12.066019526306796,99.45156687789803
4420,-0.0021777338190638214,-0.06598981857702516,0.21419100258033075,-17.05442989553095,13.364973917288255,-4.77749756928133,99.45153254297662
4440,-0.001903328700404151,0.004263223964852413,0.19954754057131296,-2.678954577191428,-8.275287615746889,1.0388537809836484,99.40820344102184
4460,0.0017287717157425755,-0.0540378646456309,0.1817519921334518,-1.1686800388460332,-9.52560534154952,-16.700776350567686,99.45508802875764
4480,-0.02311167520904528,0.021523172605015347,0.18732563195474425,-8.233334962738411,9.265051531418314,14.208348905277457,99.4889075379016
4500,-0.008212107261088,-0.018152658174298092,0.26787341666769177,-21.327920740614804,-2.9712294079797075,9.054287238145674,99.43088134869978
4520,-0.06155609548658128,-0.019092087991510534,0.11561589384884471,0.15725358283679003,7.612315672058947,-1.4954729820102535,99.48242921122046
4540,-0.06449596147032126,-0.0857887356169149,0.12687759261603138,-0.1408357973756069,-12.395879986449252,15.795655560248626,99.43340483572793
4560,0.07688729051879027,-0.04356817142270898,0.16446813909146651,4.349570979146582,4.27129077663752,-38.85884913390419,99.45274040274259
4580,0.02847898259132702,0.026357121629237003,0.18098903373692637,10.170428305397309,-4.4683201538500645,-8.06357953119335,99.42953655072405
4600,-0.05393443994736913,0.02796635537349922,0.11756182687095929,20.235891022581686,15.547787743831638,9.049648810307847,99.45371410068124
4620,-0.003691080123744797,-0.006916220946203366,0.2487623063411915,9.162981134628932,-10.757075309142836,-0.49783710438088924,99.45462907948989
4640,0.026930855355110608,-0.01271332897147243,0.13432428028789956,-12.15217917663452,28.84450792057485,15.32208731185195,99.40811970234057
4660,0.0831266987908851,-0.00783358514778641,0.2181577712669526,-23.66786581698945,2.543851474474407,10.490646718930899,99.44767043456312
4680,-0.020373465388863265,0.00464951972967765,0.14499081828179158,-8.334746195012519,-14.247251056976122,-19.962519422301238,99.4781734503175
4700,0.045050529369951915,-0.008593493006579416,0.23626215315598167,14.897801832063301,1.460359175608608,-0.06486738788506784,99.42818203560985
4720,0.05988065616825516,0.004284664820037215,0.25937311255021406,-1.8277175519650872,-9.332243417292359,-4.94250173289866,99.43089822573269
4740,0.03997266544661787,0.008900319172917292,0.2332132158102348,-3.2477603742721985,10.60124310485792,3.1457587601491097,99.4522583033284
4760,0.061995819020847456,-0.001494105244307715,0.1970989159322889,-1.831968260248505,-7.8035761091229725,2.498789758351002,99.4452024439189
4780,-0.021794158259269412,-0.08431377218282075,0.24809478143478092,20.018026314775348,-5.523349544741572,-4.573838315793956,99.44888493125946
4800,0.0324939421869944,-0.018898776023633882,0.1973024172325258,2.9924009420751014,9.592082903560025,8.588929703502338,99.45683343931223
4820,-0.05413352624222262,0.04927524297831043,0.1561053749435335,-7.439377427758355,11.431790684599907,19.75149829588974,99.4737190387151
4840,-0.0007768783609396913,-0.010592149638517519,0.07170342389197906,-5.138391544013078,13.959059342078138,-13.366889839693837,99.47209499331902
4860,0.038446949913680084,0.05380705424509428,0.21696745909841503,-14.628030879126754,-29.685585467986854,15.450872204286938,99.4434899593362
4880,0.02343291624755963,0.011064072543808496,0.1574084299053795,3.418913533253588,-22.450366161881988,21.23193655448748,99.47289586958114
4900,-0.01516658221905918,-0.07249215448805092,0.24070438676595776,-13.298226286389752,-11.615230287970485,-6.247112781431452,99.45147895584128
4920,0.128357127944168,-0.03774625871374154,0.1861911938720942,12.124881981566029,12.58678038076365,-9.05683015779327,99.43846354999604
4940,0.01736058583316252,-0.08866995400000999,0.2773965624627614,13.903691178493716,-13.057286206257805,4.539005379304293,99.44743409607028
4960,0.037381704507023286,-0.037739256700905804,0.22662249892478625,-8.445348389919692,3.593548830803287,-8.015432994994475,99.4216080611043
4980,-0.09901179084241353,-0.12502953846292003,0.07540263402801975,-12.147339052548656,9.355327129718791,-10.169892677338424,99.4471954923244
5000,0.017598494825748306,-0.019519780772451947,0.18400076863171366,-25.19225051074818,3.3655699471559437,-14.960833569381577,99.41882721774303
5020,0.007491334970824372,-0.005364659570440893,0.2499796366225272,2.0400273075122106,6.131325539847182,-18.235417949220576,99.47472719477238
5040,-0.03608310126812788,0.009953643043265934,0.17766889166533142,11.089750906471584,7.367446912693429,32.55592460721977,99.48398499236325
5060,-0.004012045925888815,-0.026238339469912993,0.17131783817244595,2.949032389318618,19.65047929580527,-25.303995095963508,99.45933703024404
5080,-0.003369152675272375,0.046417331670781596,0.2621388058089179,-23.866292304830637,6.724312982928346,-10.496830286022739,99.4737870254726
5100,0.02835948023334758,0.10228128228888732,0.16357075988011333,-18.53490585205313,7.439489116470876,1.7054815879023408,99.45668914946167
5120,-0.004403646023171482,-0.049417857516068336,0.15118011668506579,25.547221486041245,6.933488329436411,5.00323580686284,99.46171345562078
5140,0.05145941231319362,0.04954035215548666,0.17484147422483537,-16.707441686819386,12.249333771442709,-23.649765096714994,99.46297906360742
5160,0.0016202704530575496,0.03733224952233182,0.1897066048569415,11.09289697108945,4.057958240749161,-6.153509296262132,99.47171633695368
5180,0.017591758714862224,-0.09030949498997518,0.1985570978412935,1.4591516633648736,-3.9581658349177924,-11.49718898839135,99.46644589353185
5200,-0.06397442160404389,0.055716830703697574,0.19273301887113478,13.509280634775765,8.429370354620795,14.534130287860307,99.44065218098264
5220,0.07951986879863979,-0.028337145002226394,0.2587107182916431,7.3918423112015486,16.883377640339685,16.5180166525883,99.42756277465466
5240,0.03921365260693163,-0.03732820756270168,0.2780879459677385,8.728068988920256,-9.62478874653955,2.0051366945996802,99.46551176403196
5260,0.0017445734504555452,-0.017726263644049733,0.15502804435716452,2.403699286211576,-28.25947071543088,0.37388835663190595,99.43904170545066
5280,-0.050141150794299316,-0.02678762463035513,0.20241434110265288,-6.5583289902217405,11.40233274374256,-3.5491910634340345,99.4813385359547
5300,-0.03683477448290567,0.07219353955337902,0.22373182900006863,-19.37110056326097,9.62069243623973,-5.627791604394966,99.42662513252117
5320,0.04003376702182887,0.0018789883055244363,0.27097342482399744,-10.066877578378486,-12.569313501354932,11.427361762408262,99.43753242038025
5340,-0.0008526065395923941,-0.05473474300071436,0.15770246911844807,1.4582358749183877,-0.41822762947720016,4.385024847640214,99.45519957389122
5360,0.025479050693515748,0.06686780010716661,0.25576439829228764,10.896296589608932,7.969614709011363,-1.4495912430830444,99.4323072738809
5380,-0.010869080405762448,-0.021314520190839972,0.2101958093393786,15.234762158452135,-5.987864297298733,-8.619167764412333,99.45457787401277
5400,-0.059591504711886505,0.017337412706135754,0.30833684535834605,25.759296142751918,8.875857226326552,0.7841224129213356,99.4211650720676
5420,0.030665997333946007,0.053789432116146355,0.1720284682503896,8.58125544281688,1.2457715171023998,-12.74399343460764,99.46116887649998
5440,-0.08929907221890261,0.018154459054895895,0.24636401497118915,33.05900039637343,-2.420993024614085,1.1210001827504232,99.43755122647542
5460,0.0851808930416497,-0.02568337381380614,0.17624991836477186,0.014256179079262172,13.087167546484814,5.737459516437037,99.44983055063193
5480,0.06380641430071907,0.028237807324970356,0.2225830092949052,5.360913852322742,-0.024273317351553695,-14.13407494288375,99.4585713172957
5500,-0.03429363636852816,0.021102951599628366,0.20422901682013597,0.4512555457730507,-26.041373901298655,12.540599438720383,99.45923157892642
5520,0.04313682818699309,-0.029069229997104193,0.13846569333934963,-2.102636925689941,5.690687205253784,5.209651026380753,99.44934937960639
5540,-0.005445975852737436,-0.02211031641610959,0.2066292912359819,-6.416508754656526,-2.0808908393894203,-13.869638965713532,99.4775425308858
5560,-0.10185053145649794,-0.06225084905012939,0.18017456161851544,-5.051423620591342,9.482707077332355,1.2343931784858033,99.43859481577344
5580,-0.05076247990706108,0.025424492548959527,0.2637841951033613,21.832649664940952,-0.4588985021342784,-11.614605182986342,99.48183798781177
5600,-0.015197506583858595,-0.09041442420456725,0.12798073389363834,1.6207073505289655,7.444199278994407,2.42094836210334,99.41679728020841
5620,-0.031598356481492146,-0.038835626243022975,0.2571979037053826,-5.286975658992235,7.328839745410418,7.227337905470469,99.43167184500285
5640,-0.1050225223401385,-0.0743562646160471,0.2245227631299917,-23.340883662303476,11.845694467016617,-0.6396540720397451,99.42967893713568
5660,-0.053886517023235936,0.015393265861495507,0.26965489950811605,-2.9032775644389206,13.231389715077198,-12.665146282857009,99.44563163145911
5680,0.021781831672276257,0.047382063642465166,0.21789484602341205,3.0843576132514356,3.2155176783729758,17.57565035268137,99.46270105493437
5700,0.03480108100021769,-0.030037500601367707,0.2515770530296397,39.69793490403115,27.780802793868837,0.6322308407159634,99.4630200353111
5720,0.048731088761281446,-0.017346028613736714,0.12183243801859957,-13.344575261860243,17.968300959666934,-8.955609626562705,99.45434806756553
5740,-0.013314612526923418,-0.024609647806259582,0.17966746640531792,-7.317017455515321,5.769295896540081,9.128528240047022,99.44334489777924
5760,-0.021619265561686325,-0.0027523319337017715,0.20365967030674872,-0.5444082139358879,4.719614731626437,19.048626448953513,99.41352562316378
5780,0.03479947758035219,0.02936801410467381,0.16905705875127347,-4.4624310420143285,8.220777844864385,-7.979911188647744,99.43822858935934
5800,0.0019295151447334667,0.01139265889111122,0.20655383053841772,9.527503147097033,0.9212595593463043,-4.039385249641322,99.45622017212274
5820,0.03921167944678002,-0.02218506130180574,0.23267295096681,-5.86504236095756,-5.566885558377858,6.543800269261402,99.46457284014681
5840,0.07499099970067853,-0.03746425589003926,0.1353495351981278,-8.47733369234539,3.0782070295527846,15.716061752128388,99.45852843112603
5860,0.05690820785806316,0.03904774782370711,0.21669514298105622,-7.082190202728993,-0.001521346072024359,28.176219462421365,99.48248717491839
5880,0.05678963544636863,-0.03442973959311303,0.24863976226418466,-19.20412060002694,-11.466422129755856,-3.404066892715732,99.48401357933126
5900,-0.044886111134689856,-0.015768969234933716,0.22253895986956793,-8.666287988950025,-3.2047639640087944,-11.259740784992413,99.48678869369095
5920,-0.031042049325326067,-0.04042943751309441,0.14370956717391317,6.6296430367767005,3.495452983848991,-5.010680574057484,99.45425219334886
5940,-0.0012368814309146453,-0.02122074013259484,0.213896419137795,3.657303049789915,-4.1502439662235195,-3.4443289384582245,99.44156718753534
5960,-0.02856199674901884,-0.07910682447253206,0.21312320581856045,-18.316815264949987,5.785756066443236,8.18277595905549,99.44253147551204
5980,0.0886935024044065,0.07968083404072593,0.2068646424824399,6.759410355484887,-28.796369112025502,9.24641868904832,99.49940180630942
6000,-0.06691570545554935,0.008566505462485047,0.12584613767045433,15.259825490210632,1.0842504599848701,-23.028073238396402,99.45333496200519
6020,0.07155890125988357,-0.004532710358886066,0.14778325683899698,-11.560427924086081,-1.8115812726718366,-18.86117126884197,99.43665155989949
6040,-0.039664788362407014,-0.02164333470581254,0.17111347319429437,-0.18238158937620663,10.062799854078134,0.8682146979566585,99.4246145143772
6060,0.06144779314059195,-0.04759991048185093,0.12274426658076873,2.0347872365636395,1.0590284737645015,-1.7934387260322273,99.46795741496156
6080,-0.03350529090298649,0.025504315648282767,0.13632321994818375,-4.732835349729868,-3.3753812943814965,-12.312926713634454,99.42390381797757
6100,0.08567900440939012,-0.11089311062074417,0.22635850917522,3.258719220094359,0.17633896549804162,-2.68814526469195,99.44324471681705
6120,0.02562157115496661,0.03786770739880015,0.23573036821989155,-6.109960304752435,-20.419444713766087,-2.241985270301919,99.46763051935667
6140,0.029205109632845762,0.08702472093929853,0.21349264379519212,1.6463285092646873,4.93004815333813,5.750392506269904,99.417588358914
6160,-0.11049290144277375,-0.015372330094752135,0.1707111443982711,21.623037660180806,-3.076851159350377,4.944868988123318,99.43275000222991
6180,0.14653101847021743,0.0033738084255026685,0.26525722248676736,8.637203351813458,12.424425980306987,19.823517297814846,99.42808376788308
6200,-0.048889709963819535,0.023640549234927498,0.17989961438244878,-15.947196148198795,6.2994674170780804,-2.934684216325408,99.46363288754057
6220,-0.12788429712794333,-0.003125108651740021,0.2387910604106528,-11.299291389796926,-1.2711833739637193,-8.583252062197866,99.47844135229164
6240,0.045652747428532314,0.02013354137182738,0.21483417611940808,-11.01096639323724,-0.7827201973729262,9.590307943279473,99.46769280648037
6260,-0.057654273545197046,-0.05854630479663006,0.19450611002664886,-15.99827032929133,-14.304894405377333,15.028657949132892,99.41417502475254
6280,0.09643489157006814,0.022860599230535635,0.2611222424755171,-2.7613306418404546,2.5461931239142874,-9.399132186711423,99.47014923939999
6300,-0.0313590275992381,0.0005776570924530078,0.15133749737799412,21.050398639446605,-1.1240015668255852,5.618033977752294,99.4493512946421
6320,0.02694343790799892,0.03186170840777667,0.23543144302704005,8.267551945322468,0.11474302752008822,11.267330837889023,99.43983509943828
6340,-0.0369785054820978,-0.030526493834369173,0.13240895663986466,-4.285062403825217,-4.544965972731068,-5.449536927992975,99.46254070567998
6360,0.02648547847041649,-0.04067415532656334,0.17706735383714844,-11.08768122843331,-2.4742749455933337,-1.1936919862191564,99.44817240195091
6380,-0.016523117856498713,0.014195052363636346,0.2178688909442453,14.365051204013772,-11.081430175361708,-7.332659544571051,99.43282823569749
6400,-0.027140987168154843,0.05508853520308343,0.25545700850131353,-15.034871368456447,6.029586970097965,-13.727590954647017,99.4757026131265
6420,-0.07705751520547038,-0.017824078650232455,0.1858064945973819,10.39728408656173,-12.480242913338031,-20.825510496876753,99.44960798565337
6440,-0.0426567690787063,0.010608589678591367,0.12504130219703669,-2.9134474464269324,5.147091284328985,-14.499428845554151,99.45020735913667
6460,-0.054743752118994876,0.0652668301486542,0.1540069276815746,7.027670245694555,-3.62012942410296,-16.81231721819334,99.43025285098888
6480,0.09145717503852448,0.04052109038506497,0.12758383077594387,-16.062009685110922,-13.22596868963916,14.665262532962586,99.46472896085703
6500,0.021163907210324573,-0.14148053305820155,0.2358137728150013,12.938739326377668,7.024426386475287,5.430521839414004,99.46633158828885
6520,0.011360851963311169,-0.0345405273633154,0.18852579671469122,-8.11085518041398,-8.262523979816525,-4.673635723842226,99.44247952291822
6540,0.057498963675753904,0.0408523660971994,0.23300071580051698,1.4572863506061844,13.820072837077417,3.5638768972583152,99.44121628289457
6560,0.07198241397682514,-0.04958002921141916,0.2626078973502761,-5.892826895563492,-5.962114132702393,-0.9264683725682936,99.46192062114116
6580,-0.04954843893152728,-0.07983635131876421,0.2479495430358204,-9.27101452242731,-18.056920216165814,-15.775745596481794,99.47403883643595
6600,-0.02687798040376982,0.0727463570175961,0.16973892046923914,1.868712107852125,7.2091474493326295,-12.876762905779696,99.41397900017827
6620,-0.054433862327908866,0.04423424669506702,0.23289357640654706,-2.421952654118028,3.8727534302045736,27.259900365071136,99.4687671976137
6640,0.03909398159430056,0.025623870782029975,0.18342249093756635,-4.1543102574147,8.361969017358899,1.131951948270529,99.42102664902264
6660,0.016129147713966344,-0.0036454328772083464,0.25445748413918723,0.8143168184324965,-9.178743207792873,-22.576139843701196,99.47238505718943
6680,-0.051396828567588905,0.05935222296883666,0.14142335405033749,-9.686240473871695,-3.402609024592621,-0.8728127640750863,99.46301510203958
6700,-0.029339006770096005,0.047290110488492944,0.23106373220536036,2.6007970654959887,-4.155316919283633,18.276968425319197,99.46287745504559
6720,0.050443130655786685,0.039411439746077165,0.23250108211104598,1.3000275087253719,-5.246758402168634,-15.60684097567582,99.42366511593951
6740,0.04471564475312101,-0.01586833459125068,0.18329641546559056,3.277358466353469,-11.789859578635184,9.550549660774411,99.45768449797531
6760,0.012994735466064703,0.021297814521602367,0.289905178335528,4.972208138120972,-1.9885658160539916,12.100897845420285,99.44659590865379
6780,-0.04184287174483186,-0.003951680760657972,0.30321110792896877,-4.524039403475154,14.9697222385157,-1.7681405645300488,99.41068033246258
6800,0.059295491017834795,-0.035114918244556814,0.19167522849806937,-4.258121489921115,-0.43756765084045346,6.783957797435742,99.46740146199576
6820,0.03307104385760398,-0.043398733820968885,0.20630806694138873,7.658019676826555,-1.6226595210970516,14.522908549923638,99.46027625264978
6840,0.0009003255596798278,0.03712597870127654,0.16633518644914896,26.832904700170502,-1.7833827363727304,11.463838247446333,99.44651580328822
6860,-0.01502725409814228,-0.035547689883471345,0.2753514693005826,7.338000190102261,21.87117979847727,-5.41067673586326,99.43625280105975
6880,-0.061339291726988154,0.08795408694614626,0.1026352130768402,2.020120284978714,-12.945605421125236,-12.664572668015381,99.44110517531851
6900,0.03198168284536095,0.010952340978567576,0.11798692113166982,-12.176778501736802,-1.0311451807206962,18.323245280404397,99.44051905078831
6920,0.07309584716861424,0.10913472965555858,0.1485123159245563,-1.3345259080566971,-5.94012741724317,4.127842192090451,99.48030427205377
6940,-0.007559859172404937,-0.023211122893795955,0.18604427222868347,3.4256910738319943,3.426582255008754,-3.7726426991001145,99.47103306461143
6960,0.005332372050976919,0.11302904082956322,0.23520621446884643,-9.234440570309173,-6.896219236514327,7.004121024878803,99.46098570630758
6980,-0.02461733557021543,-0.04024221896247344,0.13221687107024327,1.3442163897107258,7.175855106412092,12.4522251098633,99.4402439151338
7000,-0.012166103943122697,-0.05032722586675247,0.22415751894616548,5.5277898217112735,-19.98355860841895,-13.270168113192222,99.48634703803573
7020,0.053875088144112696,0.009279449835015092,0.2176670072515498,-17.813058910972046,22.71764051828187,-8.618397174442714,99.5026628634102
7040,-0.0256680604223742,0.06447955204993282,0.22581373810305255,21.18226051853048,22.868920213691776,26.216778257193518,99.45596765819636
7060,0.08966902952163304,0.03240819275001091,0.22343482711929966,3.3981752640181124,-18.33491919504568,3.223700661062342,99.45617507469855
7080,0.09036825217677336,0.008149068746504432,0.23992666073724833,-3.4619732022799727,-10.743256556400993,-26.566015076541788,99.45534451700088
7100,-0.021340156041020165,0.028347737232092857,0.26625061014912227,8.187901351801596,-2.363722597602888,-5.435177797096011,99.43381630702694
7120,0.10711533119771528,0.0684124027956045,0.17957725583606593,-15.41189646396257,-3.1263529343173015,-0.9103429169341519,99.43759776448229
7140,-0.04953013154328062,0.06161844296143781,0.20863202826183797,10.67629514644711,10.709578637627516,6.034229081194996,99.415767268125
7160,0.09934074482731736,-0.007177912334715885,0.13670014127107316,-7.112095686759804,9.4972162278039,12.124074064350015,99.4502280684784
7180,0.006009402919134255,0.06584324065016457,0.2609244687933051,13.383314715736645,39.467414302965274,2.1178877943419456,99.43313007052117
7200,-0.09528054946633263,-0.03878412751715594,0.19380564304990552,16.043045582497342,1.472015414503327,-11.237990115955142,99.40582096434855
7220,0.0191929558932462,0.0633192218401881,0.2322861027514361,-6.476870551808399,9.353922089947627,-2.772858809109296,99.46730852759411
7240,0.05093688296240189,-0.06005656017077171,0.1807756855092491,5.804332027944546,28.31187422861179,26.05918237565338,99.44647238573808
7260,-0.042612162008436066,-0.007159037672643347,0.24273101447272216,13.657733270696294,4.78237629700996,-3.079963893407702,99.46433631131299
7280,0.020786350128284295,-0.029326768798575625,0.2604452341741574,-7.092566969861822,23.2122959489328,-1.0425469373065757,99.44523118929818
7300,-0.05244861452453369,0.07097793552177899,0.1794191197445502,-9.019365029866321,6.276650563905716,-1.4394984647081293,99.46383118570417
7320,0.02926561352589646,-0.04886197799023213,0.2524234179570663,14.484797824814132,-4.729679111419298,8.859944388713727,99.44214157095658
7340,0.025965303679349863,-0.12180975653360367,0.2428819189698658,1.304468635707222,16.818996572281584,9.568900199837323,99.45044196276558
7360,0.07893379396280147,-0.007568524882071207,0.21583718872522525,-17.5760791587491,9.748908422426505,-14.157992269943671,99.43152509259092
7380,-0.08524131337879934,0.024856812181777016,0.1683519764381497,10.687271216109313,-4.972657521561661,14.912991987027624,99.412579693106
7400,-0.02239556112221124,0.014073213522576442,0.2405967371207404,-0.7018267874765831,-4.031139217601707,2.700802567504411,99.41063501502829
7420,-0.0501185366959793,-0.008550029341798064,0.22994776997807753,6.550567923727399,-23.94682847690058,-2.7825238890183823,99.43866310517998
7440,0.06049666897977679,0.07254945570761019,0.1589357592367051,3.2870635643815067,-3.2990953304253106,-3.5246779148263703,99.43450914127098
7460,-0.03315004591050246,-0.05615826723637088,0.15933741132565227,-5.5996922642140206,4.228132958522778,-16.907170238564923,99.45467253501349
7480,0.11433300918107632,-0.03768263823339059,0.2345082491144802,6.693043517114502,-3.7360697649988714,-5.02443106230319,99.47433587252704
7500,-0.021186401997691617,-0.05042361781606704,0.1962487552872893,-9.75159537542211,-5.180456362063251,6.9691531195303575,99.43276285810119
7520,0.04740450352669588,0.019460227582497786,0.1293200629729393,6.593508958539504,6.681012523305543,8.117354416495756,99.4204648336865
7540,0.017575103145031534,0.0528305583553752,0.28818549518382597,6.249624166711442,-1.0020686305580675,-5.780859027113314,99.46911515320731
7560,0.007867263418160273,-0.05203750141603197,0.2797558032145382,-13.436732790242546,9.420091555850997,-1.5378216374174527,99.46659092329806
7580,-0.0730650838397096,-0.03305491312861741,0.30038495344983024,6.840828325883306,-12.199009552366165,3.064307368828354,99.47306556132013
7600,0.06568920455314735,0.049499294436908835,0.10887329290057063,4.544007417840131,-2.2181426464819762,-11.885996253354191,99.45169699259857
7620,0.0015129174844098763,0.09948284213147546,0.1879296981884101,27.497299061812413,11.722796710584257,-20.147446221074738,99.42920680236077
7640,0.040126806700310484,-0.07348661404697349,0.179558479680325,2.7284366112872966,17.495488344015243,6.979865756594462,99.45183065508631
7660,0.04149066306269126,0.02478088320339858,0.16531591971577314,2.181152821887166,0.03444654322648264,-13.023132079655072,99.43366816415272
7680,0.07309951481055095,-0.022242569446124807,0.22785996295790759,3.9082423359485494,11.524507050012652,-15.861497263161954,99.45268284529463
7700,-0.018369575096078613,0.03352914433946293,0.2139001634506967,1.5998153038295626,11.083752097127238,-21.117041398373683,99.42489617957362
7720,0.04155884083972758,-0.02859923128915226,0.14954299426163642,-12.21470347294715,1.4136487286120618,-20.800823761871577,99.46623395211185
7740,-0.10589549906737379,-0.022160062513426133,0.2583617651608181,3.478311877434722,8.44039021834903,-4.614788723921372,99.43221799516685
7760,0.04021591102813556,-0.012773268530645646,0.17887978585669806,-9.67350461816849,-2.0557778117535785,16.558597617512397,99.45876842911001
7780,0.0007421387315177524,-0.0009288408667537,0.174895976330325,-7.002600485305253,6.939050239915719,5.452194740590297,99.4362455104637
7800,0.04744661317542892,0.0078005772971192645,0.1593523522513457,6.667674566863598,19.04754194390036,12.249690640341207,99.47944494360151
7820,0.02959873948895411,0.0487664358019949,0.24886874102165785,-8.293179398971938,5.48793065397124,-20.409454627376228,99.43664796841917
7840,-0.021969846895898593,0.012472802544587318,0.1646723761628308,3.49781950129353,23.65588080496625,-1.476898894050199,99.4440397994641
7860,-0.0196489442979324,-0.0671692649864903,0.1429151815268501,-19.697630721073118,23.647100267817,-7.777668748409636,99.44548715230562
7880,0.005370118528612196,-0.0253998645355837,0.19676926465383052,2.000478899949114,-8.159855263942386,-4.01315951609905,99.47296799807049
7900,-0.010402896923174412,-0.005476795592552117,0.20941643088535072,1.0779716873661616,8.451624096881853,-3.7042380323777557,99.43538082499691
7920,-0.024598146485790805,-0.07781205264387406,0.1260653908218199,10.425533243126825,23.962766340861084,2.6089258378559688,99.46037936756377
7940,-0.014904618080941316,0.07169197366590904,0.2217428342257324,4.750008280127654,1.6971268058590412,8.8552805271882,99.45704908008256
7960,0.09620919484943505,-0.012298922350824063,0.22077027503128357,-1.901774562867431,12.075973718554373,16.767728903953245,99.46596581227894
7980,0.04546662343484711,0.04991982073861296,0.21553459535044633,3.0858795477551695,-9.774832940728677,-3.975936895620264,99.44156992834361
