timestamp_ms,acc_x,acc_y,acc_z,gyro_x,gyro_y,gyro_z,baro_m
0,0.020668606101168496,0.06141924478928715,1.0095282470021834,-7.949736954625623,5.012258700370169,-21.437966502845136,100.00243021358715
20,0.005777542086989175,0.010264102433496014,1.0109602198372307,3.651464492568344,18.298366749774136,5.504685541025842,99.99140520787711
40,0.07536751750895498,0.07050666630210144,1.000200458207591,-5.446099027767721,27.152224999104707,22.572366145732,99.96948365020316
60,0.060285034520803575,0.07684504959329871,1.0438844103802987,2.8489100505495633,-7.469928652383274,23.861472843726993,99.98507835845768
80,-0.019542233304215853,0.0007256592346807445,0.9892784692814309,-29.97876166206403,9.1122105328851,-0.5491018549039562,99.9629899414698
100,-0.08824601911485035,0.02311397266867593,0.9660772342946383,-15.789150773210386,-10.583193839290624,5.3683399766977615,100.01969146078815
120,-0.04900382292861584,0.020119271289238645,0.9679477438971078,-0.5670409361410764,17.58683822079539,-2.455567770566433,100.00078745278773
140,0.00930757465309588,-0.054672071576314686,1.0069963049970445,19.16696623310779,-1.3997564165664134,-10.256535241234415,99.98564321703665
160,-0.06629839539293031,0.012326391342465486,0.9007246390546892,0.6372346417648048,-4.643160196838967,2.8408583987839315,99.97692485035512
180,0.09371946233926187,-0.015271212699131082,1.0123128654507125,-3.5941827360430842,-8.081792080857108,-1.1838042505830888,99.9888952039934
200,0.018660146848714778,-0.023469976905214317,1.0891440205572531,20.54920585498886,14.076280379983668,-5.67288501092901,100.01099977761837
220,0.012699836026560503,-3.592549505167383e-05,0.9689115478068998,-17.448093502451375,-37.25179568861397,1.2059914982152675,100.01388977885877
240,-0.07844717520233749,0.022750977787335935,1.0746844534898727,-7.863465710307997,8.891310563345861,-15.67365289785931,99.99773246792171
260,-0.017031141342594393,-0.021123860930154226,1.0188763793317774,18.373596859124614,2.7849870650890978,8.222813401008096,99.96228642682534
280,-0.013566087180033645,-0.07379556170964258,0.9948857651017664,1.827581425795556,25.519742079535092,-4.614830410707347,100.0428968781428
300,-0.020788478639848937,0.0881908901273819,0.9467329091183591,6.352285040248915,-3.394068590481166,-1.0036463580733408,99.9958150371237
320,0.07130560337586955,0.04485573980687242,0.9741328990057784,21.11955920338526,2.249281876640392,-19.392177582602418,99.99144780782134
340,-0.04417887752840306,-0.08059788944306147,0.9957864032552626,-5.643587601686351,13.189612134584646,7.4969039940603,100.01326138515572
360,-0.1348540940090774,-0.052080560526605604,0.9714131054478932,4.407877216082529,0.24534781032795766,13.333148328346816,99.98721610815556
380,-0.10083671893969776,-0.01020355072585387,0.913662240699129,-16.936156861902166,3.23399815212711,-10.821969553539686,100.0563230442404
400,-0.0316402216441801,-0.042862489918256946,1.0735721975070454,14.870540862171808,-4.68257397287233,-4.521050431061266,100.01426194955043
420,-0.06665121579228017,0.02794844909910566,1.1364693126925225,0.7001850394173156,16.802996805725126,11.708198488147644,100.00802588285431
440,-0.04466763533386125,-0.08051842564331402,0.9369238670943848,-6.939086393393037,18.504205283715294,-1.9473945014241663,100.00082627924296
460,-0.024980135553419033,0.03414848251677965,1.061165576084546,-5.900616507828947,1.7460522525201516,-21.084257600337118,100.00509640735784
480,0.011058110038567947,0.0022957703717487615,1.0455057775469039,-7.764968044408022,15.216991366799103,-13.246341719295316,100.03438879473559
500,0.014260969550567215,-0.05910360058984883,0.9201447146332492,-0.23322181386461102,11.78167180124523,-7.761538911768611,99.97008356560498
520,-0.06005770320753202,-0.008009598638160987,1.0341641691615195,-26.78168255926969,11.197248110739055,0.35504791503956146,99.9911143228484
540,0.05343749637473558,-0.010232985451640399,0.9840357183611276,-7.542260937617693,2.3226784427193627,10.13942672394785,99.99451127875183
560,-0.024718792512754512,0.031117381277526713,0.9819344054157051,-12.165196772114175,-5.704669301087804,-8.801811913553662,100.04554293844508
580,-0.07267635320134776,0.022389872122554024,1.0988734333648698,-4.134808937312131,14.241604533287274,-3.8529539305675358,99.99586866162551
600,0.06864410536062618,-0.010504260768114665,1.007832418379789,1.0168946013943683,-4.956460773419229,-12.531386208226301,99.96501013470214
620,-0.10228838204482243,-0.039859282599897225,0.993084468263451,-21.781330537863198,6.5421651605677695,8.470587258578703,99.99676055763331
640,0.04309595525914364,-0.0192052133246006,0.9950548077030563,-18.31104923225648,-0.7338467533212976,-5.038836510004124,99.9782113957618
660,-0.046527669377998605,0.051588125992478466,0.9774499107965314,1.880906984187901,-3.5092780015065257,-17.285075161406436,100.00582415731112
680,-0.056650207584550305,-0.05469407591605418,1.0064848789818521,-7.005624717583589,16.377416969106516,-8.078691743200626,100.00191467120774
700,0.02866477342720556,-0.07028909898266927,1.0404341396655743,4.96655623371457,-27.2976620073601,9.348884424673631,100.02289795141706
720,0.014920791106537355,0.05901282926011551,1.0074695500594295,0.5714583330579505,1.3021536966135565,13.396768505286817,99.97385223610088
740,0.01664040560769357,0.004822876767341349,1.0910767763619693,-5.901163147950189,-2.0205210411971986,-5.272234235984248,100.00345477760654
760,-0.020200175528652595,-0.0543322165840156,1.0116466777167743,19.3029388751303,-31.06208921812594,7.5813880335746475,99.99952313570772
780,-0.024934819747242192,-0.013148394432071792,1.0154053165348451,19.515164178713462,1.1820310304357236,3.7227420982188395,100.026757079845
800,0.017129041054590847,0.03230331744890684,0.994758272297862,-4.84563204078315,-25.563916901578462,-17.727820553500102,99.98595147633672
820,-0.015972503145766287,0.06358979767827308,0.9843469810337313,-7.956765826058846,-25.065367487155736,-26.857461671231242,99.94551503095873
840,0.03566956886397798,-0.029406921627428147,1.0346604411545222,11.637191267138533,3.5393673368511838,8.643836253329292,99.99939793217449
860,-0.013352818706260575,0.009505547029623479,0.943594562028883,-4.931580153457845,-12.310018746496478,4.63036877564879,100.01027696864911
880,-0.06389582377863381,0.047248034300110715,0.9484806895203757,5.087124546312851,8.490855395942003,34.70634483761064,100.00350093434203
900,0.07160565050547911,0.00035148489615301106,0.9576828659413102,8.958169726553395,3.898544525124757,-15.4128361531694,100.02598755938546
920,-0.007927274118055752,-0.03437953994628706,0.9983075930679177,-3.0049499924254084,16.486562481890843,11.222026867954746,99.99353560800768
940,-0.014505206674358834,0.04907271455247756,0.989291611731516,2.0864329685954295,-4.150273221506978,-23.281439816649556,100.01625791683459
960,-0.01594182416293739,-0.057171612255513794,0.9432918065498842,-12.054595157437879,9.588916803404851,-6.6395736913983345,99.97374962647474
980,-0.03405783730132026,0.03232622567628523,0.9841234215921876,1.6497515366794715,8.487324330945171,-11.57666772963237,99.97561792816327
1000,0.005825909973559023,-0.012187686298121031,0.9823427194228045,7.988402517903869,-3.915198765599103,3.6964149412386083,99.98619292775926
1020,0.09574085427855145,-0.019224850510732416,0.9857933120578312,5.836039507201388,0.6492708303189663,-1.258001717040895,100.00609041217874
1040,-0.014041632389514178,-0.016062434990130818,1.0013175640458378,2.5633329287768793,18.909058692092504,-11.63577801586875,99.97815551956367
1060,0.06829268245508677,0.008668060424286769,1.079036920936673,20.33912678715138,2.8971284166670683,8.829431105021452,100.03362315504526
1080,-0.04735182520327478,-0.04763156320741045,1.0668217833235891,-17.774656596441883,0.8754122396568855,4.220056782211764,100.00398820228682
1100,0.04323567829594829,0.014147419171399736,0.9638530698026797,-6.388193789954546,-20.081986267611192,-10.644128646539347,99.98871352015367
1120,0.03952001572914298,-0.020349577664071385,0.9417677197952471,1.7022621077815772,13.425932818433056,-11.39409126137238,100.02486411562654
1140,-0.027616197185413274,-0.006294197363389271,0.9860278870064431,-10.432279741699105,28.097898575000556,-2.893237991287498,100.01841014230874
1160,-0.025502863774543878,0.02548485407971018,1.0175302951404157,-9.868765979932714,-18.867236460065413,9.348833117103736,99.9708460393648
1180,-0.04491077055275201,-0.01553651351439351,0.9767100925262021,10.702994624511417,4.213155564106092,-11.502479556855066,100.03824613485457
1200,0.0031745149025626668,0.029102712898446133,1.0734662461582223,0.6430694706689307,-1.6605188138662739,-14.785066032529649,100.0105081823896
1220,0.020253122731530758,-3.403540455398111e-05,1.0293293867961713,-14.071379649632856,0.5809509418381531,-3.124370432047505,99.98791264813174
1240,0.017947562371187952,0.10401343556163388,0.9554371197674443,7.905324740741992,-0.2729833217890371,-3.4693218159850407,99.97994952757932
1260,0.026458736245600186,0.08794574183486287,0.9089534160323547,-3.2295681328075974,7.0699702423984965,6.20209495849554,99.98633023720093
1280,-0.08443656794592448,-0.01809874775059916,0.9996443715779773,-21.822830726040237,0.014728680155286665,-17.763048167059083,100.02869000213362
1300,-0.040685002634477774,0.021678176143249614,0.9505237954957199,15.254821634309977,-14.48109532217952,-18.939334883350156,100.00261314144711
1320,0.09210246919513146,0.02680454819357326,0.9715998920071073,10.301816771592595,-2.5661378805080726,26.548131500389623,99.98454640875272
1340,0.04797254184032124,-0.05287154085490338,1.0421046795364624,-0.8752298287853297,7.414468391257307,-33.799876744703596,99.99413973359658
1360,-0.012619976701109021,0.012583751679153037,0.9769454559478578,1.8083561545009326,-7.823999418582581,-14.030849897545306,99.99322035198583
1380,0.049332792923854195,-0.007363250734239381,1.008104750407999,-10.532240220581773,-8.586995028357169,-13.977147346141653,99.99307441615669
1400,0.003333110111001518,0.022752454528403788,1.033400733682243,-4.774485300225969,15.819567384686778,0.05813604241573965,100.00770895974115
1420,-0.027162435009957953,0.049216591092451634,1.0823322045653638,16.707809978357858,-20.04035486080659,-18.485880672047053,100.00441568151446
1440,-0.03719457784112368,-0.11367554243321293,1.0114281042896534,0.41452072906571147,-13.578302522216998,-8.896948335731725,100.00075602491843
1460,0.027195337887582355,-0.029716920373914654,1.0086344665979052,8.310570932817809,-3.1455572338501954,-8.599108802911331,99.97901580431645
1480,0.06557905191502048,-0.031065000460466487,1.0118986919226087,8.002302542359175,-9.620457078288135,-12.208968785480803,100.02067543081007
1500,-0.022994840822307808,-0.019460648258545647,0.9094865579184224,0.23825018302365122,-9.545175915419538,9.152235051654493,99.99998778647266
1520,0.07585091061274266,0.02975210563376724,0.9749412961745579,6.7802070526939495,-6.054198162209843,0.42830975638880914,100.02215370469754
1540,0.03946890333993505,0.03331819586046802,1.0208956234268147,23.01669356951772,-12.675142233555801,4.374802084266879,99.97544533904123
1560,-0.001824836644033062,0.031516086947267145,1.0324146185194674,4.454434961704433,-3.9879295929834413,-8.29003981793534,99.99912726392873
1580,0.051289323383636815,-0.038392285036860575,0.9932625670167343,-11.288436365198393,2.9430706230465002,1.3020778972892113,100.00217850201147
1600,-0.014852173136211642,-0.023371950918936086,1.11629963828576,5.531399014951656,5.538668584129076,-27.04902723389703,99.99184063771995
1620,0.06913004082689365,0.07244867181646931,0.9072600233302914,-8.361988017347002,-4.8034660988111995,-3.5069921088062666,99.9926202893218
1640,-0.02681793717814936,-0.011985763697109237,0.9201212661971374,5.0100291120567615,-12.346715337813706,-14.861957269351283,100.02485873519572
1660,0.039156489638623955,0.005886251128873715,1.0610473774642075,11.605780947054646,6.282378075050511,-8.51860243720661,99.98420632404996
1680,0.002325478139431813,-0.07270556326443522,0.9211386639133181,10.955572601026631,-5.94310068889259,12.451598815136183,100.01205856085822
1700,0.05281921171586809,-0.026122491863095367,0.958942879370969,-6.075575536547277,18.669836559263082,-14.460263596608964,100.00386529093724
1720,-0.013968386961128471,0.0006519181232163508,1.0797894748684835,17.259017469413415,-8.758959701650618,12.440054338459534,99.9925479953689
1740,-0.090371346998453,0.046865547345738015,0.9970248153421168,4.5867173355218,14.15551731737622,-30.642276227546304,100.00064397629598
1760,0.06818792150679841,0.04966951606277185,1.003117704509078,19.23696660483498,5.014127046988895,-21.423775693889986,100.00034290066735
1780,0.05380884242005072,0.053426711572971367,1.1035802508494035,-0.21028537413483844,-10.421955792975531,6.079881255835286,99.98925410793112
1800,0.04991295792842657,0.022542202483784194,1.0051662740380822,-10.498490527021733,8.220369953115734,5.516919773455914,99.99973780421571
1820,0.09532127557607263,0.0263136325289033,1.062048827727023,-4.435085040064867,3.9262183765909464,10.09932417305015,99.99929233588794
1840,0.004372973260143845,0.03501964388275595,1.0584506583084563,-3.9442445610173347,19.167258656817882,4.8055315604029545,99.99716420165922
1860,0.02153866128590588,-0.004283458585353082,1.0105163519071427,5.360155341360144,-1.7043933940149119,-22.35975390439433,99.99938683104727
1880,-0.007607449785805061,-0.10095784110280091,1.0830446170165091,2.8476640519312526,10.38208392763262,-30.03637354953809,99.98738155713909
1900,0.0426221325448633,-0.012454994691710812,1.1152560815819492,8.853283361213723,-3.9017885288714957,3.966020683808795,100.01842470700561
1920,0.08410720287574969,-0.04037623274352502,0.9626106758747881,-5.993505285217438,-10.226904834989714,13.296350216973302,100.0111061904853
1940,0.03939243442604396,-0.007806978713545284,0.9869521163920052,0.3166804433033549,-15.989361917806136,-28.962060229017446,100.01269450396744
1960,0.02516112302871786,-0.06027988047852052,1.0002081081843364,-11.780931354349457,16.43370328276926,-0.12584317406711332,100.03311507843354
1980,-0.08105664131806116,-0.06308084353141638,1.0978094227022643,18.547718963209505,1.9704971790891865,-19.089004217981348,100.03028961456205
2000,0.013134822816301905,0.0628780083833922,1.014633197973117,-14.177169524020812,-14.605366377090789,9.21743486537309,100.01701229265673
2020,0.029522926014266343,-0.013464641868477357,0.9848269682965769,-13.355149236913107,18.604778620793446,-8.766504634904045,99.99767373653138
2040,0.05119164973117279,0.04964300661016127,1.0533115701097793,8.002259218960218,-23.792417114202177,-8.933749814327523,100.05635240791148
2060,-0.06337105389537874,-0.08670872170423882,1.024580918163808,-21.460932522684576,-15.071941498884303,16.646672690953867,99.98770874948747
2080,-0.0019161910045477856,0.018361327946224148,0.8836325902297752,10.526572546025736,5.2661341091396565,-16.906595813637757,100.01500714455165
2100,-0.10984295664203164,-0.037131887532584486,1.0405622534062746,-6.114728749385518,-11.886942903477774,-25.07064202492619,99.98044392455452
2120,0.03139058814870913,0.0726305156714414,0.9716437569903288,12.529364266554278,13.64622844359948,-8.656534019957014,100.02008613270444
2140,0.00678875955040514,0.05815929279066173,0.9708226527031676,-0.4650386548581029,10.535841456501906,-25.27557908404767,99.98787703737871
2160,0.02113097656273191,0.07176110884083216,0.9787304773998976,-8.862399418178212,16.615944680840123,5.712776433070158,100.00898228847689
2180,0.0651625622968117,0.05604355926430454,1.0034261679158232,13.576696605448117,-0.4900800665007883,12.909663834639831,100.00086812563033
2200,0.05095532950585448,-0.04097249752466808,0.97639061438627,-4.486611307335103,-1.9243571331177902,12.28740047480552,100.03339002129312
2220,0.02129376882083471,-0.009492572058706924,0.9872361977209404,4.140985421562072,4.691274296497757,-11.17861421997938,99.98812045919883
2240,0.005555839932861003,0.06871512585420002,1.010692481898403,22.377112754123896,6.345810648063482,-10.868509299387524,100.00773898535958
2260,0.07853406503236078,-0.01599281789959014,1.0956072729230708,0.8872013263080585,-2.146453604985242,1.9454801644912982,100.02304347800529
2280,0.07433949287333293,-0.007647120655374694,0.9651628491044515,8.758383758791759,-1.5791559220814169,14.565434786606314,99.96421996483345
2300,0.1564753163303767,0.006511319349166267,0.9176841720830695,4.36033313707413,-11.846221573414184,-7.851481415166563,99.96613613652356
2320,0.030313792694824544,0.05305475348390061,0.9760460161418543,-11.413278503434277,16.16935771385221,7.975237864381711,99.97570948624227
2340,-0.04541836285498225,-0.05151849916253409,0.9364580941390744,-12.330329087436578,-1.1297598789400456,-8.99734404601374,100.009726069148
2360,0.0323671505337399,0.021258572297441658,1.0286481251390853,-11.483433921566897,-2.97004689085178,25.41054303823924,100.02907857328914
2380,0.01466351442762643,0.010085553946793136,1.08959668458021,-0.06550018319387788,-9.199608603585038,4.388013306320268,100.00162511555195
2400,0.0898969782655559,0.016096414188429838,1.0069821295375294,-10.319002576667632,3.2962606606111535,5.010052492184285,100.00436767405624
2420,-0.08196576729496907,-0.045587320680672457,0.9463825008976579,7.79031008377874,6.001493503468945,9.461056751963802,100.00401298368391
2440,-0.045150257286502904,0.032476113782302106,0.9906697930167767,4.239455567068585,-15.942339757667384,7.075335615919627,99.97372394953477
2460,0.0070713183152565215,0.0238983385500497,0.9527872665216501,22.012148757995384,-7.25285030862165,-10.813084913572713,100.01435167810658
2480,0.010791870195156405,-0.008711342595523258,1.0252748614174727,1.8549009972477413,9.14358189286672,-0.3352259105646655,99.984768564354
2500,-0.009118687068923676,-0.05508054694705301,1.0098814751290934,3.4593757969631374,-1.689504228316652,-6.160360172361808,100.0334053934085
2520,0.02838836343458879,0.060764778718608414,1.032291291715423,-7.476866088212512,7.435208084952142,15.03131341329324,100.04924288519284
2540,-0.07976160180593496,0.017321423037199187,0.9974154044131996,-2.0827793045275076,25.176152315342605,13.806248479450515,99.96862255144055
2560,0.024927471351482287,0.015112283133072897,0.9261040394538104,-18.138669591271025,-15.839846975157105,-21.8301933005081,99.9462560262426
2580,-0.031819215683243335,-0.029764848867638583,0.9928620534636415,7.552708754290746,4.1228592592692355,0.9221882979849644,99.98600010427509
2600,0.06180935345405328,0.020061122152747808,1.0059472321011709,16.191689496015684,4.454954987309989,-12.689415169639792,100.01700977595712
2620,0.002200144319025503,-0.02084006812156566,0.9212376069141611,-7.812210431461303,8.743517864068181,27.529473665696145,99.99980621794975
2640,-0.01904594692100453,-0.08562829011704953,0.9643898820171504,4.169866639179164,12.522233822737943,6.781214391438867,100.01749248733219
2660,-0.06883430924362131,-0.005867824254734024,1.1673209264779663,-6.823555553303075,2.5444064889186873,16.46176242094878,100.01136668310778
2680,0.018258493201483785,-0.0430485589164977,1.0374365454409895,15.170449198647324,-16.49680594851452,28.981921412145958,99.98347525229782
2700,-0.0127740625860734,0.08764676613457997,0.9578776410864063,-15.636565310773344,0.1796011171378765,-4.589195689503183,99.9891963615887
2720,-0.02036193810716269,0.0821823121402893,0.9629535799463503,2.795376380423149,8.1162615741529,-30.307582298376506,99.97637793590596
2740,-0.019007681227034917,0.07945025513391187,1.0294983062361502,17.739865025949946,-5.929848643763768,-14.016800825932316,100.03269999698149
2760,0.09030884744586803,-0.00501247406521508,0.9805947479704619,0.09692872180786538,-13.474078825594116,19.369398778813714,100.0241493145987
2780,-0.03918674168341416,0.04091034439617088,0.9552796542561873,20.070004556504955,-3.8915428968797015,-4.114160548132749,100.0267128739921
2800,0.021810190119976522,-0.002340318272398468,0.9765011346629965,-15.61133383734646,6.23542772509705,15.005010602876851,100.01634366191934
2820,0.01998531506500717,-0.02036916522832746,0.9032087587162246,11.078320905324514,1.0508699170968616,11.513584082815678,100.01247521966874
2840,0.011971287452571276,-0.09522406459562545,0.9039700063501025,21.507318661301543,-1.7834638232887352,20.778484421442233,99.98762827366137
2860,0.0161162503437447,-0.020247001909951833,0.9569737365223642,9.81146715122592,0.6657515186440401,8.186088300232681,99.99666822841903
2880,-0.03554039735404429,-0.00250146317274658,1.0154415388515337,13.183318012897079,-2.0415980485160072,5.008753411190524,100.01517358515557
2900,0.013383621869681306,0.03909226502230917,0.9916554893828218,6.187212555351042,5.734870137027365,-8.821663845719295,100.0319208940565
2920,0.054563033361087344,-0.07013923261546337,1.0838921122468212,12.49493236499608,10.381066039145342,1.1308283224530151,99.99120823200126
2940,-0.06834009813719447,-0.02564371222244176,1.0890513415631364,-28.46910052720566,6.588990488228429,-21.36191008671924,100.02632919369323
2960,-0.032202077255835924,0.013233467055591287,0.9824430057741115,1.7624659185651619,4.377386978259263,9.423497133275898,99.98308266895565
2980,-0.03903508238854576,-0.012497682165759279,0.9415310319663582,-0.52564655961829,11.995745310820823,29.50412696932046,100.00607813009597
3000,1.9898529959208773,2.027805889640933,4.317867854224824,356.03579310335505,315.22703790578265,331.7830323368833,99.99843272221362
3020,2.076212964304304,1.9806965234889167,4.23602086689085,325.7604086109556,333.1732931770678,362.5211106008308,99.46762164676437
3040,2.0569337823496374,2.010399891193762,4.28744102735123,337.58197403043494,330.5981659470144,345.30840798295213,99.45637276334719
3060,2.0051347984428687,1.9798531763738527,4.3198993202681795,331.7651464161798,337.1537680129351,342.7511017536091,99.45455731470457
3080,1.998005889001205,1.9203383439722963,4.362821800048524,331.61022598610725,333.2931249154236,348.32783341793464,99.45175766571305
3100,-0.020974010910194095,0.005108539732983293,1.0270674390158567,354.7588988140197,364.2188950665865,341.51267210122353,99.49293329208109
3120,-0.03667820433066406,0.011025788997156435,0.24401319219806597,341.599407916666,333.7289101361721,326.89994781436803,99.42914539312434
3140,0.05249742530939642,0.034953419437897586,0.20617627623021165,324.8977427874618,347.70879095371697,339.8773091081227,99.43718091444148
3160,0.04717851645953937,0.07021242703739487,0.29385727627482927,5.6902081337146715,2.970879999005842,10.371262595161365,99.41168602699793
3180,0.03974775427966701,-0.022860957985773502,0.2101075277197135,-12.404053423222987,-3.960711784199887,3.572284644672001,99.44985461520659
3200,0.01293544945537177,-0.0530071504418749,0.15934184501723933,23.823714418006517,15.831946074853132,17.544370922653883,99.45531440138554
3220,0.046601657854540866,-0.06206812890095642,0.16688762488801023,0.9349628497289612,12.176304967940386,4.270364641827811,99.46556117134732
3240,-0.007868476798629802,0.011732755887069167,0.15520666408635847,-12.37611063640689,-1.852117915520057,-8.172098435538093,99.44762114975238
3260,0.05705901882357668,0.06743801012843724,0.1167173448166419,-20.143779312309906,2.444416660286233,4.83809379307538,99.44626008547029
3280,0.08184584255215827,0.04361345008139173,0.1904188865386292,-1.6324730283014186,3.3285064628704033,-8.356501426873159,99.4522125246094
3300,0.006512544260784104,-0.094312628942623,0.25709851329260963,-1.4756296390026309,-13.256136389769345,-11.983829249350112,99.44185248937616
3320,0.05052016208799723,-0.016443765831693585,0.19804592167774768,-13.336687818323798,-0.5832546372744984,3.150520954483323,99.4389449632516
3340,-0.017238579183093582,-0.009064629495069166,0.28079617951163777,-3.7787317905837865,0.0178115119909302,13.582562563721556,99.4294725186905
3360,-0.008475867556095421,-0.04865786204845346,0.17167484549012732,6.770517559585148,6.324759374652432,-13.29400701333015,99.45993136608564
3380,-0.014913720488099426,0.03169339492068848,0.2608945523820026,11.740581330408915,-15.686146271538817,4.865729082485367,99.44180443170119
3400,-0.03330491561770695,-0.0374468580316159,0.24121797333672376,-7.614500932074171,-2.60471471885085,-2.1152516323495982,99.43340072826105
3420,-0.02253744759485779,0.040886241051836504,0.24156565438088531,-13.10006188875203,12.081755051424508,1.4022168952131573,99.448045858776
3440,0.03756532107712189,-0.007965467875069717,0.21443171495678953,13.330755958158438,15.196154566777267,-6.82380971989092,99.4410560369694
3460,0.030605708378469477,-0.008504386976081546,0.23833661920359867,-18.311937407947696,-6.852982780876687,-16.92827129210206,99.47288609191419
3480,-0.004644629835676206,0.09605333083052597,0.21449895396386692,8.226964440154326,20.78534328293909,12.537889808752901,99.45144150319653
3500,0.00012832869033843936,-0.037203242291432466,0.2650949889469063,-1.5226567583105504,14.798335819900139,14.80146814598277,99.42677095284432
3520,-0.09541234942047966,-0.022950152389457034,0.19714510625334922,4.507878416314501,-17.82228802420707,-16.00619926671985,99.45277645554458
3540,-0.07033121963236037,-0.03454032504838356,0.1895770261440052,-9.131930051890812,-0.4819764882354258,9.2984456843628,99.4334589711554
3560,0.02688665701526437,0.14801175706344943,0.22999049627862464,-20.031933237088047,0.6751171482423536,-4.915723483732805,99.4915324828759
3580,0.030403529476709636,0.017871131246448593,0.15364698495731807,8.806594249732075,17.98668227731437,-10.683589840676007,99.4549840659175
3600,-0.015467051594017723,0.055191622913727506,0.1961961135959856,2.069657119373919,19.131542348910326,7.403121930956379,99.44045002531942
3620,0.011391636650608503,0.031014399303370178,0.17249109654000067,10.742191521745463,8.84496986313399,4.379732775080983,99.45031853775387
3640,0.023534432425876,0.02483096424425192,0.07214745229236916,6.826625215621116,-7.260308289698845,-8.37090100731232,99.45210519726871
3660,0.02518933418755817,0.06093193969107294,0.18607986411918404,4.811605074233957,10.692985868234098,-13.320379714749276,99.45659966403403
3680,0.0011785511862805816,-0.017628646847685357,0.135889692902645,9.154568201356781,20.78665947288185,-0.45381090519156864,99.43532023626135
3700,-0.014206339676282249,-0.026182219551527088,0.17061195270716636,3.8600688502211415,21.583709131013602,4.760349691481953,99.46191459185758
3720,-0.014121743357375122,0.006236717566002538,0.2953022933190983,-2.3506442824248035,2.7046192361092873,3.9954132155614985,99.45133313049774
3740,0.011230267296764221,-0.0023999282542941838,0.22233509328555817,-6.177123151490882,12.648947884870784,-2.7421203217624583,99.46197259721586
3760,0.022934915206892503,0.005082364331950938,0.1263977077021845,18.481288797323415,16.47427945007633,-14.729395350709854,99.45079611203752
3780,-0.003972335534427147,0.019891241577213746,0.18732653487962542,-6.575695985860415,-3.9097955223893814,8.476627436826101,99.4731667949583
3800,0.015197692876965225,-0.039458357229585184,0.28738445340489704,5.627478834149359,33.51073535292866,-7.447614051425294,99.42802750307887
3820,-0.0036061072535203114,-0.0004455372064994379,0.15246094977895122,-3.76954358223296,-0.6843431707368078,10.84296933397427,99.45636899515337
3840,0.08964033539957059,-0.058882377846182714,0.13142862107037795,-18.489136444084803,-2.365268666816107,-14.625647170643703,99.45893413763743
3860,0.05763599752542902,-0.07878035192906661,0.1626971669899872,-13.33408633510658,8.326944004438898,-0.6737086413916995,99.44216458744141
3880,-0.023813632162581214,0.08312718602872438,0.16606394356302562,-2.372048933758228,9.715134196525783,-15.996782756356449,99.45850853161436
3900,0.0686687175265188,0.047357039734438534,0.12062584888726843,-11.629349175292516,-6.716332819783441,19.566447839354893,99.46245274688701
3920,-0.0010428688061629898,-0.026560080073497166,0.24745014931849768,10.361900649639589,-1.3736385006431868,-11.33654352690137,99.45268153135355
3940,-0.03973036808183754,-0.07796527224326161,0.22226884783914927,4.514368106455381,8.493464177896765,-27.41290133278132,99.43267830885245
3960,-0.04730705154473988,0.08505253668843549,0.266277303529627,-11.292523248325473,-31.17518777501455,-7.692582924093243,99.45360015955131
3980,-0.038254723602414956,0.0733546794701737,0.15905556609634897,-6.8814849515944,34.83419770338209,3.549941542831127,99.47154542860038
4000,0.05707289348228135,0.07060934649019815,0.19153166501237273,-14.326261503107741,6.598537903766511,-15.393819644138908,99.44995784037354
4019,0.015708747939454436,-0.07372049639433749,0.1328327563153965,18.00874271561801,-5.684475109152031,9.132163104788736,99.44653499604107
4040,0.06088221169164664,0.017738912509778836,0.2260424999395887,-1.8257339111660218,-14.760505731323743,2.994014469495669,99.43644069351708
4059,0.052612005387975835,0.03828407182208604,0.244532211380803,-19.153083031713535,-6.296640603197096,5.520135611358023,99.45201162281319
4080,-0.029768723078073718,0.026486530141889633,0.21332524212099813,3.1473655442890447,-34.48117363928398,-11.557784935656045,99.46946718408613
4100,0.020986891604912808,-0.004630311533399131,0.19299590208028716,25.99399766545658,13.602645126846873,-20.10565195063341,99.45743567763687
4120,-0.05567764773887765,0.07799577083648593,0.13412825855659832,-2.613102285388381,6.929493749483049,2.3655553052361284,99.46665712987834
4140,0.025406758392321194,-0.02461274337299851,0.13990381401998706,-17.684787073134977,4.1828387949966315,12.878775503451006,99.45674125813537
4160,-0.06583877256038224,0.05501330351578894,0.24588257962446797,1.3488147838370672,8.412342648420518,-1.2188468695851111,99.46199257726934
4180,-0.022703445038255908,0.0549538856308797,0.17697722088394302,-6.589001710560124,-3.3128473494408013,12.420958777035374,99.44555016428535
4200,-0.03627713376382085,0.09130241005943728,0.1189291756861422,28.783924370071823,-2.8556422184295247,11.153959999625304,99.4190657577938
4220,0.10375935409225522,0.01800812396833886,0.20381502922341252,-5.993241515627746,5.5067882475242484,14.021513428166987,99.43646955838659
4240,-0.011741223694261116,0.047958642776926186,0.19322943335287085,9.635325843369774,31.11597940608592,9.801647666934823,99.45768209996339
4260,-0.03786400987974556,-0.052900511151521515,0.13747533695665617,-5.5383552828547185,-2.628633243434752,12.31602234957759,99.4413556313278
4280,0.04418786548242745,-0.001200263505486738,0.248148764729602,27.102220308018396,24.509032132634545,2.3647473456298123,99.43755756747001
4300,-0.023232727224272127,0.049715016159952496,0.17188697978933054,-7.110598718330149,0.2520950066901169,3.9886652002485885,99.45491550923055
4320,0.008904423024229068,0.06540546892950551,0.22082512240505586,-15.965325767913178,-4.570640066197045,22.006389256905635,99.46651571389614
4340,0.07217282343490278,-0.004908232475797136,0.18369661011416388,4.231497521206066,24.712516492854817,-11.501797792784378,99.43122451746054
4360,-0.03533653756172611,0.025843539814370122,0.1523613081720704,2.5517410199738704,-2.7694722787417843,-19.813285585629497,99.47752801216434
4380,0.06912798918055854,-0.03609484735199351,0.11456576342066006,-23.518121509366104,-1.4295981552356236,12.727392050984069,99.46949415112576
4400,0.09781169425026164,0.055005174669265904,0.2450213603672074,20.149391470360232,0.13991130452770834,14.51104809662609,99.4609347165583
4420,-0.00020210034943728556,0.03700655458325227,0.19224650222953565,-27.950584074440236,-26.96959901726069,-10.233150884594233,99.43434728416597
4440,0.02842074403488398,0.0285076946615897,0.1678170846166704,-25.096125492708786,7.681750291687074,7.530065683483129,99.45249012013949
4460,0.004137838825715569,0.06993972925333138,0.18107123881500098,9.764016003953955,12.934763558892739,-14.5925702353622,99.43959997995302
4480,0.02586355306456982,-0.020936376988067728,0.16651859394684487,5.392496177109378,4.107976997134598,10.100841155761607,99.43043700648894
4500,-0.02960574200684439,-0.01972480822266715,0.16990868258340464,1.994818676699607,-15.171100775156685,-6.357636571443269,99.46348739599877
4520,-0.0032180248336585167,-0.0002934358853282366,0.23802056734855193,-7.403908753395922,-17.70171309420845,5.320981498045315,99.43284782107432
4540,0.08715393535136129,-0.06642981577993505,0.19257857646368118,1.3892478246948678,17.073848902137595,17.46739239933909,99.38207466610035
4560,-0.05077437660018731,0.028210683635162312,0.16755713509562079,-1.8334890021993262,3.0286362243334173,-5.6687259296577475,99.45412944280076
4580,0.039090625149157024,-0.01731504563382535,0.15566851802541037,17.20967153134563,-4.438597888888806,19.406248639558953,99.44337473300503
4600,0.043070597508113054,0.11455079338037494,0.2575124811633295,1.661182574464053,-12.085770095528954,17.627976072654263,99.43240392827758
4620,-0.0015457447177429893,0.007551554918857158,0.12535209376708883,6.5394756205675755,-15.44762967946072,-1.7912616103435341,99.42310104406404
4640,0.038760358313970164,-0.029291891223193894,0.20374059839318795,-12.049824648719149,3.142575163829065,-0.5619435943200507,99.47660293998437
4660,-0.022264136841332972,0.009099104349133353,0.2824910956548564,-20.959566549220952,7.631272690152404,13.113126454693962,99.47285119889304
4680,0.06302476546309936,0.04227459210690693,0.15127004678771547,-14.239399202011498,22.300860036898342,-4.2387294586003,99.46850144449712
4700,-0.011835919360478491,0.06618363432761461,0.15389551491076542,-11.317272871704548,-5.614861298133779,7.132858087932879,99.43836205160413
4720,0.04334242181802968,-0.031845406259955356,0.2193114071370253,17.23339085895391,-26.129698527474453,-0.3012118777975759,99.43460329186671
4740,0.0020117105482917825,0.008517496459650218,0.12955775180310602,-2.1702425527959486,-5.659249963678735,-15.496982474971738,99.43116760075021
4760,-0.07348430730068949,-0.0014967665368976657,0.13784025488768792,-11.272281424135393,-31.982582629953107,-3.489268187482571,99.46203834034016
4780,0.10984279694247055,-0.11030192834662121,0.20481488200297934,-18.20141662969602,-1.0351225793220489,-5.770653524718083,99.4269327779465
4800,0.09105031028896715,0.005242850302635268,0.22561636844974534,10.58098324375635,-7.642172339436312,32.430637454837616,99.45299123675632
4820,0.02730635717697399,-0.004588565589768208,0.21314890098844871,11.399228493618407,-13.012104903671185,-15.620292191403045,99.47082225548425
4840,0.06586048123847159,-0.002543102991463273,0.16512597407111315,-2.534021909165692,-8.827165960432009,20.710223837159177,99.43603326781268
4860,-0.08782752466234775,-0.05380591576842101,0.1666875784485161,0.45097050332331534,8.586328188936506,4.727495268552012,99.49292095596223
4880,0.004319194189778827,0.011417850097559117,0.12739794715335626,-19.90210735249309,11.06356184537221,9.228922848810605,99.45716529289112
4900,0.02056035601792453,0.07845709732682377,0.2012066307717558,12.531812379589997,-0.35891218964315674,4.145896918222451,99.42039306192179
4920,0.0018032477738170972,-0.016341822034263976,0.2120425346566614,0.395471382483573,25.99316480931993,10.71820939550727,99.43026869315912
4940,-0.04940968518976263,0.003209651339674795,0.24116654147586597,-3.1609578768144146,-10.601426221211806,-20.817160565210976,99.4502906210377
4960,0.031122521744209836,-0.002702554711243793,0.1450570395863143,-9.843111720410628,-12.332556187904252,-4.019936343733647,99.44886878113024
4980,0.040360391254772865,-0.014806492270940413,0.19606562849372738,-17.256241703779946,-27.25511058336827,-11.941967305588895,99.4723685470397
5000,0.06498331342975923,-0.006232494459203659,0.15786426278377302,9.418018764984952,-0.3897973165503294,-2.972225216918905,99.44517889629344
5020,-0.006692388641037834,0.0054712337370027096,0.20934665242296022,-10.665045861579054,-0.8615504532844491,2.3378000823370937,99.45750162257306
5040,0.03554592862101159,-0.058930431359376784,0.24219737978962685,14.020267621326434,-0.562658119804157,15.470011566026482,99.45729070206046
5060,-0.034248261248760924,-0.020024484606205394,0.1494425118151858,1.6912502405882304,1.6840072724522233,5.4769980737930375,99.47802411328219
5080,0.007471304251466937,0.03486487298769492,0.19188856479555672,-7.661987737010558,14.036903626559727,4.5296146909600346,99.45341068778376
5100,0.028732333062876314,-0.03906888004593565,0.2747417178680225,1.4619425412353584,30.888975737952734,29.053870513221497,99.42037971318392
5120,0.049453658743720735,-0.06752791605405792,0.16096709284439412,32.81500394569376,0.8267951181634972,-3.604077632913876,99.42534745866504
5140,0.00603990114759426,-0.05249310950450562,0.14321934774827721,-1.7038099816738017,-14.43539771241062,-13.358920525680109,99.45187496791424
5160,0.08785824431930346,-0.04133757758249551,0.18401653243292074,-10.257716933000436,13.579905653127035,-9.096775781460968,99.48506047768521
5180,0.03210855306471608,-0.05009227409055675,0.2241122667231519,5.099719467386749,22.198504768963147,-28.93695312648484,99.4773057291094
5200,0.00589850917113614,-0.04786057685378244,0.2093365861036951,-11.158290123274645,-21.462140174075557,-10.763494929368438,99.48566149509041
5220,0.011217702565435618,0.003438031766648841,0.1399091638273813,9.406030437651811,-0.41315125406152386,7.925308080347083,99.44548015912012
5240,-0.005441794490867314,0.07354095918554057,0.1739210032171026,-9.909985871094076,10.969437112743995,3.9759505519674345,99.42883799241747
5260,0.01774729675473603,-0.05078595080427295,0.2221683352766258,-6.2441117860592765,-17.29761316978656,21.852476629598264,99.4431025007514
5280,0.12810962943860135,0.0193272719486125,0.22584268804793248,-7.140804280284233,4.5392901312975065,6.409051988648933,99.48889310065488
5300,-0.004599833306417758,0.03511823287477878,0.12453025588458103,5.663730596340749,-12.889471079660058,-15.744450520970357,99.46989649696768
5320,-0.05055076790291016,0.03892015709247862,0.20018991036142247,0.8296663939642793,5.136608320313928,-19.854053963390726,99.46735416204578
5340,-0.00955193667859311,0.016628780987307117,0.14878851191533238,8.68673102594317,-14.28068867722434,-15.714937330622446,99.44044797964808
5360,0.003008003117105294,0.011300932134362843,0.12028004057510727,5.010684909583058,14.995439075774048,9.726529418185757,99.46743777468224
5380,-0.024668093827645184,-0.03376847118616745,0.09470690011449426,16.94133188966999,0.8028647406154066,-0.7237313734294357,99.4399082929957
5400,-0.05417988837161646,0.026465563217050722,0.15843964906549363,-6.049391361590153,-4.5510788980334755,9.101712815160392,99.45397547180903
5420,0.01743605060144762,0.0022612074180418415,0.13323561375024537,2.5389345567141635,9.722523058222778,9.074949099068306,99.45268139649336
5440,-0.014763787640948732,-0.06443390360772183,0.10446821438912209,-9.252410971944242,8.101650611030912,13.032124690104602,99.45157773362101
5460,0.032903781303551094,-0.012729821291218149,0.23873387017581826,0.7273395587049671,11.054772951739702,-9.682775798522625,99.47323931271563
5480,-0.01820079879565024,-0.015520088988270965,0.15248244277706374,3.8953838659325712,16.762841134010806,13.673052385746763,99.42874717155262
5500,-0.031219302552858742,0.0016757149449362332,0.22127575160241858,-15.638747803252972,-4.214314853844744,2.6615935865789098,99.4447284460223
5520,-0.008196135423322749,-0.032536550382583726,0.22183526799408246,3.9125788291877432,-8.562989996369273,-16.35065276796459,99.4580316717109
5540,-0.05673052172899284,0.006822582150934666,0.2237075840806652,12.662855660563302,-10.365239274943677,-20.287242084582573,99.4586395087738
5560,-0.06221391735793577,0.13759247639529504,0.17948123675187944,-0.3792213801952554,5.428399785780524,2.5876910825371193,99.46544225224567
5580,-0.0012487379521969732,-0.0036666723965741114,0.19481139812393866,-15.351582589894681,-15.965399635344777,-9.148743002160312,99.43466950323652
5600,-0.011634202331878995,0.046352620452417254,0.21667301281714343,17.634041796166738,-9.828497558659606,10.108888030848275,99.42896837270686
5620,0.0198822923801531,-0.02359173174008953,0.11629436642461037,6.6847626842758805,-1.1022696836468953,7.432496881676329,99.43810671571484
5640,0.03969291070236625,0.010043123440025711,0.21844703183600458,13.999771420545402,12.070944681391316,-7.305549366549549,99.447592238464
5660,-0.00745781345892119,-0.006309337333089478,0.13855580543939705,-8.870988823326012,-29.77348639729528,-18.37585931826024,99.42736381305163
5680,-0.013497333226648712,0.09111919053456909,0.1583637836366295,-10.178703867548538,5.07427519425324,7.129552559620659,99.46074132197472
5700,0.015349634078022999,0.009503316730006692,0.1848726699468967,16.584396970235204,-22.542754169450447,14.162342198994722,99.43481720866205
5720,-0.036107908175911266,-0.01490033683312899,0.2103404392127946,6.646201414169305,-8.29446715280904,16.83753679251978,99.4320556076723
5740,-0.056304557126276356,0.039570770878395556,0.12184612137191553,-8.837038635075967,14.885610508078074,-19.93420301754425,99.45473476733655
5760,0.028821518033989454,0.007519299944206447,0.22689569475477445,-16.68890698776532,14.57776605383959,7.18667477530148,99.45672402107496
5780,-0.040826053042581884,-0.018855476755441483,0.1371996391579418,-6.197969778656412,0.2096628881031934,8.971453758614077,99.46716982127694
5800,-0.054907216130180715,0.012482956481969048,0.05909547980739041,12.414194802998093,5.6135116856896,-50.62970289697921,99.45591173679045
5820,0.05019509254625423,0.062483813448330275,0.2310362973117817,-9.037743751432838,-7.64473135784405,-0.3376805501153206,99.47271667698007
5840,0.03491030943466128,-0.03740481608018473,0.25824105931046704,-3.0659829695679006,-4.963827857408818,-5.856570280960202,99.44660721771143
5860,-0.004642834309260452,-0.11736117616557229,0.25532084838645597,5.572967002747483,-22.11250823588512,3.672138781435188,99.45037200267782
5880,0.0015407247551342618,0.036432345845542904,0.23145799207980527,-2.1539570024032617,10.411303592422392,-13.791189901853084,99.44807189944478
5900,0.012261728147823111,0.011637210991612914,0.14277007915832415,5.233805084352978,10.202753022436955,-6.473017545983261,99.43566319999046
5920,0.0760870525531985,0.15234837312589627,0.20951316709526646,-7.384223500113567,-4.003317783876257,-6.169774664627876,99.43073886034291
5940,-0.0408250910473511,-0.05867425985857843,0.18044390383803866,15.329707369106028,-8.588186033159069,9.141594885219975,99.45032593845411
5960,-0.00035220419085213965,0.005276577739675339,0.2320743763103254,12.31424558591321,10.210061112633834,-20.007498689204002,99.45056947090357
5980,0.08045008834048,0.017489402763636683,0.14323567826464845,2.956416327353697,-8.617784077891178,7.423760510661635,99.45448250202458
6000,-0.03078919453189971,-0.02560650784795498,0.18489743072002696,-2.671905495462778,-26.612650766565096,13.923217296373213,99.43464192051228
6020,-0.06277646105338859,-0.03531091469850819,0.25813631154975136,-3.459685035168177,4.0316880696843675,7.788701219074939,99.47548361802765
6040,-0.028532474446698698,-0.012091187663712762,0.20594842852187425,2.4661980939153314,14.788555709542223,-0.7458721525850289,99.43874763671093
6060,-0.03080467285808495,0.034777909790468374,0.19596192202387971,-12.78796942265652,-2.099770873325421,21.41966226671029,99.45320037982798
6080,-0.01697593325933631,0.05894884924350721,0.22495608706791395,1.0217746919642927,-20.646107862777225,-0.609026185199649,99.43419329547544
6100,0.08461952432737178,0.028361539311546682,0.22889251820236972,10.720846340991928,-9.71024694017755,5.816734196357382,99.4911325363971
6120,-0.0762509024227383,-0.07180265996136649,0.15333294425542235,0.031813362701209554,3.226834751622092,-7.6823273299249095,99.43114084189763
6140,-0.03766199897243614,-0.05588814099185564,0.2716704716458193,-16.19186893418903,0.08945102406767752,0.02090827455946664,99.42730102376424
6160,-0.041066048254991584,-0.02463450031368429,0.13731003770719524,-9.829647905966173,3.032419016224518,-6.262350388158795,99.46923020753809
6180,0.04276396403520166,-0.09474253619892332,0.20225656414571833,-6.65983986807511,-13.478987748207327,8.347044538866584,99.42485724692438
6200,-0.017609207777973895,-0.02467210536700446,0.12555335561394998,-17.85126089365256,-1.4256442826433129,3.3984216792792745,99.442549585681
6220,-0.026781602210122008,0.03242409265168363,0.13248345712815496,-3.9822866407227506,-24.98095121583465,-21.432636405757652,99.40975243595204
6240,0.03681002464617105,-0.0062466876515632624,0.14808198573950804,9.987862799172785,-2.470063717775937,12.636671078682863,99.45517117181511
6260,0.013823281746786703,-0.028214257109231384,0.17082193670151277,-15.0530900437623,-16.947808310016303,6.8006430137329605,99.46066796497395
6280,-0.08427166615421465,-0.020858991886675858,0.19005438722646037,-7.414451061029453,-0.2791525843725096,-0.5934863452211833,99.450236845453
6300,0.034825568185265526,0.00928333965897236,0.1680114471891291,-12.527820869744613,-4.698880496363371,-13.968431997064563,99.49626053121092
6320,-0.07343285714027167,0.03568970128669207,0.19054774400325722,4.955475841473834,10.417971257628853,-25.155371526329134,99.50109047034682
6340,0.02024952695943861,0.05655015351619389,0.21628889783959304,0.31134959398817286,5.478941599768751,19.229014076260363,99.44570147795584
6360,-0.017229580798928484,0.048944391137328666,0.20704134964187385,2.581284975809152,8.896213509255757,12.534952870415424,99.43556942655682
6380,-0.038310499477247136,0.02595956980261732,0.2105934198362463,-5.91708520189233,2.281520334333411,4.184665648352475,99.44552159250715
6400,0.014939699104754074,0.09160926069326732,0.19425158849869628,-0.6415212877408352,9.061084179981545,3.239849791500194,99.45867467515319
6420,0.04472638042585171,0.06106896297371398,0.23323545104829052,19.806128578674794,-15.282791997363551,16.448913953406468,99.48512657664186
6440,0.045747342520175496,0.06382496821739246,0.11721530312799285,3.778522083930202,-12.816217326941489,-6.999358083871672,99.46065077905283
6460,0.01904840426975596,0.03638205831091056,0.2342398953988885,-8.632880317764752,-10.265826346998416,11.849520060658168,99.40810883960683
6480,0.11948433734585423,-0.01456947170360999,0.189569261737571,-25.877970482817346,-4.6047009053740435,16.037256512123648,99.4540393567322
6500,-0.08556414867526146,-0.00695913501197485,0.2199845287395265,-13.410868150159661,-0.8069553292860208,1.9310757844875122,99.43959012927496
6520,-0.026295387235673318,0.03956650250573136,0.2179421687586803,-6.528028255598715,7.130322714507871,-2.581269715549045,99.427581229459
6540,0.06307885284906926,0.036570997356615835,0.21802327532217414,4.349790557841361,-12.879549952832217,-9.356979647900355,99.4301482971582
6560,-0.03952041528472236,-0.057205719848030294,0.11550659088043363,-25.322460664135967,-9.275528016691021,19.101349679298547,99.46059333298507
6580,-0.04362680638438553,0.019699730205356678,0.2969309999544245,9.699041176920522,-1.2336743509555748,0.27907933317392686,99.43840725254275
6600,-0.012870028620116217,-0.02002106171119205,0.24017506345922365,-21.37968252288005,-20.337773255409108,-3.7663835252218245,99.45127910980173
6620,-0.06948324575543659,0.003973018885693936,0.21385297724291422,-12.24649164381334,8.698337211489154,8.162011698714075,99.44166286617507
6640,-0.0003978371644006715,-0.013231843055009988,0.19176437762431064,-0.7029471084836887,22.694090627302135,25.64152601134196,99.47224023958523
6660,0.014987051475823658,-0.10299471882646297,0.26287497672037785,-10.462595183302376,1.1449851391674004,-7.103359261298814,99.43557782486818
6680,-0.040409280081729476,-0.03953055589225595,0.255357525062588,10.123343370607907,-9.656621370893031,-10.338095655196105,99.42725366282367
6700,0.07139259997662363,-0.009062680783340502,0.16662153265652707,-20.400685903450487,-3.738992467724353,8.42974478179097,99.39672776712847
6720,-0.018111041701861275,0.029888009482683126,0.13864634476055204,12.233766184407441,-22.391376612165264,-1.3651052425424495,99.44069962431628
6740,0.07212073949223081,-0.019552658251610348,0.20030520256427956,1.2216065875549367,-4.972435295034853,16.89343631666363,99.47274677106758
6760,0.03973023396941899,-0.01730080892811525,0.1380151729070495,29.268032051233533,-1.0460224572212797,8.953446999353465,99.45059213798314
6780,-0.032941502289504064,0.08181336373182448,0.23370457722953053,-1.8580872874800356,0.8456586746152095,-0.6049850758668689,99.44331794008318
6800,-0.0493035194009179,-0.11535687353735474,0.2718357318467834,18.015493445170605,9.57199961618955,12.899420336825933,99.43774773252048
6820,0.03003490571102519,-0.005864145219716017,0.21208013813755766,16.441476787564795,3.7509334037833932,16.946785976274512,99.4351196788862
6840,0.036246814004814304,-0.013180675257321884,0.2215076128833691,4.010727867072249,-7.726343736325751,-1.9554305461779724,99.47720695908262
6860,-0.039956510399651896,-0.0191487735277581,0.21035000694443254,-24.281123477771967,14.082968810777857,-6.518049477016901,99.43837306687227
6880,0.1160509502686836,-0.012280486949550702,0.157323639604111,9.384050536826358,-22.409203065214584,4.882437263014358,99.45105021587742
6900,-0.05001199076016789,-0.006780646154106779,0.1947864181163621,12.501151197794602,-7.9231639344297395,-6.927663711036307,99.43313100757382
6920,0.010844581118181401,-0.04119205701268655,0.2645060374922704,-18.561146644003294,9.120266095225572,-11.360357950486478,99.4623550744532
6940,-0.0227272499510418,0.053771973435958936,0.13879364771534392,14.520354634373286,-12.700621232448274,14.864023216436024,99.45662191580946
6960,-0.010326754335605459,0.046698117250334126,0.19076227047526614,-4.119539316662024,-2.549217089781009,-12.169075097666202,99.4387843438949
6980,-0.04146949354209013,0.016483118904565337,0.2629905806359297,18.357524968670415,-11.805167526304956,14.552885552265344,99.43407773491408
7000,0.12035693079041286,0.000676406249625438,0.12194600634400465,-11.942393269887303,-21.875220335367253,-5.6335463354929,99.4394921559374
7020,0.03200986755397825,0.11446494711357934,0.24351272548795688,-25.173741242125182,5.90029058505345,-6.253398131472945,99.46696982268143
7040,-0.011776190496042312,-0.012456233450852412,0.14615985988538732,10.698162024607399,-11.579900800116498,12.227475770563794,99.45382111089437
7060,-0.02815508881663638,-0.08013612031875587,0.20453146913538342,-5.873624810562015,12.87940398077047,-3.672789082397606,99.44441339814153
7080,-0.052884285404513925,-0.01779539021491213,0.1279749417023735,-7.2549717437989365,-7.743687817406906,10.810111184943235,99.43939961829982
7100,-0.016938522189079572,-0.010367978473264351,0.1928732579368042,-19.547990308398045,-15.449291429969556,11.36216229413,99.42703691312485
7120,-0.0752040962990767,0.03856555462231093,0.27088133183189905,-19.872745348683406,-18.894504609960336,-4.918030772924809,99.42866502276163
7140,0.005648947965946179,-0.005773027139871065,0.2559652584657991,23.93309820780788,-24.572859476322485,4.995343404297168,99.4458130832058
7160,-0.04883212247740454,0.030665395291966376,0.23388412659990998,-1.568750346261656,-2.6685571270488495,-7.375683474687925,99.41600749328478
7180,0.05211661495012361,-0.05847977426717507,0.22139944467801717,12.042748633334107,16.54474742931575,-3.5421801164015827,99.43074427171072
7200,-0.05969052686683675,0.01810255689789497,0.1743049694823051,14.82199159693657,16.542939993518523,-1.2618502702466259,99.42745062986322
7220,0.0006546925517007263,-0.03998503470352586,0.23932013742662492,11.800398625486224,5.4187721956234585,-0.4276675948685938,99.43585594415528
7240,-0.0063564795460124175,0.030911341222240565,0.22342052304815133,15.234896977897634,23.763331995387073,4.554632513179327,99.44795079770175
7260,-0.022502431129995,-0.012105775809201455,0.11057702695678154,13.613526165749823,18.514149776870912,-0.5363563190518534,99.44551297644973
7280,-0.030007761008917156,-0.02878906139184887,0.1991643830785141,7.383999183643814,-1.3891260927365554,21.183851201890825,99.46428731368509
7300,-0.04723348488977638,-0.028537630338300087,0.20105445223974686,15.382076926769905,-17.818902430809025,-2.9783777062526045,99.47245880294786
7320,0.01964639844730123,0.012442050426926216,0.18141004170826602,-20.39541742560349,-0.9570783104793333,-2.323779734300104,99.46928014926429
7340,0.029930234756965504,-0.020104861071768447,0.24736629571909785,7.183203098343208,8.120159807942514,10.322191788139415,99.43370894032807
7360,-0.0018146592373327376,0.05413397109886869,0.14189870171343083,-13.82445615103613,17.29159848172919,3.003130615374994,99.44749630819287
7380,0.006340110819301323,-0.03614464052152845,0.23489932941003588,20.834780206762268,19.11549867056473,6.169127383471178,99.47069870073511
7400,-0.027587581025506798,0.032127014267090255,0.19736463660738743,0.233162677268775,12.598069990768337,-10.902931937555334,99.44677311631402
7420,-0.04659921011325511,-0.03793065672807841,0.23850486389525388,-13.357025707668516,-13.01314877863761,7.382830662530256,99.47798817280498
7440,0.043222747041372626,-0.09777338232215654,0.14684197879813876,18.507751426158347,18.03737526685729,-24.402765260439878,99.42393345715202
7460,0.05699227476209067,-0.049159046945813994,0.16941182559913875,-1.6471697329184023,-5.636605296998336,7.190147687393809,99.48369006689067
7480,0.020251380500357543,0.03551779845817341,0.27978089530439376,-10.719506824280156,-0.2676555236456129,-2.306547036899063,99.44786135171032
7500,0.011106722415180051,-0.021075243460077723,0.27105213559928093,18.19323402801953,-8.374585480287795,7.2097289419106065,99.41927304134407
7520,0.02105283802369436,-0.0012572353190803414,0.3312119982506396,12.998484330689276,2.019202531429125,-12.879939838324454,99.43316676833749
7540,-0.009209078948008589,0.04385985948064475,0.21314623135386224,-3.233114690151225,1.730117016645706,-10.22577503655473,99.42894376812536
7560,0.088855272856886,0.0070483774617923906,0.174416715006664,-5.5087356561022,1.2698024819405618,-17.669774290913335,99.446989653826
7580,0.06532726704744458,-0.027971123365964357,0.19868336551567095,18.491626263765934,2.707113932177608,-22.360350295581732,99.46867846908518
7600,-0.07286512937059612,0.11434218462739676,0.1368851776551167,-6.2153000742174225,5.687578755532354,2.591802947070051,99.44999284110075
7620,0.11459014751865088,0.06572870017745516,0.2877971258899125,18.374650859893357,0.11936392076637085,-8.506052656928663,99.4452194482731
7640,-0.04354036257753984,-0.12428660104135841,0.20375976274331928,-22.04379510374593,9.233055356330176,2.989231970945389,99.46076456617394
7660,0.05481905347094486,0.009758287696133176,0.2095881627880573,-20.76124586965667,-7.917366531215478,5.667310558392204,99.41602121192574
7680,-0.0862377922086825,0.08963726930009797,0.2527997740725192,1.7116018449567862,-2.9811600762096675,-2.249404678500712,99.46054026938296
7700,-0.008240181179400391,-0.04272244237731772,0.1685141127101953,8.954435938098491,-5.213113838270956,-2.7003863438312514,99.45794114108467
7720,0.002284095320178435,0.09799659831535573,0.23139602570427628,4.689089597091798,-3.90559935888127,-17.424756352690125,99.45664009281332
7740,0.042512717012373365,-0.04627972609973063,0.1676879147160658,-8.09196353856969,8.061832902903182,-31.4949376173275,99.42775190617479
7760,0.015950054566674657,-0.09079305083770889,0.16722090591067668,-7.175229250998397,4.292540780643416,5.91444057336785,99.47623247605382
7780,-0.03465036661336164,-0.08941267507362267,0.08158430099991137,-2.564617999008151,-4.363984557237819,-1.4202782447598294,99.51001297700324
7800,0.0018633484132234614,0.05216310554944825,0.1964208753094142,-3.261217659127067,0.6562331208054549,0.06695352073922238,99.46856087007414
7820,0.03591761718054115,-0.021818716384523734,0.24082662767822835,3.0242420919222104,7.871346976344212,14.04648112827674,99.42866766585412
7840,0.018828386384425064,-0.052454604768576135,0.23586761549163598,-4.245518510280311,4.165376691448249,27.471615516571426,99.43827356429317
7860,0.05096204859259963,0.004778636869767465,0.14350644980556876,14.952785320798071,-0.4865623180064246,0.6830658505929766,99.42969491311985
7880,-0.05642653417845818,0.03596985074594196,0.22142342339949242,-12.719238322638876,-2.3218888476803237,-11.26976845763215,99.43186949454804
7900,-0.04336154561789154,-0.004789622821090676,0.1214373592058398,0.7826660831381624,17.053622173923724,0.2583669069612728,99.46321310787467
7920,0.043372002897917594,-0.05659087679917625,0.26706174490216,-0.6344265840984408,1.1623454974758676,23.24040748375177,99.48918101276436
7940,0.02530459501235026,-0.08566439048684997,0.17797087986873739,5.3329618708768205,-12.568902729240124,-5.949408894117726,99.40803006191226
7960,0.010670293136249523,0.01595655720782268,0.16621192148081865,17.490252403654313,-4.978790081073495,14.04591181895846,99.44493906870977
7980,0.07691892384236168,0.020023880106002014,0.2371751229352122,-9.77731584969889,5.257625431606722,2.174080978987764,99.42614476472336
