timestamp_ms,acc_x,acc_y,acc_z,gyro_x,gyro_y,gyro_z,baro_m
0,0.006252134906362593,-0.010332375621394023,1.088936993074498,8.736571286279062,14.362539197307148,8.5743285782297,100.01519561327298
20,0.061930010244728856,0.027143284029616778,1.0207816723474632,-0.8606232005242958,8.19587191753298,13.886715517616949,99.98136157655567
40,0.027549244134845625,-0.01625061049432295,1.023538800544627,9.348900541670048,28.461486077121634,-4.622235618295862,99.99886274158565
60,-0.05723833756445952,0.00907450868272656,0.9409611725319547,-1.6925015981812415,11.338786532748784,8.044763582456156,99.98826367472219
80,0.008487976608503351,0.0020212048811210468,0.97673352525032,-1.1914727029227232,-4.820214586450324,1.2590303869684965,99.96332783398748
100,-0.014972425549715002,0.06499597445006995,0.8655415857958697,-0.9591620379895907,3.051233906315202,-19.845438780231337,100.01199868212264
120,-0.001152361881447862,0.0420834601093866,1.0527008821287926,3.0796967828498523,-16.004359098463553,-2.4148772289348504,100.02149665193761
140,-0.06944406256293055,0.07807742800495984,0.9575870794141281,2.5667716155064,-10.298508058589544,-6.295794066198555,99.99801734875061
160,0.0009985858547835826,-0.037895824485055365,1.0523590658403987,-11.227103998942079,9.715044260404824,-11.214670028684125,100.00560491068052
180,0.08285996332438439,0.02438863551614091,0.994524296538248,15.658899293223865,1.928869212785696,19.161718036038977,99.9898165481278
200,0.006547465505776222,0.01281095370688292,0.9982490011687677,-13.88647531608111,6.738349557745471,-4.300486511828348,100.02234885673892
220,-0.007215371689887085,0.023837369988278373,1.0749509754389495,-10.693528292663967,12.803557078763829,1.2093007495588168,99.97626423295155
240,-0.03528368795365577,-0.0584521433849747,0.9389955404135212,-15.693527690007391,6.603480842370349,6.599425509719238,100.00350641467675
260,0.0052396700863545686,0.02689267742865635,0.9915970915186831,-17.91404972006543,8.76007358131276,12.857226475935622,100.0191502444259
280,-0.040948228323328055,0.007326154265313302,0.9906059616221204,-16.69449350838231,-23.0020074052954,2.268628572297451,100.02577786118812
300,-0.006202316375119956,-0.06841627370336621,0.9622724172409288,-9.424201358588276,3.6122344570847646,-14.507050959644186,99.96665079541228
320,0.036350471026911337,0.0005957437785423352,0.9561967914819816,-18.74639360253736,3.099232104568735,-14.398551262760705,100.00640756974872
340,-0.03845595607394259,0.09152659460592426,0.985045697884775,-18.40941387735817,-2.6810933455538732,0.6720270934240529,99.99424156480286
360,0.11523189848839376,-0.02625928023748325,0.946701807696461,-17.072982956564566,-13.774447291694848,11.036616982266215,100.0100879179432
380,-0.11211781269966153,-0.047740070772899657,0.92125844584817,2.873866182533195,4.6473268151231,-16.778371754520496,100.01751968471743
400,0.01936516316026581,0.047239171428635936,0.8822079208605575,5.749945075985531,-3.2370547506274803,27.082270204919126,100.02219996651013
420,-0.053662948902059464,0.05966734750897656,1.042969784516504,-11.699704811241475,-10.714308893121675,-5.445233385037058,100.04358485395423
440,0.03929841601162079,0.034334338131227486,0.9821542623903525,9.757330279587297,2.4498603858879013,-37.75741385676415,99.9924139184214
460,0.023836993717030165,0.003428011497941362,0.9129065158013738,0.2776360636442153,0.010381986135156063,-8.932913067402728,100.01382814717472
480,0.031133935740042792,-0.04235604956056575,0.9382367439113964,6.4092412568503025,-1.0372420040823531,10.872302865239249,100.00468562756946
500,-0.0017594359480966719,-0.0464387248081439,1.0209533961980344,26.36123448117779,11.334514872475928,-5.386766444608008,100.00414639648669
520,0.01054041587113885,0.08676172593227419,1.0425397429093286,-18.969660303596125,-10.125569051993878,-4.933575276986659,100.01111598694064
540,0.07131144281887362,0.05969911510958842,1.026457236776466,-9.939660737571494,-14.845751343327255,21.493421660183294,99.99992723672784
560,0.005285732177807877,-0.009194003281081675,1.1045661412226597,20.355041246997704,-18.946683011273073,-5.165426590107797,100.0039739680843
580,0.02244596958541372,0.04626696351173036,1.021418769454033,-1.1333622145801483,2.968793152144732,10.434914824810019,99.99951965247092
600,-0.005956792490595146,0.02263999090536345,1.0152342420890506,-17.993828372480202,16.340637786236105,-8.778694762543438,99.96232602840607
620,-0.02914977905683605,0.004982658854018513,0.936605474629282,6.926358031379296,17.693989393657567,-6.145520102671053,100.00889414976861
640,0.021609921735183245,-0.024837640762097327,0.9564152103860819,21.823720008812018,11.13193418989439,-0.7738804353466198,99.9915375545773
660,-0.0012159084663300177,0.02783960521071116,1.0374321389516552,8.556541066584993,7.291241440129472,-11.45586310089646,100.03629691464789
680,0.04672040817332024,-0.01982231489289378,1.0204244138540475,-4.568277431043706,10.581250843102767,14.055749046604882,99.99183610725298
700,-0.07982900861634303,-0.05186523830063936,1.0457123589222848,5.382212697606127,24.879759206063753,-9.256007363650898,99.99518800919896
720,0.02517113403312431,0.023253293442788023,0.9731294630648109,9.530942012441466,9.93500628466953,7.41676767508921,99.9807159203327
740,-0.08573800825833061,0.0686334846045534,0.9955119196480936,7.480892716821872,-6.801556779905663,5.3759666374632005,100.01612985942602
760,0.06576908988284585,0.017537863806055404,1.0441183967390235,23.02238428499919,-9.08057946142234,3.9420352936587753,100.00622816890848
780,-0.022166807711694103,0.0014762396599570158,0.9856928085043982,0.7727042775755304,14.01771721179421,25.490664292675312,100.02960978145626
800,0.051396365514907505,0.022902830207827164,0.9859757636857488,-11.00945618974016,-2.761552791829092,-8.359717106258012,99.98576934259772
820,-0.05010138289673968,0.019163434189982616,1.0888234137352242,-22.061087636805368,-12.554713432323076,13.128050113765573,100.00915518728755
840,0.03739978665414568,-0.021204414088634844,1.00532562850268,17.138771033431,34.16865289188227,-1.5449870510009251,100.00452663414524
860,-0.022432157159654135,0.017575185798244474,0.9277841580775341,-6.918511923432205,-5.607842489393239,10.304175076496225,99.97855079219065
880,-0.030786700391342216,-0.05157570506114328,0.9691202975700098,3.523813564867959,7.199034854016821,-22.51223526058623,100.00872431424709
900,0.046190993549128,-0.14302167425635576,0.9174492213446636,-3.5706990079540577,-2.758111837747364,-6.971213516570167,99.99838146010818
920,0.03856636246871195,-0.04682236763144158,0.9978340001312579,0.907746846217204,-5.903543800908516,-7.635135972556922,100.01747700563398
940,0.02952737862546713,0.05945708903286902,1.0596310739501698,5.735514661683489,3.749761044345458,-1.693107483018441,100.04304609159614
960,-0.025206286236069,0.05426414712975724,0.9941543603587851,-23.45568078221809,-4.475004488138405,0.2892022159672377,99.99112777723059
980,0.1114527845481655,0.07137015525171625,1.0339858698070317,-10.18238498131539,-6.303296770381317,-3.4694677547687838,100.00978194996377
1000,0.01287637091309735,-0.08725583134699172,1.0063267606293498,-28.744709035669036,16.50155028209791,8.414744746565404,99.99232642747222
1020,-0.012432038438439553,0.004492662068287307,1.0913248487970197,5.520948481967682,8.531143135276322,5.311541627132301,99.9875927305524
1040,-0.06988798147285495,-0.011937068166536053,1.038979003238889,-13.300155487147833,7.781608265209181,12.416615221511188,100.00012202053001
1060,-0.06844067406879578,0.01431204135215774,0.9771077583129,-14.468554548720778,0.42618033135340316,9.22958140324242,100.0178240006377
1080,0.012992887673722756,0.019638582608007417,0.9922380977137008,-0.6054887868662802,8.11935029851696,-10.511098356149166,100.00478269490792
1100,0.022700839895266098,0.003765303276816596,0.9711519618899978,21.63016958409942,10.555791523869834,15.857794106209074,100.0029390227613
1120,0.0504084029513161,-0.01981786797305056,1.0097128758633684,-5.421948969358978,6.118738793922363,4.515326895694412,100.0180014797889
1140,-0.0656472422496327,-0.12055218045554171,1.0191436692844253,-14.671018221378365,-21.452973820615753,11.73294511755073,99.99866899625327
1160,-0.027712439055773714,0.010412166512027081,0.9226704156635022,-9.349238007135572,-19.98222145204625,-10.924940975993682,100.00163531761048
1180,0.004338125454350125,0.05651324542917448,0.9941654779955106,1.557601589182461,-13.939158160864766,1.3431702659484288,99.99317419566431
1200,-0.0001874992495429096,-0.03580651372143068,0.963559025560109,-1.069914984027257,8.183904432270905,1.7128348717608601,99.98852487041032
1220,0.039709629738986715,-0.025480909634400525,1.104510257424866,-34.09665698425346,24.572461161591136,0.27027355891713467,100.00656181443874
1240,-0.054211871537234196,0.05128177846593346,1.0294307933407212,-13.547990200809057,-0.8091953054889013,10.216499219756598,100.0188372482193
1260,-0.025581438710984717,-0.02358813911675236,1.0262008141029455,-12.557140921476146,9.97179478272685,-10.200596965488804,99.99539607809875
1280,-0.08751587944850873,0.043895597283878,1.0223208573375981,-1.3683118347971273,9.575049395594734,8.364438239145283,99.99119586136395
1300,-0.1271138005536888,-0.006195338811308936,0.9352094981949961,-8.881556440670717,-18.24316919990511,-0.8988195098731662,99.99397829840686
1320,-0.02278798626133384,-0.06145726117625475,0.9124906313589756,13.111586402705747,-18.417698500149577,1.3981039944160618,99.99763503051419
1340,0.0015425261621425735,0.003067093130359507,0.9819092271373522,-4.099104322102247,-8.622201025091252,-7.9935117498406125,100.06584725047796
1360,-0.06556763580388948,0.020141910186492935,1.0478731331593256,-12.3625057082875,8.59244057049115,0.19977574739259746,100.01384788401391
1380,0.02799464436759072,0.05832788799703806,0.9625100824200202,-16.623747687110292,10.114800682204228,4.631089305928794,99.974146428722
1400,0.023877294877295355,-0.02581462371250521,1.0473135904554902,6.056627900293522,-7.050575004648195,4.028743802001788,99.97995050942461
1420,0.014710727976663833,-0.006140178106652935,1.08039579128538,11.049761637958747,-25.443270952266616,3.0061472985324365,99.99995666590912
1440,0.014115076692059136,0.005309956411801262,1.0012835294258486,-6.163964106243873,-10.281266909029583,-10.811350565622043,99.9521285359955
1460,0.05912082191637174,0.03228049025297795,0.9844969564531831,-17.479257982748923,-1.1425959318297667,12.586782205573716,100.01428867372978
1480,0.011457889412491037,0.0808213036548497,0.9948261516953347,-11.117694833279387,-5.681462329190218,-11.277626474467349,99.98616403432877
1500,0.025595897977469053,0.11949529780078522,0.974411172816199,-1.8387774849632361,-14.045864221169326,-0.29860655593634544,99.98641495890124
1520,0.0570881679683751,-0.04026351202374704,0.9879391356526894,-1.0293725249187486,11.15821400971965,-10.882883825597858,100.00884019134533
1540,-0.02621784002962777,-0.031367969032116895,1.049934053973752,6.647872330077886,5.807975639496119,12.306572786338418,99.96535495042725
1560,-0.02430767963778385,0.02875100737646451,1.0839627104061413,12.305363919270075,9.455667793287352,4.637474889738736,100.00889607185461
1580,0.038699704740773756,0.015735336185676112,0.9621708070490986,-16.438692363400804,15.617424506601841,20.374956462974648,99.99177729667682
1600,0.03910437035645734,-0.03679040215861318,0.9177383903521729,9.435192778235004,-3.6507171642215623,-7.497178789134061,100.02010150381845
1620,-0.027464278445398012,0.09017142661434052,0.9234559848938506,5.956128855564177,-13.184194525444628,3.138916078100286,100.00283947753239
1640,0.03587278600039522,-0.003601214818704689,0.9148476136588318,-8.414138639885092,-1.8056494011366198,-4.68494845354115,99.98568022804122
1660,0.09803648953109728,-0.03182901053846634,1.070735873001457,1.09584498533831,3.4630664372663658,-0.6377157644077587,99.98622753272653
1680,-0.05897110992322322,-0.04210655108821945,1.027696488409124,-10.741327294855722,9.540272849259988,-0.6590072151607254,99.99270464488978
1700,-0.016663323895059905,0.06475472899883171,0.9264572479260953,4.27017495284561,1.2331404577689173,1.1721038798225085,100.0164152161843
1720,-0.15829265102290496,0.017447461298006877,0.98474044045912,7.422832603696161,-11.937204180186326,15.43924267068602,100.03493597819715
1740,0.03019349706627976,0.014163345061971559,0.9709993088418634,0.5373879878660184,-12.513824910521596,-0.13596146340616816,100.04441280454135
1760,0.06466548262121428,0.01079411558222757,0.9897957478444822,21.44952733432798,-18.258713759291197,-5.13865556496596,100.03682744075878
1780,0.12405700276613402,-0.03789421889946701,0.9638259082911006,-20.153014146309737,-13.61053418775354,1.8061541929624931,99.9990188318673
1800,-0.02213163217615069,0.05914876303953373,1.0444321721128886,-8.133128838067844,-9.095569413360646,-3.892241882317041,100.01856666657088
1820,0.10291078070264384,-0.09135701953186733,1.0102977971320086,-19.796033858658017,-16.210024587545284,18.429209479163294,100.00953896092521
1840,0.07196706237319803,-0.10469952318407205,0.978691360713086,3.179595282634317,-1.8489097689164082,16.02364283253476,99.98360676466442
1860,-0.01074751008214021,0.01840209714066031,1.0102169970808363,2.878443544855857,1.8145710280905871,11.164457122926262,100.03481978718759
1880,-0.0068983694523297254,0.02345297451944454,1.0819310803242068,-0.12194221957540136,22.0372831040458,3.691388869839739,99.98280305511021
1900,0.09422231771130413,0.00253987747250148,1.0517105394027784,10.74460301027628,-13.229088236961296,5.820469072708855,100.03512463981849
1920,0.008497643585844194,0.028452425314850923,1.0789105180958427,-9.236827273578745,-24.91634548239717,4.3293877785582735,100.01121670285436
1940,-0.01082786943323111,0.013130462753490222,0.9532325016833381,17.063301556227877,-2.5044630144382696,-4.919180300997832,99.98170614710506
1960,-0.0418240503655793,-0.0370080992737993,0.9113573435611323,0.5202884219608144,-5.742385378830304,-5.354867095991031,100.00230887471753
1980,-0.025373485925475992,-0.045409782585233885,0.9636420173094011,5.187000582187578,13.584239682769077,-26.64823598436748,99.98778015301252
2000,-0.045437651810432134,0.03461578679899902,1.0181245623507353,-14.854283565918637,4.718348350475939,15.774527391959825,99.98597367159391
2020,0.017490803471104818,0.05180641075133974,1.021637646979345,-14.990155248251174,25.531868538918026,-1.8983936543134816,99.9790705614154
2040,0.02541841250125117,-0.000158179310002116,1.0333305846312069,24.20141923305721,-4.268102888233693,3.368247167615901,100.00286207860188
2060,0.018088460968373757,0.003577521979946471,1.0182583684992157,3.8329995379822286,-15.613671809763433,0.9270699834016918,99.99942640607713
2080,0.0031194760666057326,-0.02613230054918287,1.025002904419146,-6.184140763911957,-19.798489503817986,6.090557285344326,100.01195385592334
2100,0.044542187538526026,-0.029792127935033597,0.9603955227243737,8.362940504466001,-5.72334375565155,-11.831770231836352,100.02842687908192
2120,0.09278593211675257,-0.04312457809851712,1.000663339555084,12.947151291514203,-10.956898959790577,12.982880196166194,100.03773824668755
2140,0.008576016587460626,0.0037501700850436416,1.0830090865553887,1.635707099023357,6.25001541979527,19.32966073037226,99.98792012373015
2160,-0.03535563255660478,0.01643958042760055,1.0880400009381868,1.9282504288973434,10.164176305607594,-3.8835649135897725,99.97851718406952
2180,-0.005568193837043291,0.031090662746503985,1.0709001737445492,23.62382157454192,-4.036271662969453,-0.8002290854334412,99.97945125153419
2200,-0.02357759441610296,-0.056702368545786,1.036725242563779,-14.896053000476556,5.353379396270928,1.409277510596216,100.00226351066658
2220,0.04475343801579756,0.02073237640794355,1.0137315667403912,-17.21977784427481,-6.398401498317572,-9.694209930683588,99.98590201704086
2240,-0.06558153506206513,-0.030515103621837566,0.8715789436986526,4.287005640137059,21.027730602553312,5.805404068961907,100.0002519680702
2260,0.020578560958863026,0.03443902662100042,1.0371369620197401,-3.7744316725462417,-11.045552276564655,-12.02621859536184,99.98547610356782
2280,0.08681718247580256,0.07095083230329728,0.9935475254978284,-2.984442090817522,-0.3964220254041594,-7.323928621987758,100.02830313752489
2300,0.006093105633631287,-0.007516849427975369,1.0099658424042637,-1.4353977424660482,-2.819229284457991,-2.3821374941512943,99.97460199944086
2320,-0.025248750444633858,0.0360160150429862,1.0690250796932148,-8.915796099732733,-2.362394123599599,-25.701287538487612,99.99520627115652
2340,0.05574854961236042,0.013991850708516933,0.9826505076162457,19.52137366594905,6.144551288701319,-4.900326454361583,100.00036626626203
2360,-0.12134016352671156,0.02125541911516831,0.9688243325062282,1.6841954496555434,20.184103151133467,-5.150935337219269,100.00948317987002
2380,0.004485079247799502,0.009502249941991515,1.0468765018210424,7.297940334793391,10.43797448237759,2.2934931028362344,99.98593059906337
2400,-0.0448523022329342,-0.05300090317050429,1.0241145361837785,-4.919330920913382,-23.32484718482544,9.977349509987175,99.98919038037174
2420,0.029473210275523472,-0.03510087126906892,1.0300369210760694,-8.42544970836972,-9.343128320806597,-10.081938571884153,100.03845551301613
2440,0.056884595646453553,0.06662492049529822,0.947462422208385,-25.154277711727197,-3.934299134206831,2.677097641325595,100.00457677644593
2460,0.031085844362556837,-0.026355677330783533,0.9272563462313446,-14.468795122956386,-15.948182429572906,-5.27916202296904,99.97640172158101
2480,0.023267889106559154,-0.042798497889392884,0.8942391854499746,3.7251429434392294,24.502663641272086,-18.346310930067858,100.01849923397842
2500,0.08071538021346719,0.020554775436881664,0.9823078382734531,2.752797577549866,20.25029027511159,9.07642995024149,100.00668789599756
2520,-0.04618528432798982,-0.018384346127780324,0.9245388772334572,4.031383447825567,6.1983599601796415,-22.315894949133792,99.97198825576103
2540,-0.009404259158909512,-0.05054154884979504,1.0529398974383306,11.140536356564196,-23.666861278941315,-16.22998200379206,100.00930688123199
2560,0.05347619139367828,0.010738456855733358,1.0117530507107235,29.576023428808806,-1.2254901932584978,22.514726541841956,100.0142009392739
2580,0.029522952466059984,-0.013672184090016685,1.0172133671543595,1.1464250238011946,5.464623386868365,12.34010753507899,100.01109592251692
2600,0.0005425934922102608,0.009519864251550747,1.0273630534852451,-13.872403524906908,1.9897490884346145,-10.175435973311643,100.00094301783922
2620,-0.028073061127056233,-0.03644212110846217,0.970053925247974,-14.763576936612239,2.6346673122137787,-13.484281698176584,100.00952224040259
2640,0.05582538621788319,0.025983832013734505,1.0838315664038947,-6.5063592253857685,13.824618517641202,17.596253823376465,100.01534405033306
2660,0.10030754968076637,-0.0407081114397502,1.020400322523874,-9.223300583817224,-0.4481097625894507,-10.963335064185078,99.99690166655331
2680,-0.07241020740793344,0.058017615498407685,0.9937813935523466,-9.778429970805174,-2.0597372728820806,-5.501992787298009,100.01539744463544
2700,-0.08911103383741957,-0.07973151941442809,0.9442250332139872,-8.15798906535826,4.119517208484581,-7.1216866616570105,99.98440220984024
2720,0.019401748431458962,0.0754280259883547,0.9106804350042516,-10.599923092380124,9.84051470205211,1.7771028934593525,100.01811744807105
2740,0.07664568919653007,-0.018212532480161296,0.9454945048905954,-11.358729706571326,11.796189536921105,-22.045354816213255,100.00669351814051
2760,0.03617631291073014,0.03742945795080467,1.0096196321127637,5.647467005752615,-12.077029277956884,5.071795376818816,100.00155137526869
2780,-0.052011223285887434,0.03004023058779283,1.0459453429445837,-6.604142752391072,-7.407613437556224,-5.062680647861207,99.99291549278675
2800,0.057970208750258524,0.024409299561598,0.9509577815282697,15.119874856090153,5.521839699681628,-10.03591076247452,100.01495872474074
2820,-0.015889306593697843,-0.026487479898979094,1.042251789081645,-5.8178432778712175,30.167879055780354,-3.0691886910160417,99.97945246696523
2840,-0.015752340498963627,0.03403449697823125,0.9423794265232269,-3.4978667149690947,-2.972493686290903,-5.8363789586407195,100.00302494057463
2860,0.0360927994247305,-0.06454176514084899,0.9721967173552514,-6.128657262344312,22.339486383278075,10.372553688622641,100.00719330319379
2880,-0.0038247728318760023,0.015163596640637515,0.9318471696674806,10.512290814689225,21.31762437046618,-6.427001971184877,100.0167394310939
2900,0.05773250263073596,0.015528113100461361,0.9861371383776846,-6.057015414756163,10.959222933189983,1.3396388662937284,100.00490370150692
2920,0.011345556142548292,0.0751959948381831,1.0769188770064964,-16.248463095247402,15.797316207265672,-3.3992012189389884,99.98983676782363
2940,0.009897228706609158,0.017292713491286252,1.0200581125217347,15.006382759317237,-11.807666252516725,6.527855454762108,100.02433580997746
2960,0.07727956304232264,-0.033051420520856564,1.057315890763467,-10.753403609564918,-13.251627961303884,16.60614048821113,99.96865394486495
2980,0.05657769195503324,0.0293823483483813,1.0237480440378945,-7.720528744407542,15.236440349948488,12.620029099108784,99.9817402631181
3000,1.9163941755026053,1.949838000149835,4.289523744193464,332.17664569006973,342.56826156028956,348.1583541264497,100.01894530384644
3020,1.9014561552312554,1.8447806169043994,4.259651351526777,340.41137144741083,342.66602424823327,343.14570175677426,99.46285394402375
3040,2.041666128004264,1.9638421164959772,4.344221672431156,343.9301840737291,345.6358324456051,332.15293664776044,99.45040416400194
3060,1.9936364824212722,1.971268406960698,4.296869123464888,355.54239632303904,337.11394564559106,347.8333005991423,99.4396088868597
3080,1.9289664886472895,2.093395171334403,4.32452666624501,342.77083803859455,332.71939452625725,322.56388820329744,99.44184438212461
3100,0.006124516982721795,0.0017504655644564916,0.9727748568946062,345.02947765444225,330.1814722930271,332.6503085867288,99.4613773244992
3120,0.01019778525719809,0.02766334318017895,0.19035148033606014,322.3904090289467,352.4711954645622,331.29381445049654,99.42536650142756
3140,0.022098243495396238,0.025535816662799152,0.21849263577411315,347.22493166333487,362.1247596711705,338.7340397024326,99.46883437182643
3160,0.039347646465425136,-0.015394190909397604,0.2185497804695534,-3.6673300295054343,9.84587739281638,7.216192744295384,99.43692584323244
3180,-0.07906072664382913,0.020768645492735563,0.13862647530313285,4.44766940286596,18.027839180143605,1.0159220156912008,99.49191549901761
3200,-0.01735235344874909,-0.025139726201886217,0.21125255994321154,-15.594536162189224,5.972798304674189,13.50323615026182,99.4387758517419
3220,0.008124369709556397,0.07703692142239255,0.06735566405229951,-0.38212194409506917,-13.829052962649289,20.834352366061015,99.45030528835693
3240,0.033720988747393564,0.06799890012569518,0.15144065541837531,-2.3034119220938436,-8.64748830515385,6.294963100605209,99.45675910578655
3260,0.04906772453342503,0.004502851846482911,0.2726207780126198,11.969494560397163,-1.6190790439045866,17.67969452528622,99.47863711481101
3280,0.02813621051226667,0.011648472224928456,0.18272970972892472,-18.334136386593293,-0.19943406132663605,-7.38250146915262,99.44667215930676
3300,0.042528567696989567,-0.04588755488427827,0.15271918983022723,2.9638841844370747,-3.987482084663038,5.708411084028436,99.46810972253039
3320,0.015273439416052524,-0.013138691855576028,0.17882175745891624,8.385978374057615,-5.5839521444286415,-8.046722063067133,99.43211308882734
3340,-0.00270607484448324,0.01524659507037653,0.16518948375544518,1.5965574323748772,1.5972891960530202,3.2757595522136693,99.45757042604508
3360,-0.03830597583578103,-0.1052532117406152,0.3069473996193763,6.308986905241562,3.9415220565559483,0.6469100712183602,99.44473484468614
3380,0.0003444043579627306,0.0012816674219094518,0.1510617633803114,-6.743988189533609,-9.855904419151473,-15.690347285013793,99.46012149179636
3400,-0.013509587914725752,0.01707632182953316,0.21453545440993887,0.3526081950238376,20.397655944317204,-11.063775436655416,99.42752373573853
3420,0.055824469387043385,-0.003580793217806348,0.23571200111019072,1.9322292660329023,-9.41356941994005,2.0085501871214504,99.41465128075431
3440,0.08404811276416414,-0.039253960122908174,0.21229666078541776,22.854459541677556,6.531167484566497,12.326398844816234,99.45842551366721
3460,-0.13346573148869756,-0.04705076412942603,0.24615964992673572,-11.471175497719825,7.655979567497361,7.323185643379229,99.49093183776966
3480,-0.02903591999008769,-0.033429003916672306,0.27457670857969374,2.216392555614406,-27.785529731773728,-19.168376209451075,99.46945993402689
3500,0.03412350754886414,0.01568227583078108,0.17059461127423273,4.993536931230443,-0.5570372507273718,-17.225716317028304,99.41449104728204
3520,0.0010006354306702247,0.0032619685358533978,0.23517791879278532,-9.165900818612872,19.966850127214688,26.546243570770102,99.42455858213357
3540,-0.02179495644911875,0.0014070126081175405,0.1693278956425329,8.409938530682162,0.11093907328698052,8.444257826538898,99.44196039112705
3560,0.01008802892163689,0.07895411343564586,0.13999953278195726,6.385200510903442,-13.429567732150701,12.551533050557483,99.46740980535748
3580,0.01728223723036716,0.049064376587955594,0.22870976288011097,-4.787498171345884,13.274798021276032,-6.766207718647877,99.46032855639834
3600,-0.030530321510915084,-0.06414073635619955,0.1966504820932556,-14.769034193636722,18.040128123195057,-19.605967822984912,99.53470874814606
3620,0.030973815023247753,-0.08564294076271237,0.1566153716054816,-13.265937238188526,0.3724027672573983,3.31055329557179,99.464677409074
3640,-0.035510502569605064,0.003248810762956861,0.18933468785721738,-14.828196007657464,15.769089553886799,-16.552552465793728,99.4656525082715
3660,-0.03495131611220064,0.012669080770227876,0.2736029614450347,-17.248565919971753,7.674890689323123,-15.37320652687552,99.45806975158342
3680,-0.04575523975715019,-0.03699244552857508,0.27000307428518133,-12.029389279120739,-14.615032566109623,-10.31288643441033,99.43175381247819
3700,0.04724671125994634,0.033991028101633625,0.27355395346920075,2.5546261660349616,-2.5357343628546167,-6.01668453614863,99.43160813098892
3720,-0.06623221494240181,-0.01884572762590691,0.1666550686721204,14.557439226833866,-1.4612490530171873,-6.980614964551827,99.43088907770625
3740,0.004527291803285769,-0.01829314557360468,0.2101902234023802,4.4315509921876455,-33.161389840167665,-15.891928568045827,99.43041613220355
3760,-0.001710711225553565,-0.007425813749925897,0.1170479021985549,8.166362969899241,3.6180399268298635,2.7248656404471285,99.44001954078463
3780,-0.00992473133383047,-0.12444669986450535,0.1297836238226101,-19.80008607165845,-6.290076365569503,13.364447598248702,99.43321846647552
3800,-0.004682268434961887,0.034570805291573796,0.23181271402420037,-4.9343117642596805,1.3942600357299746,7.739149452267036,99.46680434934132
3820,0.04565077291383299,0.014438541748144313,0.17464158738061866,19.722975125251253,-8.581217966858707,8.062103330862685,99.45327534727353
3840,-0.047084035485861826,0.06270788337249374,0.24460628815277188,-9.225652625627715,19.132644308687272,13.76862916413231,99.43572358273188
3860,-0.009473593317136196,-0.008990970698223579,0.2582016799216065,24.733549565625946,9.257051398059932,-24.978758538275457,99.44231423162313
3880,0.058673030602447565,0.04673486305003637,0.18159973290637763,-5.030272036445054,-5.839724782730668,-5.787198172037007,99.46107702826978
3900,-0.02160350556341084,0.015705174864749583,0.21117849103175404,4.946147867394178,8.23342822386349,-16.30641902989212,99.49434742562434
3920,-0.0335104691745155,0.021233708439007192,0.24303914852736022,14.615346643810417,-3.506628371828672,0.5595295988694853,99.45908562460332
3940,-0.0011040414294795414,0.018906284525619238,0.23211804943800352,-2.6598469544941663,20.75869695824372,6.542393351660523,99.46105848862463
3960,0.0684083953617862,-0.012221004182237162,0.20879781658355098,3.6131802010571006,-13.641815026798625,-5.067236674478992,99.47150603023422
3980,0.10070245115567765,-0.005022295842749104,0.10489943608734452,-0.04151039010604398,-6.649507558050608,-16.704920953266097,99.43773188270741
4000,0.0927815513239351,0.02331492118531128,0.14633959864203813,-4.232944918207236,-19.36265839922752,6.029640088279527,99.47001101364432
4019,-0.008789572913206714,0.015370125616665545,0.12139621589235426,20.37489161913165,-4.82506281245537,-3.5168553576357713,99.48268028683249
4040,-0.054694198038433776,0.010386109613430682,0.2882378943256532,0.15280784521724863,3.3907716282872205,1.6871313381585074,99.45950733094023
4059,0.004914085535531604,-0.019655581475998777,0.29339103858492016,7.057948790391372,19.635035354963364,-7.521453803955861,99.41520042230498
4080,-0.05042570513628748,-0.058575902153774145,0.18618289994958942,7.6289641349504755,13.651546386355175,17.64149002175762,99.4722736857046
4100,-0.03832835367446162,0.0002768246434664796,0.15744128606182003,-7.331339829011487,-5.587860521594338,17.06865377144976,99.4503956073861
4120,-0.07114105178552596,0.022361567009089305,0.10320247887523193,-17.114537715898788,1.734000995704883,-3.6518558391466875,99.44369863526393
4140,-0.07297434025798052,-0.021550508087512788,0.18416813169410076,18.075387015235933,-10.15102329838382,8.796864093327441,99.45895133526678
4160,0.045333008841383,-0.004102783726453416,0.31048300373995286,5.155782176677555,2.257733370758957,15.116879325770473,99.45319626389096
4180,-0.0047956394727730585,0.0046116326734711825,0.16488140596463902,8.775292243842614,2.29810572438844,22.01181907064141,99.470599768336
4200,0.09499544188041531,-0.018606516613280083,0.11523578484586623,15.219214990844417,-5.926627423635913,5.376545171186392,99.43125271805344
4220,-0.043190392565634624,0.04920812447245146,0.10489377624257185,-15.140766682581045,-4.7386035730806855,-0.05421379594395565,99.42852509178398
4240,0.04154832720546921,0.048039409112808934,0.1944598125343163,2.734903363252258,-0.8354724428044606,-7.1432883544747785,99.43042654184241
4260,-0.03594038443508158,-0.02434374268056558,0.10353164230251546,4.903084409528444,2.2354276624079574,-16.376407510792877,99.45148416222696
4280,-0.046880959004048456,-0.030812453042200833,0.10844403656265732,0.8876014319465138,1.8063065618706664,6.21895316965931,99.44694810991334
4300,0.010751949418711547,0.0162501250964014,0.30126303115762415,-3.886983302273133,-5.215199724224287,14.962436549564746,99.46566471528253
4320,0.021526729162740378,0.032301756063841836,0.2858924914955086,11.100505230450985,0.5089944414527846,13.342859446602466,99.45786236187901
4340,-0.09059869819094256,0.09357491982693807,0.2466781479386595,-15.434470082842623,11.685475281277172,7.269385925432342,99.45150572662519
4360,0.06961828420917525,-0.01523633212679036,0.10189502874107838,6.290135359664225,3.9747503150188868,15.290945221248267,99.45211638661128
4380,-0.047896939389941745,-0.011322321867322214,0.22280738173687195,-9.537185232288751,6.671903479289576,1.9438930155679288,99.46193610119903
4400,0.026010417319293974,-0.03702013005071711,0.188837884028718,-11.570913896626877,-6.380756490978034,18.60579025300879,99.45752805216095
4420,-0.027999595849719207,-0.08983412892082049,0.22146308429995343,-7.172332339752693,9.423416815373121,-9.350172569184512,99.4503939946061
4440,0.039046370597714326,-0.05440172873211363,0.19069012428950266,-2.800195039694628,-1.3089789051508938,-11.228158746165438,99.42130704109367
4460,-0.007193527204299749,-0.1390724223350378,0.20273434462944812,-27.63923970091507,14.508633847037462,-11.151424626688083,99.43374389799509
4480,-0.03789288045099087,-0.05566967874464993,0.24417268429785297,3.3888731928424973,-4.218450606065553,-13.553693492959043,99.45384847310984
4500,-0.06212958462264481,-0.018401764761034136,0.3071396851121996,4.644544603626142,-12.535537051596798,-6.707008296900109,99.4169148703409
4520,0.04967666078326003,0.032319260667374804,0.17662771309147857,-6.963588487619811,-2.4646173819279023,-10.169809185515401,99.42262341298049
4540,-0.12568264418015773,-0.04925680393673701,0.2782455707731744,13.634091410087596,-8.078569229775676,4.899055702388031,99.46054122933103
4560,0.03382571110725982,-0.003782860325438782,0.1550264519889944,-19.405163463767515,8.012699549086769,-6.845808214510187,99.44293366542351
4580,-0.016114497836756947,-0.03592029054167935,0.2949658764009958,-28.446466363862733,4.608132660091935,-10.637055774789141,99.45459449753577
4600,0.024902961137758556,-0.08020038838870414,0.11495597659027235,-7.3426992055617415,1.7578257021780734,6.664724286595138,99.45405749522257
4620,0.1152107443449326,-5.8282862628896796e-05,0.1940615966066995,-16.04543059900274,2.7913549816440244,-5.716226279595674,99.48504729500584
4640,-0.02130133386167582,-0.04302925286067341,0.1455283019876938,-7.75185571764084,9.848314832493243,-11.127956539485712,99.44353125748121
4660,0.03652276995206686,0.027030591303065163,0.18493387251361043,-8.42967548063104,12.425176986136822,-6.419544196414735,99.46746161874887
4680,-0.013689401221174513,-0.01684302897277849,0.26608610747350375,-8.843130952538393,-10.85627073890801,2.984453870472222,99.43780322423424
4700,0.013473665012307186,0.06429817786063509,0.1336155980229224,-23.678709140590385,-3.360021363927375,-7.295786754354563,99.47840118036328
4720,-0.06487315285698449,0.062470918571661684,0.2712754171497489,-14.939850672304807,-11.820061538999378,-2.4495645331956917,99.46095436065914
4740,0.07693169981569009,-0.036404198892648926,0.26286310359471443,0.3160719898795484,-0.12354343237084875,2.602949312467252,99.4524254958158
4760,0.01571697981037406,0.010176163767155397,0.17224983897274884,3.3302247262994884,-1.5408405340286577,-18.535870500253036,99.4300140819408
4780,0.06272040804932993,-0.10162409259349406,0.2712403751501385,-5.705248431695013,10.62292223253814,-11.864112788449509,99.44690594025995
4800,-0.027500790237623758,0.007544008122644767,0.21332612875085008,-14.175294298796114,-1.6752654691182705,-2.3319622956058046,99.45110836829889
4820,-0.009375946553920598,-0.02551851643451358,0.22679515065290745,-10.193686947590479,-13.90107704934827,1.480307102321368,99.42168922564781
4840,0.014301515857132569,0.006847650571778892,0.2372592986128331,-12.181604021069681,-1.2988209457875959,3.89791660862276,99.47072006661092
4860,-0.03081998593460769,-0.019425457642348,0.10330420059799823,-11.508415104321609,9.07213959586118,-6.414187741986442,99.41464690197337
4880,0.059729999789702795,-0.03686724315305705,0.17588963066147623,-16.911844172617098,-9.963208797268884,-18.64078330297565,99.47017468989507
4900,0.019476714963780898,-0.010576381740953891,0.0935087713524066,7.252026326173969,-11.774465511620225,-2.704010860782711,99.43754638453984
4920,0.02786583776600511,0.02146442663466437,0.15868178773049396,1.0271535555480553,-4.978876756664701,1.42712866744925,99.48791935304749
4940,-0.037982837520139805,0.045701614255469536,0.21892363223206743,10.519126098816354,1.6484128033608498,-4.621390535108153,99.46702208689345
4960,-0.08194246681852493,-0.004452885700304017,0.217606561745384,-9.811714613020682,-9.135134358544228,-2.322491000326005,99.46258840181895
4980,-0.011577416109949966,0.012451864452034344,0.18782907089058204,0.24233738361380452,22.984897365232612,11.87294798715768,99.47428266400931
5000,0.07534986850715239,-0.005777701299745673,0.16887637391157376,-12.699640323578498,0.15285803396907285,1.1290300577424437,99.4816210259411
5020,0.005315030467364362,-0.003387494059488585,0.16531616066641514,-5.926926008024242,-2.743504128969778,-20.93464650358772,99.45571734691356
5040,0.0725811811904248,-0.0579549704576916,0.24861734245550737,-9.635030286980777,-0.9017091864250504,7.81480899997828,99.42935764453667
5060,-0.07644604887283772,0.014734378056680925,0.1416066765251774,9.743076284090389,12.606812572472508,7.196509564031567,99.47682701591549
5080,-0.03513797027350333,0.048036897352912694,0.2095469871706635,4.78161276800191,12.708645749300487,17.84662298016134,99.44446280451808
5100,-0.008414195658560523,-0.03614682453270487,0.18531013098583146,-13.64958119935539,-6.971677077419333,17.99381171335701,99.4361918907518
5120,-0.07433639569351747,-0.014366775570014768,0.1449748315626811,15.620652923490981,21.26790876032258,16.6609524156113,99.43432421877715
5140,-0.10783721651867018,0.09118755733826817,0.12181797485865516,-21.428207162946464,-2.7203192185766447,-8.451565378391043,99.4498841374937
5160,0.014655893829168033,-0.004188439777901413,0.18564174102552491,-4.379727249770385,9.374502343455957,7.2774595568466935,99.47709328873766
5180,0.025599944947436795,0.02169372963063619,0.10478416041055776,26.5802869353622,-3.843050731934654,10.110934565885872,99.43008861134348
5200,-0.03262329293989095,-0.0026666788667157773,0.25918010040777323,16.744467816921837,-3.6076221379081908,-0.9464377153153755,99.4477890796312
5220,0.005464182330770576,0.022354239730621197,0.2362035124870437,2.263904828747462,-7.578234264753236,5.570750678151764,99.43349031000642
5240,0.006992221526014865,-0.03334805736839382,0.24111166512182372,-7.490043828336722,-16.43624928891972,-9.059766503485957,99.43752598566509
5260,-0.009503674905512523,-0.04701327297639188,0.2386329406370618,4.157267434885869,2.735968680518206,9.432486665686127,99.47289524461048
5280,-0.010713156932080553,0.008913457341542105,0.2855022035423674,-11.871107833703928,13.086134619657713,-3.0521951066625634,99.45528327886545
5300,-0.001276422117184809,-0.06383247946089012,0.21155858559017246,-3.335347183302991,10.83818619463962,19.635050573061843,99.43510484953585
5320,-0.013077739354237032,0.12372761444804924,0.2084964725126561,29.269839212401408,12.4667232262197,-11.108326287744246,99.47290979104893
5340,0.01267162671755626,0.08414408262303753,0.23610664956372795,4.01669150204606,-9.849504559705755,-8.827004141863018,99.45051288260842
5360,0.041775727751997865,0.002517395252390351,0.3109200130785501,9.055911960651128,22.859418891937537,-6.049330950432104,99.47498642570878
5380,0.015227372912809546,-0.0389475485600278,0.2156763683949962,-8.986677529767642,-2.8030713595485346,6.047586749614526,99.40744119218873
5400,-0.06341723542117372,0.053920218126530174,0.23529643801029382,12.543977155346067,-14.24678278339292,-21.495034278228886,99.43724956293823
5420,-0.04520447810473673,0.00118564681830656,0.20408542443594727,-6.626794581487712,-3.620539578305108,6.377691963267441,99.45768532559038
5440,0.0010723209781932084,-0.017581227826717657,0.19724791455529506,-9.739356984183296,-8.528046343004178,-4.340127790153826,99.4204573101723
5460,0.0687566096161412,0.0010739992229603207,0.22457774947857892,-25.560744922407515,-6.9301928940544535,-6.882606118670683,99.48683695447401
5480,0.1163490423046356,-0.0492149085176883,0.21375089769107927,1.0572129749914052,-7.039833250676077,13.416169484722786,99.46223627608583
5500,-0.02560074765475394,-0.013215624681419812,0.21896600988624265,-0.71684567044394,12.715532946892907,-10.340667197697574,99.46916229865263
5520,0.11859789156065381,0.011838081123729274,0.16834629575044263,1.7486797845535844,-15.232685954505794,5.808353873964085,99.45642477630601
5540,0.10909584352469626,0.055484359537170895,0.10991449480442003,7.9246378049461255,6.530136702622654,1.9789223745378939,99.44055309606512
5560,0.06288770640505224,-0.010788735613007928,0.15280760479049604,8.451988368560102,17.17495474656437,20.704282301659127,99.46006068897721
5580,0.03987834648172891,0.08517382174817807,0.2202447729587061,19.449118370332933,3.660279392050533,6.597469987571349,99.41101263407674
5600,-0.01114921063257576,-0.0017851485842367545,0.2293908220405868,17.28370120736262,8.417710559008647,8.046615163795485,99.47755952627742
5620,-0.010785526146099707,-0.07231232503697209,0.22140158276439956,16.112051108831192,11.777472074263606,-1.601902242808888,99.43711664122476
5640,-0.008050830871403934,-0.10671949768221448,0.19697816244942198,-19.72140530524241,10.688020141521083,8.696528567641696,99.46736919602567
5660,0.04197932419859188,-0.006359962192221374,0.17961316660266508,8.22331975663857,-9.261873493202337,6.533430089764652,99.44229099240043
5680,0.06959926951859827,-0.013728224445627525,0.19427123683317166,-0.4525220247253472,-8.91350934571377,13.352070333065715,99.4496772686357
5700,0.04996403742073229,0.06754876515181095,0.2365268365122496,7.830439079051535,-1.9753278181749585,11.980795832492785,99.42682498709233
5720,0.0460762057210613,-0.0023570344258575003,0.2536094892132156,7.079546833734395,1.8417950030721222,8.561065759522114,99.44938156931441
5740,-0.02112747468347796,0.10122344138544136,0.19411347355175124,-2.5423839960962518,-18.24243294688556,17.7982800711619,99.45495757547891
5760,-0.13809127346721325,0.010886257277793202,0.24303364567531716,13.367503690677818,4.472534823896652,2.737629255148896,99.4539915879475
5780,0.03204863771627883,-0.03341911378086477,0.11528573148024868,-3.487414429607013,-14.903170257325247,-1.94303784167019,99.44147728716328
5800,-0.022733941389579775,0.008120958320819811,0.26790447394204653,12.727351234460013,33.4912800787455,7.753117030912195,99.42461746244295
5820,-0.09375300005288463,0.04659298689210087,0.21023326596082437,-5.124005067677358,-5.36811519463109,3.291327799852251,99.45600614966898
5840,0.05774830474147024,-0.02425628096838587,0.15432011675505558,-0.2781154329871396,0.7668543860190085,11.62874263934733,99.47074925301686
5860,-0.006786238761768188,0.006528561349418248,0.24621147267874638,4.104140973766713,-32.443600456491595,10.241661821047046,99.43758690885456
5880,-0.07588057575600593,-0.08012324174869628,0.14458492023674369,2.9193416550435467,7.044988900676049,13.225239042177147,99.43746311510255
5900,-0.04180980911706672,0.022282219766563777,0.17195321012376147,-5.133261263979258,-21.745079950057487,19.877493694372628,99.47179339136616
5920,-0.026123943399873548,0.13963823863659278,0.18806948041361762,21.426526693520685,-17.353284134947085,-0.9322429383792171,99.41632126842798
5940,0.026639176537741383,-7.758137629908956e-05,0.14175972734625802,17.03365133346767,11.413847128306832,4.420576080405494,99.4301883482114
5960,0.05298241289314694,0.034014024510901054,0.19755012907668457,2.2110325534005146,6.194894880904456,-6.012067021767802,99.42339231800095
5980,-0.00745645338071689,0.014473642458799158,0.2302698657876427,-12.963661579261709,-7.0552148578110705,7.373865002506694,99.44337259824306
6000,-0.03726645271888314,0.06622403305124909,0.2225916036658589,15.356645418594503,-2.1967582603845197,8.963717667463598,99.47692113870694
6020,0.07274428140845075,-0.06640084671585138,0.20137352879382053,-18.42642537642636,-7.825372940501486,5.052669516355113,99.43687542572144
6040,0.004879482048419603,0.05484340291717537,0.19990869188983523,-5.0656653809885235,16.414837792328434,2.617241303185383,99.49813380729194
6060,-0.04076234063712301,0.05343894396861892,0.2605266007374016,5.974533010655295,2.380320350004649,-16.74463589354604,99.43657285891123
6080,-0.03661003286745582,0.02424008346459719,0.15073314485995087,16.701577120744563,17.839798795581608,-4.765416088631607,99.45689269056567
6100,0.11828125216650874,0.0898430757794041,0.09616366021449776,-3.6734530266743493,-3.2997019148578786,-24.376404217117432,99.45670832261601
6120,0.029088349313019707,0.018617337343163103,0.19475791898325076,0.7378710240903898,4.922772334942541,9.093004690561857,99.4428132425175
6140,-0.04065719287264848,0.08714679764540895,0.23860162758299927,13.071932693604646,4.474215873909159,-14.861238338304576,99.45913360924564
6160,-0.029426911308936782,-0.07766034899935394,0.27050494767826405,2.315379188746035,2.519126316980614,9.356977939731054,99.43814890356244
6180,0.0996532831373213,0.06428201773487179,0.2083429142713995,3.898265024199025,-4.27276229286392,-1.7138942366213334,99.48019679741856
6200,-0.11992730690783343,-0.01656856230392672,0.2252283324794069,-0.01784933612458668,-6.807067443699767,-23.182362547736034,99.45829132359279
6220,0.023372221007815025,0.0048651410746238825,0.22158380612394918,4.323484295140725,16.005124891892898,-3.3792764601593888,99.4422852986348
6240,0.00939669836403531,0.032993012271867114,0.2883091467906925,-7.2831196645960095,10.185621819330184,8.549252048574708,99.48277650606605
6260,0.04700157421072295,0.07527637749998442,0.15743263279866465,23.751319258676283,-3.626208339180032,-2.157537049512817,99.48503599758989
6280,-0.00432484626510443,-0.019154045140068812,0.18147943739443712,-12.598135332688491,-21.517829742535326,9.6346812332192,99.4256652899172
6300,-0.01720644860203826,0.04114869516479512,0.21042735580102495,5.215768392372716,-12.885399672844837,4.579282665460181,99.45243319362591
6320,-0.006538094435028841,0.04897401900283069,0.18913143356015974,21.71784792475755,9.33500247883175,-3.8325183580853945,99.45282708039883
6340,-0.06551334332141721,-0.04398247306749699,0.15386955019882834,1.8846190871289115,1.7598046761807726,18.376173619433,99.42558448180057
6360,0.06130882230349233,-0.002365936677544479,0.2814457395383245,-8.509686016631523,2.7627982279534935,24.219125208582426,99.47542227123506
6380,0.012348916294849159,-0.04119564016832983,0.348899754598034,-12.645180724014661,-4.634916014127154,-0.4907625269243263,99.47348722730572
6400,0.003224462178203662,-0.04829052951776702,0.1251942991791085,7.452376701908097,12.900966148148298,3.9957291566008886,99.46146522429152
6420,-0.011270938858416792,0.020472422542487462,0.19836977726947225,-6.201758483189417,-0.4248219104018498,8.134023700242711,99.49456418930289
6440,-0.014985140032409864,-0.009808891495547378,0.2268215037679864,11.498618253285901,7.170481247795147,12.788333223915009,99.4154457714857
6460,-0.041643503598725595,0.12766396074355632,0.2527756828244523,2.0191488868416188,13.298948489489767,-18.507665276511965,99.46605553031819
6480,-0.05880010439840149,-0.01669967093645745,0.2546855188135696,-6.581387953434723,-19.716247560146602,-6.256159141794322,99.42087580547323
6500,-0.007960718101449327,0.012430713922975298,0.19523795815730582,-19.31268933234987,14.066289819818305,-6.732494562948304,99.46636064825694
6520,-0.08153883551464021,0.0030626241856574177,0.2007199868330189,9.561054342646457,-1.2339072377370373,-0.7908623229054084,99.47651931046029
6540,-0.11302418166183617,-0.0009317652384424355,0.24264719514182795,-10.251475761369809,7.376871692853813,-6.316294133879547,99.44894139272715
6560,0.05914034738436213,-0.058603742914289506,0.3175270685893994,4.234996105699743,7.897843791708329,-1.723495198826388,99.4259861537836
6580,0.07366888554172614,0.04869667419002528,0.2605883108723577,-1.5877609964790484,14.233410303038653,0.2003111186797144,99.47290237463477
6600,0.029838403490980894,-0.01131246601547164,0.22600265355488278,-9.12156326085049,2.2087953014465986,-6.686620880902177,99.46595724272056
6620,-0.07259165457611265,0.03768157564740134,0.21531695194594472,6.151178287940231,-13.988527196208057,5.27042052865081,99.4530565139939
6640,-0.023367881775285183,0.05999085677017399,0.199659110810449,-0.38079307119089845,-8.760252879666663,-1.2747368548521412,99.45011394958276
6660,0.04972753061998325,-0.008225108732809029,0.2739564256223186,-25.512285541066632,-9.312790869625905,-21.80609700986283,99.44051693533135
6680,0.049129103544508466,-0.04830495821696393,0.24837245968028093,-2.1588872292240717,-3.825378408464893,11.674479300331834,99.43423082260772
6700,0.05965442132523672,0.060019233336713135,0.1114038937917024,14.633884358031569,-13.9638021956665,9.685276656463852,99.4383520285867
6720,0.04330881133658729,-0.06184947104918928,0.11611811836941524,3.7936230227800394,23.57063944387363,13.216478851437456,99.44970574519651
6740,0.04766334044036638,0.03105795996444087,0.1535533873384497,2.9266241682928387,11.513032802379932,11.954301068959412,99.46790011350194
6760,-0.003502458611034468,0.06164085412972317,0.307668797198181,-24.081747492744228,2.971228145023287,7.1265134094355425,99.43370239037034
6780,0.05483758099424957,0.07867739067177137,0.19393992427563003,16.187228377011376,-5.446378087936977,7.0327070248533206,99.42693948848351
6800,0.029924022396051925,-0.07058851293351018,0.253322632412463,-2.772817090492957,-2.966567758163808,-2.808555420601507,99.44602473340866
6820,0.10931963377918796,0.06697311004542388,0.2614840902093463,13.907924597466634,-27.41595348627417,-0.8680851488928293,99.4506011266557
6840,0.024658576930137375,-0.027002740276963283,0.17518846397536364,6.349560924907117,6.9304593125541665,31.65812612065578,99.46532972675828
6860,0.1029825915949174,0.02125353311447642,0.23480302222846053,9.652519060430087,-3.726166697312805,7.668004381248991,99.41108453090538
6880,-0.03595112365669578,-0.03736752038298106,0.32669593209459546,-20.173545846277747,9.629226142465283,8.774188836599919,99.47018774786616
6900,0.03484699576085018,0.027149532088004497,0.20336345612786533,9.802009433825534,-13.032960211985298,-33.08610151746035,99.44779985619094
6920,-0.029099014171357913,0.055316224986527954,0.14666681357298844,-0.7809529159741198,-10.67926161770154,-13.16572386175796,99.47784039761916
6940,0.041941243141396814,0.008753462541032079,0.36221289027008746,-12.18851277977508,16.839964573415298,-5.687162472287397,99.4472602836737
6960,-0.07098176097437874,0.0032983256174125113,0.25684024310977843,-16.782534734768713,8.385726056367496,-18.481958045514475,99.45522336157354
6980,0.016800767336061492,0.08327232468645479,0.1903849297256004,8.508135477911193,-12.136583443706552,-18.48064083473266,99.42461539808768
7000,-0.11871420855899253,0.05740773332647867,0.22460018102160118,-4.977067902232564,5.674330375914808,0.5664612301019333,99.45744481826087
7020,0.0017219613176606046,0.03320777850984535,0.09302532499714034,-3.145008747823911,25.12984671796454,-23.21953638062589,99.42299273658476
7040,-0.00668623779535683,0.004748629816562416,0.32944254936847484,-10.5867661082697,-8.333877722687376,14.317406738547355,99.43810527153846
7060,0.041428977608481424,0.02736883482283331,0.25711855415988577,1.2109116735994938,-17.547290381936445,-13.61164726026444,99.46202622985429
7080,0.023129015885517756,-0.060529361747829385,0.22044651200738624,3.4681637539706722,6.420095602991237,-3.8228736523501956,99.46644527893868
7100,-0.07856275292366627,-0.02015694004432922,0.16036334714797312,-18.960131360103123,7.58130378696498,-5.3701557410239165,99.46923115669208
7120,-0.007643824201969001,-0.04414052537625102,0.23080204207003235,34.34056682893131,-0.5356762902670055,10.302933761891744,99.46267167945427
7140,0.06349578138011297,0.03670148251533957,0.29144331188196687,-22.71650077852114,3.530604622802408,-4.516876697344433,99.44700931858569
7160,0.028395018285195736,0.034181182190823105,0.20967926922506458,-4.575744413468742,8.709409769684747,-18.894767531895283,99.42334272985704
7180,-0.06964879978901327,-0.040855141422022664,0.19394475386573137,-23.50834170239144,-6.915281686473232,-1.2683883096102377,99.44432245473774
7200,-0.04922762286507333,-0.05584370640064495,0.25807853783060514,0.13607263375536222,11.647496912597802,-9.532334059214048,99.45373169125286
7220,0.01891042329765513,0.0796257147899284,0.2678502025773579,5.859797829901009,-3.540711767513292,17.650004686806678,99.45599862756616
7240,0.15194894771695566,-0.0859299878701339,0.1813696547770914,2.7974362009539226,12.697992195903183,4.940768832375198,99.43596436866882
7260,0.070857148803762,-0.015693380463091,0.1972883676190218,-3.2147437338929636,-19.75890431590747,-15.583902749181716,99.4430764140481
7280,0.04028117904698883,0.06513267715774856,0.2118406751349237,-9.711564349645375,27.854563576747474,6.944366784904337,99.44209957941952
7300,-0.015530843011179539,-0.0646401249999873,0.1287556454796474,5.951881262432815,-6.572550034856196,-7.360370224778679,99.4158868780892
7320,0.005427035343704265,0.006260649197126896,0.12528617805077924,9.052227134265861,19.053412037948352,-3.5702757100073366,99.463216852091
7340,0.0024238252710013404,0.08897898034863932,0.24392773190217598,6.46581195822451,21.04422318364088,2.5077068864730814,99.47137728086017
7360,-0.009683888554784508,-0.024234737861514227,0.18482642784199718,2.694806140910277,10.234072172501431,-2.667320045128661,99.45372861082033
7380,-0.04278981625361987,-0.01709201651821616,0.24634318206401543,1.753210237458279,2.374075497813468,3.901229981536292,99.44066591963346
7400,0.03469936359770736,-0.011233292465113568,0.17732392651738083,3.5284429541669518,-0.5329379282235314,-2.800608318158526,99.44254990371407
7420,0.0010870417282831987,-0.0017885619096556329,0.1490040281001326,-1.182638577509445,17.847764885275193,16.493164307973082,99.45367408958167
7440,-0.04474398555464401,-0.04673659064915107,0.1718389403492282,6.975005892546498,19.245910705509132,-14.083479489844333,99.438531484414
7460,0.019958273971894272,0.009566129234465419,0.27301861329993954,0.34629960124374704,-17.961330923010742,10.763456279493226,99.42487959899192
7480,-0.1015127871970883,0.039630141677924495,0.29062689351688453,-7.777329996698173,-13.008224371844584,15.450175746424444,99.44797740337968
7500,-0.03805491339806302,0.030783691651069863,0.20571171300113283,24.25808295658147,2.3767612521816783,-5.536960714478929,99.46638500312028
7520,0.014075808464288481,-0.056463976215961255,0.1693044049773036,6.343259666838456,-17.124341019679136,5.82043386546,99.4330796460936
7540,-0.061779483447121114,-0.031073552536975482,0.15211705301152534,-22.946262268284578,1.7873306581177768,11.108905757874965,99.46477304315302
7560,0.02760834778292955,0.12847363373709556,0.20127912896199848,-10.27572902450393,-9.153854295314337,30.53014839606237,99.44976602781149
7580,-0.055011103642870075,-0.0029915800679848285,0.205186921751262,14.095944012660016,-3.084922161882762,-0.063755347857104,99.45484193836273
7600,0.004271578576597611,0.0779133221560867,0.1693119544753427,-5.53634466871426,-20.695683456639607,-2.687510151622671,99.43572653879451
7620,-0.012394826877124974,0.05036107571557441,0.16311199725773282,1.5319563470597126,-0.3513928521600205,4.440153823545786,99.42208390881089
7640,0.016715204771875627,-0.05564903718269685,0.21999999841910411,17.567111684248605,-20.263035282741242,-7.3637387153154386,99.43505116659844
7660,-0.044235103977600346,-0.028288268785709954,0.1425490320729576,8.061300651271193,-16.48852190475647,3.7610941137928906,99.47221666911312
7680,0.0033228459353506347,-0.08602686917502178,0.2672252116606162,0.6642117175054971,4.21311389447204,-5.38006201615989,99.4676208782301
7700,-0.11593692995612202,0.012557692456415104,0.20464083324561846,-4.933798687939904,-0.9676675457341389,-17.4745665600848,99.46191123991666
7720,-0.002600275095417913,-0.06611128549612826,0.2740601015468733,-3.8446923432832953,5.311806384381088,-1.6221242698728233,99.44791846997818
7740,0.02054912562327045,0.0342085118652578,0.1299610367298192,-8.087874174214793,2.483860498295595,8.797834234925816,99.43071647222416
7760,0.037027328066630893,-0.046680705434067465,0.2733850283673366,-0.18108611351709042,7.281865653571541,16.310551432535718,99.42847474842809
7780,0.02776664422477762,0.032194708152497316,0.11840365214328279,0.7898612885483297,-5.1347603623414955,-5.1981178247391355,99.45760007937373
7800,0.003282343913691295,-0.010777463849292452,0.21111740679703558,11.947099115681752,6.890548507120208,5.282257159108462,99.45989492543347
7820,-0.05323833831732986,0.05776545854124097,0.2547932008076449,19.586932131023453,-17.00881521165427,4.947873131035784,99.4405693051133
7840,0.046195150046258654,0.0480742028842839,0.1914188665953586,17.478696364686982,1.2007789291436375,1.2192437973575379,99.42581365333643
7860,0.011455700388403036,-0.0535192229135678,0.18459968549983508,2.0638002400514868,-12.100975473519025,7.509405850485887,99.46969040829745
7880,0.010951145786239859,-0.02651171205957516,0.23249937921290972,12.509761746922562,0.1406914862437532,0.3216818649422444,99.46168370307485
7900,0.007331656682169802,-0.08860231946259127,0.13097422835954126,3.7941160398424785,-0.5894446235464739,-6.55208672538493,99.44449226009644
7920,0.02840593120569625,0.04765701856449245,0.22521019833233738,-3.299252501218243,5.023278391177739,-12.559878728797674,99.47860583055378
7940,0.08471998436533335,-0.06172635639903654,0.17730200631442214,-9.032965812525205,9.929751325339097,1.6473748313373275,99.44527571319172
7960,0.10378072330733526,-0.04095712731784752,0.18014283618322235,-18.060696419460484,11.677090473295056,-5.192498432701686,99.46774218546213
7980,0.022917349966962278,-0.011414637530720155,0.3040893640085392,5.916348533371554,-1.6214409498207272,13.3237707944185,99.4314699605107
