timestamp_ms,acc_x,acc_y,acc_z,gyro_x,gyro_y,gyro_z,baro_m
0,0.002417422033994697,0.08850744592597154,1.0065911863698642,-20.38440207062908,6.455964067823172,-2.707367869092404,99.94692833687492
20,-0.02986905071283082,0.07842101117410966,1.041833462213115,-13.082507318908286,6.646951702574334,-18.013853412125773,99.95347147335082
40,-0.014268054445091487,0.0013298295430270977,0.9551165851514987,5.345511925905057,16.137806342090755,-13.483719186455733,100.02580589983926
60,0.04262448664257953,-0.08679230260338279,0.9712808194163147,2.5459217712940525,-3.0190235288416156,-19.184086184287928,99.99681150205473
80,-0.016580735818558633,-0.030967380687310805,0.9969550140823731,2.253136920581205,-20.395908657034322,2.453788343559891,99.9897886368341
100,-0.006960831263275355,-0.051834025445293266,0.9676219007359056,20.049178529339226,9.221007702691878,10.973019244230516,100.04181519379273
120,-0.025889172971103443,0.0358756495254903,0.9504633412984158,20.31251557657527,-4.4788525400185435,20.453815002963943,100.00918534148524
140,0.054110473455986956,-0.13768854159307983,0.945105304091428,5.219607590155009,-29.08997879749642,-3.973348436191783,100.01005248603788
160,-0.06077494718536507,0.029402046706739116,0.9837643343093246,-12.073262100038814,-6.740329507557526,1.7510575965604174,99.98630344264438
180,0.002152918557950785,0.03233968356794086,1.0635414971056154,-8.742861969311377,-10.362731552376909,1.4247031132511263,100.00658965841134
200,-0.0011208465377797485,-0.006230051249120281,0.9482491381389625,5.718274027016644,-23.14736015826643,5.204768407195994,99.97024392325969
220,0.05007500591987976,-0.10069396129785935,0.9870915574388957,10.686926693885766,-9.570630870944548,10.19771069594673,100.02192952953669
240,0.12555659708576056,-0.021018531578013405,1.049870465315506,20.39354224867802,-0.29799227716064475,0.04249180244973278,99.986966038525
260,0.011205244927685156,0.047365070175556086,1.0065536463745264,-8.074581606507701,-6.602924750707414,5.54400421026615,99.98425152962301
280,0.04191795686538855,0.04194576040644225,0.9453502664945062,-14.807847048568133,4.182598965125248,9.607284875939582,100.01017103824907
300,0.013791062205440536,0.03882373071444583,0.9491785971297186,11.27164482446871,-11.834484148780799,-17.388012797219012,99.99003685658894
320,0.12394281661970803,0.04119412114013563,1.0123485090438882,18.61254669048108,-19.630377349823263,-6.821638702660842,100.01465323436757
340,-0.012002053354614996,0.08571598530718655,1.0952324211418967,-3.630698975263702,1.517809516188484,-0.18690050805189004,99.9797638067542
360,-0.043072941165076185,-0.08448344986669125,1.0226367254886357,-13.037204547000066,0.3988325815491546,-16.855044878415608,100.00236798734916
380,0.04538630299233312,0.0014314815149849116,1.0024188319673633,-8.24001999767384,-20.825442261911277,-10.26832107697827,100.01256850214502
400,0.11668448487416785,0.035665930237993644,1.0147172423910096,-4.954445094946347,-3.377374538149757,1.7922807551223077,100.02293971675415
420,0.04782575637992208,-0.05550206631970807,1.0710116954502684,-0.29551394331533654,-12.595340362287013,12.375359972676035,100.00387029397179
440,-0.006279239062555455,-0.005889381985266504,0.9649496240782724,3.2965752495341647,8.018764569051498,13.878090664795552,100.03080183130571
460,0.033750037177339494,-0.01620139334253625,0.9664056326705183,5.558970921492591,-6.499004686969576,17.786271094180293,99.98497218774442
480,-0.04447504542773937,0.04689424294360858,1.0071434840705233,11.619429019900911,12.836983574964764,-13.34378437220071,99.9958403336897
500,0.06392111356477513,-0.09649199615463033,1.0915265120802722,6.560070136370063,12.352856564060467,9.141817737966917,99.99734442391353
520,-0.062459181129582576,-0.0011890060452779813,0.930333253874559,-19.229978474001427,-7.786825707824201,-6.497680778350167,99.96804725570182
540,-0.009306847046425029,0.004963084919663418,1.1269958194693843,5.91552328401179,7.742940951158193,4.819708696722432,99.98157151763635
560,-0.010480783160770779,-0.03384956232572005,0.9818954060911843,-8.837412949570908,11.249841000596604,-9.184129382412154,99.97947768759501
580,0.011784242571599803,0.0289624391475802,0.9531687952578497,-4.863108869492453,10.961704785344272,2.2015106642222158,100.01457787052811
600,-0.05560053142457534,0.06731587961590321,0.9784550829120767,-3.8665880324702266,-9.27947095676513,-5.31905515766051,99.98106404012496
620,0.06580225775297256,0.12273089078344478,0.943588023090588,-2.1091789485171133,-0.5703908131270083,1.8244235549734662,99.98629251960934
640,-0.09267046266882091,0.053665597278543434,1.028491982618086,-5.142716116442214,-0.6907331182068908,7.951045481819633,99.97695721350858
660,-0.07862225200162025,-0.026313522321966765,0.9897088979116437,8.214325351290512,5.25832852839577,-3.0906433464141685,99.99393340528476
680,0.05226382368812569,-0.020144645463083418,0.9800143916801101,21.107206802074202,4.324140236325785,6.480111336699023,99.97790507324001
700,0.06060956658811944,-0.040313504005666634,1.048027603872304,9.560044277207888,3.3321458823872043,-18.569032419677434,99.99673570681465
720,0.03282590989772479,0.039537955878938776,0.9106085371859411,17.986479631726507,-7.921917298949783,4.90673259602285,99.99307692913884
740,0.022962463628574056,0.07830162236973352,0.9430263313701042,3.40875952980555,-6.764996432231159,13.013832449978008,100.00106605640211
760,-0.06993867052960645,0.0057672736881958205,1.0217737406870997,-0.28262288984859096,-27.552532442292872,14.470252615180163,100.01951095604751
780,0.0020837648025782717,0.04980568524003747,0.9621940282486231,-1.373775961324307,10.309197265613392,1.0364087647137983,100.00916238804493
800,0.017477362923450625,-0.047482413534974094,0.9404904546509643,-4.05650008925571,-4.619764064206021,-6.190646841084122,100.00241480979011
820,-0.04176277302407904,-0.026269812545143725,0.9399921021004097,8.964765575221453,4.762161944748908,-2.1073932778487308,100.02116984814413
840,0.0273051312961922,-0.04240782563062609,0.9787515702847221,-16.485982766137685,-8.804954883126905,-11.506098726111546,100.03492577106262
860,-0.08909649011762197,-0.00803683305868672,0.9326565566698259,-1.958527439279803,-3.0592110707512132,-21.281007801419655,100.03137978952111
880,-0.04455357055630684,0.04805800768693194,1.0486711865961795,14.393625212070333,-24.48628697488502,-12.18288235405264,100.019100525192
900,0.010883497275493212,0.004489954059522454,0.866059268313179,-8.904809358081,21.942707307853972,-7.911144037335779,100.00848517449236
920,0.11160378245490209,-0.08703094763632348,1.0523530233388398,4.043800159151781,11.076752217500403,6.4603404274580765,99.97310633351202
940,0.016680726999409534,0.02539113335445183,0.9612549416157239,23.797832369769605,10.898858367983252,16.862572154836702,100.04123366696669
960,-0.04893716900534112,0.045583752328787336,0.9582841004636635,13.07760011562953,16.90284412733504,-16.12959353700667,100.00799637276806
980,-0.011347637906854086,0.03188738974667643,1.1182111811380766,5.466697327978305,-6.377701421623106,-1.3628664841256843,99.98787509001525
1000,-0.02460045074124718,-0.052792085823054336,1.0806028156639038,7.790729482664798,-5.169986095518639,-3.0471746863508615,99.99113424550532
1020,0.0258899981485886,-0.038704499917275426,1.0299748209955777,-27.589172779658032,-0.9197415722333797,31.607506906587535,100.02191752380057
1040,0.01896195117801815,-0.05347447399306409,1.072739432937244,-21.0085756689806,3.2443535829496923,-11.757386407460062,99.95561576034417
1060,0.005243599061156033,0.06267448571617604,1.0551163824802008,4.192236936911661,7.965449343512778,-15.109865510429769,99.99898141573047
1080,-0.011716144674364529,0.0633017036115312,0.9477225004758277,-1.5897066856850843,5.4146519428688284,17.375103735510873,100.01585882907982
1100,-0.004875695527945245,0.06667980282747378,1.049792677265402,-6.793343621409621,0.3792757986933445,16.618699512234244,100.02737022039659
1120,-0.09163013715956632,0.010574810198209869,1.027599149106813,6.971561721018446,-13.1564304252523,21.025945469260588,99.99554655353606
1140,-0.06252851631789451,-0.0038325697302832363,1.0129535416208828,2.382458405741934,19.071267971600307,12.008652240239954,100.02043776846433
1160,-0.08362021682472244,-0.031994717523634406,0.953140913178161,18.325321913477566,3.644797520807951,-34.33745030171053,99.96756192166522
1180,-0.04492764818746375,-0.018750576474810605,1.0668938119095928,20.350895449791178,2.7764149729189045,1.6404869412701184,99.994913842751
1200,0.012823028479738784,0.01975976892799115,0.9973784743469875,-13.092373436024538,-20.25413987639282,-3.6511444788935665,100.02665727275357
1220,-0.012091637794405077,0.08146054510664705,1.0378817152569517,17.83503662608757,5.8755274143934395,6.906880234864071,99.95738586381492
1240,-0.0031226003427390365,-0.031106682417492978,0.9553901115071974,3.785901462511214,6.442727153992703,4.541704608321245,100.03219525082598
1260,-0.027036258346275988,-0.02270295490613094,1.0137536563024325,-29.362748222507967,-4.5618957059742895,-7.735749463042234,99.9945943745254
1280,0.012585920177714892,-0.013949366743396958,1.0023440093775229,8.761560262103531,13.31341874338699,2.22863846266028,99.99323784441503
1300,0.013107797928204627,0.06294784945243552,1.0008175595213948,-20.460938185540613,0.15833433857469092,-12.96666147543186,100.00648369203908
1320,-0.04961274944294155,-0.05367596269412046,0.9803128324472768,-0.015698548834868858,22.763824417851435,-30.019562819792775,99.98979008704293
1340,0.0010585100811036003,-0.02062948181925435,1.0011590232915635,1.762562047948836,8.129537706086648,21.100443066643482,99.98387836106832
1360,0.00595432564711423,0.015925494480330687,1.0664964813439506,-3.764885060521173,-6.9025676800980085,-0.327295681443479,100.0225275331929
1380,0.0215830415622568,-0.014902988747448099,1.0922559277980588,-5.903063862765388,4.058149123003045,5.563756494549859,100.01852601751744
1400,0.040433625882722236,0.08536411403027999,0.8958604011886722,22.142252945799548,1.4682780508656517,-11.360287655177707,100.02773907893047
1420,0.06752196958745242,0.025264818675026102,0.9045683975518554,-6.681148600514969,-1.6438143937534926,9.543526190442577,99.97602319142453
1440,-0.026424416495566733,2.9659368168987866e-06,1.015727009805909,-9.44764023883077,-30.08787048368477,-6.9773479939238445,99.99685874310926
1460,0.021526644822176397,0.06770438900642126,1.0487601405709197,-0.7150262427804454,-16.54028933896906,1.402693279914923,99.97505429838768
1480,-0.029820308085470506,-0.07452318501587009,1.0035329056091418,28.99978060390545,-9.35820580409183,7.276709248645521,99.98994021618869
1500,-0.03183661701400275,0.024079340190670873,0.9983200007117756,1.0327339485997173,6.743689982503097,6.278273937316693,100.0444371806107
1520,0.0021621660319067265,0.03248253355325903,1.00346526430969,-28.95268893506819,-9.466542573724766,11.743522024587115,99.99284556978886
1540,0.03443822064005724,0.09102621965175038,0.9843920601766918,12.038078880030898,-10.773947568580317,-1.74441879855339,99.99808035570538
1560,-0.02258616093035705,0.04453393214900839,1.0284313172564674,-14.866557849411244,-5.30010233543263,6.857022129495388,100.01573356548889
1580,0.02477846055606663,-0.02028350840521446,0.907394042912086,5.156396905323369,-2.659754776644219,7.5785332150335325,99.98905322669015
1600,-0.013533428303087711,-0.015576131203458063,1.0016835281385863,-11.93252132831292,11.193489938182315,11.107588705452262,100.0429303473852
1620,0.05717128901625771,-0.039276952273491095,0.8893243498089838,2.8975520997633573,-6.5539453305217314,-4.5596230116554555,99.98608496087074
1640,-0.03579299854291621,-0.04380130586585676,1.02749080110946,-13.82089337306537,2.8386410736458325,-2.002749002497015,99.98498000014041
1660,0.017657008489692205,-0.01744177841459055,1.0215380136288228,23.167188367248798,18.540443606692794,1.458813336923753,99.98798344870082
1680,0.000678099554514671,0.12039243579246171,0.9355584111226137,7.62616557684524,-11.212152997404516,-4.8056664394706035,100.02145471830438
1700,0.0582977948089006,0.021593484454222628,1.1011065182563644,-3.4111814537941,15.588437558970604,-18.88351305958474,100.0363074061098
1720,0.04345826250920587,-0.010451096133223555,0.9737040854776061,8.735216384270286,16.688676514317496,16.131269625695445,100.00345289261023
1740,-0.08494867584287952,0.016725177398900733,1.053757514175029,2.5867883447894706,-1.1355610092905242,-4.632036058154515,99.98196296392668
1760,0.1458461975669035,-0.0019034862464913267,1.1201663041496532,0.25672119885303396,-9.386348966153527,11.056091167090177,100.02195720194817
1780,-0.014065511809099507,0.02999026313838687,0.9583839713585641,11.940197695340538,11.50404219604014,9.820383085400827,100.00218375234378
1800,0.003985279314814489,-0.03331356089116391,1.0553326483107985,11.479691947023436,14.122482696971598,-2.969234482408356,100.02114393664453
1820,-0.014171048682066784,0.018953812576925966,0.9686756476717773,-17.894625442660086,-1.017829918997594,5.360378699835673,100.03341232603142
1840,-0.025694653785034827,0.015577377537267817,1.086945775316081,9.589656700925188,-28.201359617208283,3.3079462649754507,100.00185942895773
1860,0.012582605446840102,0.11431995686966563,1.0390544951712146,-0.8397815407974214,-26.183172515088472,-10.834658370975779,100.00892940075744
1880,-0.04040558475859096,-0.016294114985444186,0.9355778298563844,-5.103777215825796,16.167474817189337,3.821241819334552,100.00372963412083
1900,-0.05747736540053705,-0.013745252078934678,1.0169796524384564,1.7834615295920115,17.548156658365205,-11.714416388778204,99.98355513254211
1920,-0.08869017466320647,-0.03527670412995021,0.9166989025395652,-17.418083482075332,0.8166321366297651,4.2770454265250395,99.99019028809568
1940,-0.08559605668876867,-0.0019780443202821844,0.9841760640020566,-8.309260238184969,0.8558356026310161,26.4945033663163,100.01391371794689
1960,0.018439915669095613,0.03076407020248035,0.9786534842848488,-13.508291796725832,19.038311239965427,12.748293112414444,100.00695302318206
1980,-0.06846965743151578,0.03253918574624779,0.949681689143278,8.94450743498678,-6.486022290844755,-3.876448177891815,99.99018045704186
2000,-0.07884828490877066,0.04714990218779566,1.0622216943160088,9.626718597960734,15.671571646102906,-21.825170617188775,100.0155284162462
2020,0.012865811286593734,-0.025959641286617083,0.9455826682687809,15.118897737709755,-10.789301526905266,-18.289425846202732,99.98978623257574
2040,-0.020078327174028215,0.021892196687840315,1.00071283645696,-2.254300897453126,12.357366114253235,3.528779463146255,100.03605371441574
2060,-0.04003942126071113,0.037294528618606666,1.073754787922639,-17.95409856517631,-2.812089574803381,16.350907101221292,100.02356680774005
2080,0.024314867412923505,0.05328098037422298,0.952731643382631,-5.371668425565527,6.715145994589994,-0.7206702137118003,99.99309326501137
2100,0.060945738706468106,-0.020188820553802823,1.004147388916154,6.224809206417689,16.8353084353644,13.543171017418162,99.97597857045994
2120,0.0345594964360151,0.033755597587623885,1.0917384467138938,18.2935724043367,1.578309689864012,-17.92988390914298,99.97797346263516
2140,0.02821514845636236,-0.05153776591140922,0.9640446153819959,7.1069840291387205,-10.627782895739806,-3.2943289553068325,99.99255566360944
2160,0.03035017762108207,-0.03505091918915999,0.9924902054646495,26.909482030205574,-2.9784470755195405,1.5463207747973866,100.01065097518628
2180,0.019348936706661705,0.05398035904478082,0.9594793737388763,-8.053076473341527,14.446993827811177,20.93806868275471,99.98562624094247
2200,0.015408770449324245,-0.07560987748953969,1.0475799201538576,-4.092752984286873,-14.17767890939813,3.0798518807845072,99.98616434727283
2220,-0.09351281296520318,0.05864082551985744,0.9375128241259139,1.4590867754977013,20.297786704113225,7.999715391023308,100.00788134984006
2240,0.05192978205704834,-0.06434335071899713,0.9735241746909246,13.337446091010765,-8.4212844007205,12.902990170762525,100.05090237419395
2260,0.04321948263631123,-0.04312719278679964,0.9858756883534421,19.614672832222155,1.9795081966686308,19.76866683132741,100.0028536689271
2280,-0.0007523769066577176,0.07094403687711957,1.105806001612432,-4.865976988845619,17.187415805990806,-6.571324869388945,99.99151355448683
2300,0.048791426458650464,-0.010906979133047213,0.968051644474909,5.721375235898266,11.652824133264161,14.00221127175232,100.00083698302299
2320,-0.0002813237566952088,-0.013513064289958632,1.0149193921403405,-1.7103425606080087,-1.171362584783419,23.80720478385719,100.00708722411328
2340,0.0366440217672574,0.017110576065201204,1.0363954752349787,12.918222705307514,-13.281208764045992,11.173441617807079,99.99083698133359
2360,0.011011906767808928,0.06282695359089824,0.9483960271424354,-10.432284577376752,-25.403831661930496,3.2315309628351336,100.02039064622394
2380,-0.009518524216276213,-0.012147510350704082,0.9797163056255809,-6.952174365406362,-10.374779107894247,-4.4639657409470725,100.0009096804732
2400,-0.025710156468541537,-0.0152465764836913,1.074365466006491,-8.136341608900509,42.850096502816704,7.0144111116301096,99.96979037526467
2420,0.034503058853918724,0.0020536898517218446,0.9707735591730853,-13.344851067586667,-10.93643371028254,-5.419157880768462,100.01943902297414
2440,0.062351714944300876,0.05299132073217275,0.9992420249752494,-11.647467834464692,7.544849320683282,-5.998496363105265,100.0237215631185
2460,0.007162010720529426,0.05644986610151808,0.9179127831052717,-0.13830684099135282,9.33472013023588,-10.780870965970426,99.99456963884509
2480,-0.014960829669847778,0.00784011492615186,0.9105049957315482,-0.8738193803014209,-1.9824405064237385,-2.1770589631430424,100.00718111780823
2500,-0.08867301726253426,0.07596563962160369,0.9387467283137841,-0.4311976328756246,-5.423632908089643,-15.262148908257593,99.97405904081738
2520,-0.02150691030637218,0.03168566016972752,1.0405124275696052,23.999281223808648,9.42569282464629,36.92462664222569,99.95416066941092
2540,0.004475498439310024,-0.01798116876941081,0.9548660052259449,10.67189834115785,-7.203867353635097,-9.487440848799144,99.98866886361944
2560,-0.06737892511019199,0.01995150288414911,1.0657652405120852,12.600978680115475,-19.571685452358857,-13.333778938240549,100.0433269812466
2580,-0.06954870480361064,-0.00559139897777178,1.0372973033437383,-13.237958419998428,-2.226713808252047,-5.05179391831294,100.00977828916136
2600,-0.05963993870277179,-0.08054688883294613,0.9999746740248255,4.994403911282471,14.500132998147468,-20.7231402623634,99.9641668475464
2620,-0.027084515472564935,0.07420927400651245,1.0334346932782765,-17.884359525373036,12.00698101189815,2.1147355351642685,100.00392619826265
2640,-0.0007077084693673807,0.037305631464203313,1.0664609345223623,-14.866699157710574,-6.413499820224951,4.905510913666191,100.00195078231735
2660,-0.03244349172876986,0.0622447378553203,1.0735225344601798,-25.571412399330455,16.537773219629933,-3.366102815611069,100.00295457038592
2680,0.019357513229783734,-0.05439532735347833,1.0130134380885465,1.338392348728282,-11.330344843004255,2.086020403709446,100.01972313746813
2700,0.005872209168465714,-0.037694135861503573,1.0450887564893951,2.6271371515446083,-1.1834666638513807,-3.0807996888118376,100.00166592348808
2720,0.02724073098556233,-0.030892086531698473,1.1020597696274421,-1.3303174733285137,-14.3586127333434,-2.8314791832406385,100.00426826835306
2740,0.00695373677413166,-0.07946941325901521,1.0264185849681535,8.146647551632096,2.213971813743481,4.430537739227773,99.99240013528885
2760,0.04237578566492435,0.048526093429404414,0.97898998357142,-8.240471495975095,-15.375428418073472,2.479230558371227,100.02682152933093
2780,0.0444374202178917,0.013828348616490203,1.049642658855552,-8.217372575772446,-19.63274823854587,15.423943597595642,100.0124244421213
2800,-0.010234458973544216,-0.07586641310763775,0.9494077233915769,12.18854241282719,-13.421263437880176,9.131545662184138,99.97423709615497
2820,0.019704661315785656,0.025403911020206095,0.9721020548800043,-6.688364993661957,-2.826438888563757,0.2085392159263183,99.9968071014478
2840,0.04774056601099704,-0.018275536635949947,0.9635895123404005,-1.5343337116797797,6.730015602134349,-4.7411381214548065,100.01776179827048
2860,-0.04668911682539773,0.02322082750227951,0.9596792995623101,18.029327245399582,3.5212030294577406,-5.575075493562924,99.99431966325048
2880,-0.021264932681881614,0.07301091147767258,0.9681244163059106,2.9989737838346393,-9.52873975737884,11.404508412084958,99.98834148801271
2900,-0.02678359704418918,-0.04658746096030521,0.997582977212545,-2.7217878856779425,-17.048850951432257,9.10043561789759,99.97491566584767
2920,0.06096522288632346,0.0777473863569929,0.9711762868001513,3.275167881670087,-2.7851616312149248,0.3778730802358191,100.00753679063166
2940,-0.035760634966247186,-0.08200917197951887,1.0185638096100518,14.548105614798398,13.633668677679342,11.214245918547764,99.97695972184039
2960,-0.04556750227175772,0.16452246316580707,1.0678034589348775,-19.58135393379665,9.768710761476925,15.713167470722624,99.99245033784771
2980,-0.005779259825721341,-0.017260090734612363,1.0751352444632403,29.313733409078612,-10.077030383623642,-18.887442981077495,100.02480635348965
3000,2.0279047931604883,1.8943656912177498,4.337819591979618,345.45239801623313,327.6300093176761,330.45367291424964,100.00734380911875
3020,1.9763270486991231,1.893912922430051,4.310696260188199,348.99065381623586,335.63750026784066,353.05402943020425,99.47336890964976
3040,2.058850489316969,1.9289995436379606,4.312829247282,334.40093364937053,335.1554624311686,341.73006015724036,99.43093516714752
3060,1.9999756716313946,2.111233353541585,4.257472447091738,339.71440324654304,351.7573255380727,330.73927379019193,99.45435269280156
3080,1.9752695370413613,2.090613813271128,4.414363347159424,336.77862357775393,339.9656939862242,344.02749732295376,99.4598594120454
3100,0.0047049394448765965,0.12645186463271674,0.9371942648884134,326.81471519044106,336.77717383910124,334.02397098522624,99.47978742151622
3120,0.03697409744675472,0.07350960880774639,0.16134281766108055,334.10563578169877,328.98105735240415,344.0266132212722,99.43513334267102
3140,-0.08320765866944863,0.09735146926387532,0.19980687140055017,343.9044805344721,341.2140327865223,336.7374483744955,99.47422413858408
3160,-0.0375804421819618,-0.006716410067467715,0.18156236567411976,-8.7901552994917,-2.8788626517932245,-5.6982772188980695,99.46215758221484
3180,0.015409237973382693,-0.11807792208491115,0.14773692544233838,-20.307523284304132,-4.20129206747332,-4.955747075198541,99.46568301910153
3200,-0.010172537470942385,-0.09131447563763506,0.28408107624772516,-15.480611629134966,-4.173293357651911,2.107803518677215,99.46280801144583
3220,-0.031632544292694555,-0.002351191358478206,0.14795924579226483,-7.00582931540359,-21.985450806033043,-11.476261218997776,99.47526685285608
3240,0.0033729149682257703,-0.008566891194001785,0.20019411218301267,22.19242686809683,-14.499597039015121,8.32722054441061,99.48333258342957
3260,-0.02013823913662552,-0.0316040587416786,0.15953893431513824,2.5233949836904803,-0.6832874036491883,-1.3534234909689173,99.41068214036672
3280,-0.023507526656849093,0.030239050597840753,0.18848201429488973,-10.660566567300373,-0.5779167037193051,2.2339800498970774,99.4313774797101
3300,-0.0034527325884921643,0.03747796406823672,0.1705380266157181,-3.299528218488491,-0.7158019205217436,-12.47052041866326,99.46949105823985
3320,-0.0036384285796402065,-0.023845872741374632,0.14798737743019416,0.9029557233111869,-10.26941741884788,12.845209184795845,99.41391020251334
3340,-0.10329709920593594,0.002470777572237318,0.22092410718503894,3.9404040752670135,-1.3114976278606807,-7.86925387439447,99.44164371574837
3360,-0.044879680905846535,0.02515891328327697,0.17112986293156535,13.864602286509767,-1.8226436092668572,-2.2839682629086795,99.47415091353936
3380,0.009985819574166922,0.026089247301941395,0.2116618365239624,-19.22917536290353,17.943521123046132,-21.523657132766097,99.43826171528296
3400,-0.053199456814984704,-0.02043950082305507,0.16067855654452926,3.8788730408579113,8.079726527257213,-2.580316739415816,99.42317561375238
3420,0.12246559017028896,-0.005986190197946023,0.14844657754223653,3.2377534477620413,12.415781750718953,-16.76980238150906,99.41068521376485
3440,0.06478674717654698,0.010809677013777408,0.21609058323784108,12.791687509561449,8.991752428693639,1.8619448655927169,99.43508058453736
3460,-0.03944950006103125,0.051912984726785884,0.1947131681003627,5.989444870160945,-4.320609568767959,-7.453391414759395,99.43795146930512
3480,0.026725510499677488,-0.04585313052496639,0.24889521695492073,-1.3734276059442176,-3.5795138535810107,12.828191738049224,99.43626636429472
3500,0.02313216842047927,-0.04181840549452878,0.22452639206737166,-11.809843994061856,-6.67520689529322,-1.7417756331956582,99.47826222258838
3520,0.01138435942735565,0.04292906491502094,0.1766649943808226,2.2333590828132928,1.360882330164622,3.6592141545485126,99.48133467032076
3540,-0.016501710990376336,-0.020339989029266183,0.26754781909191383,-13.306938948397159,-2.4177306828216527,-14.163250921251215,99.45574037558359
3560,-0.02445170459747121,0.01890843536412057,0.17461188508655065,-9.45703852410596,0.6458878495163458,2.8638575878734076,99.47579737799512
3580,-0.11453501066624634,-0.07782499665480551,0.12901777821929095,-12.057859955484044,4.897809218819176,-17.23235017283189,99.42268397052084
3600,-0.0075779469082988445,0.02153797080510981,0.23110705388836544,8.417450718030892,-0.3256654120239114,11.327415843147895,99.44370884658635
3620,-0.01054219369122866,-0.044170746996983985,0.23236229077092832,-10.96002993419353,-11.819626424370803,-3.3169571795567467,99.45187012513163
3640,-0.017090084904172628,0.023659232952494308,0.2567710255750962,-6.125715151900131,9.084921601033189,-10.501086116384233,99.42807626809292
3660,-0.04219166454447721,0.007105431257853583,0.24083032984359729,16.683078636995383,-13.177124969052585,4.691884513276056,99.44961788473671
3680,-0.021389003443516894,-0.037431617024957196,0.23497661883691448,1.929066562927185,5.4654974156602485,5.245105992541411,99.44612243531726
3700,-0.0773106909586217,0.07752141143903057,0.21739625468741497,23.64747703032829,-20.4284277465461,-1.4121684845243463,99.4735545070577
3720,0.003624807273328077,0.09938522519157203,0.20312334060018555,-4.693073496488685,-0.012566914810456763,2.197419514598808,99.45744306255497
3740,-0.06135268296252753,-0.014701693512981602,0.22134527538286608,-6.383535697793693,18.170951389478756,3.4387395810224914,99.45174294325729
3760,-0.07711761710770333,0.08295642512919676,0.2006826187710632,29.129367544795976,-12.433710124233535,14.493002778889576,99.43527619042653
3780,-0.037297173780755026,0.061331359459271456,0.13912919475263547,-9.823903842843329,14.746566674011452,-11.329630115409712,99.44968742055106
3800,0.004450329163422906,0.09533857629324599,0.2522702631328674,14.352116250094044,5.201258240696096,1.494317106312001,99.45736520829696
3820,0.02228453716056858,0.012314150488027956,0.21197170545150484,-13.11608239987807,20.506086621849324,1.787683215098744,99.46650200411062
3840,0.032152500264906916,0.046583812464801665,0.2612846869726555,1.2134774080154913,-6.742910681516385,11.003320287300705,99.41624726472223
3860,-0.04178653847784634,-0.007216156849792001,0.10542113821804078,11.886190269004665,4.805471596338936,14.449446605689335,99.49540967810434
3880,-0.15333406044973594,-0.05713386965879372,0.2534917376339059,16.70464852417691,-11.757670229021999,5.948667286189203,99.47910501608476
3900,-0.04577177290162752,-0.0007171380111753811,0.087737775023778,10.44781019954284,-15.138095043135742,14.179033302577531,99.43597756118393
3920,0.01871056812656943,0.034555123395415846,0.193604589225495,5.791717126615823,0.8613157676361571,-22.041851710174843,99.43016230221285
3940,-0.03391778290114441,0.13121640167495233,0.22674638624119317,-5.380152535702463,-3.496803508898842,27.346370728513854,99.45818815102285
3960,-0.03856334541007536,-0.004492264089266388,0.214635644340766,-5.384811990108591,-11.579515164686661,3.267573304237728,99.3974682813435
3980,-0.010200718147957878,0.05270542784116442,0.19253446928486848,-9.927978678172943,0.8903159656704767,16.52945842200282,99.44117403465319
4000,0.023667326201109642,0.11751288864344706,0.24268505546964902,-5.681702197732545,-4.877152062804104,12.17209932641006,99.46801198099394
4019,0.019217613169757872,-0.008252193805776504,0.19957186897524856,12.85499661223895,-12.37934366415055,4.573189451053502,99.43978674836687
4040,-0.036605947644440265,-0.0355996416406179,0.15010881107672525,4.682476144328248,6.259709287303328,10.131610460156317,99.43350470715406
4059,0.08861639888859026,0.10459980872972047,0.23459098894877045,21.84672323830975,-5.718632250013701,-2.0276510108374555,99.42904592459654
4080,0.019112853764251717,0.09644566665730751,0.2465176170011793,-6.932071578408033,-3.7603755356635116,-29.13762709591087,99.4665495027035
4100,0.0023498328414551396,0.05652055467830511,0.17960582863732677,15.477440698102782,7.962438515255917,5.4883036638819,99.46467730116505
4120,-0.00888474446187639,-0.0019685459173462002,0.258160633902897,1.930767320577012,-15.145607222944728,8.88644574249321,99.44675357490543
4140,-0.06680959359865822,-0.05120390291909271,0.1899820375832865,-25.791240160469634,17.209788038719964,-30.157307503789546,99.45778788241694
4160,-0.014152893049759849,-0.016793761541520683,0.1744835913521449,3.3186302755482853,-10.025487478370003,1.3756257928145401,99.44161956235546
4180,0.07497835100069361,0.0840237761362972,0.24681054062150196,3.9120841434131366,4.138172155811347,2.4697555377281857,99.46340448588452
4200,0.0062627198303392174,-0.013039253281864012,0.20495541724384383,11.745187963315221,-5.592448019348113,9.00624244016355,99.43827035253247
4220,-0.00809257074336526,-0.024009871309234838,0.24365617166698197,-6.003045382687098,7.213727664189856,-28.082846597332303,99.43976648233867
4240,0.04644223608270691,-0.010497968066252856,0.11352229196251767,-1.7828592131532939,1.0504895188073036,12.445574766026859,99.4554174865697
4260,-0.013850958159131677,0.05462543321651776,0.15983815167275853,-7.200958026381832,6.911389475937717,-9.210033964725666,99.46021859585693
4280,-0.00045120060137717155,-0.06794022260710983,0.1993323258713505,-6.1107596469082495,-10.112716825097646,3.6527721076256716,99.43098354405787
4300,-0.012524374791284126,0.07616387764636179,0.22682069935331492,10.845751586402292,19.096191237957722,8.240703650637498,99.45097462862944
4320,0.06914081369024695,0.0512682965147827,0.17208219299459324,25.85315345508134,-4.7156645829996995,6.6035523746439395,99.45335592804102
4340,0.030013921315276568,-0.023790762316233498,0.10712193045284245,-5.915409596108751,10.45089329234105,23.73503910247955,99.4637130683977
4360,-0.013247502858902969,0.058439349325262596,0.12614972862457122,2.840385495540307,15.453129728263182,-12.671388941843322,99.47013974077744
4380,0.09062133815337496,-0.01935874869791484,0.17196499671110738,-2.7731068572434667,-16.570691968817556,7.19837783279328,99.41406707975504
4400,-0.03149597105438408,0.02957718725651054,0.17492674958222756,-12.143483241586084,-3.113192169464079,6.916643301807651,99.45537807006089
4420,0.054795176048859674,-0.03606970770279373,0.12375706200090192,10.048442737062077,-11.081135187335942,4.7430035833324995,99.4605484136604
4440,0.013579615696091035,0.023487851813003034,0.1522095489394065,6.53180193806969,-1.8856841927264223,4.768307011399518,99.42298549615468
4460,0.03210216090634986,-0.011904257207095635,0.2323789479799875,17.052989101733214,-17.0009824430813,3.402760808315085,99.43840187903437
4480,0.09370073534668762,-0.0027562855698413636,0.1332055232051032,-21.38393657487476,-5.262926676513468,9.680039992003246,99.44601946113791
4500,0.02685794633030504,-0.054130097131019496,0.30888074864297793,5.123280645013683,-8.71534558346709,17.285191811494766,99.44149089165518
4520,-0.08261470727259358,-0.09937087049835112,0.21874745893795763,-12.291218694943694,-9.984365955399948,-9.333553388885104,99.45392970322632
4540,0.06121462239995439,0.024656659632412568,0.14145441394149158,11.369977380049878,9.456861386912625,0.1027521816025688,99.4438821150238
4560,0.03361132223969326,0.023588708447415885,0.19332377320472383,-6.642557807276216,2.5867453494202435,2.4694961437666194,99.47693649534827
4580,-0.10000156156771411,-0.002696255476735073,0.23882207739655603,-5.088067469968706,3.7959617524005034,-11.515500153865853,99.44647112065398
4600,0.05705942001901301,0.02450864123611646,0.11590652002658419,3.7554771231543054,-14.965816126388715,-2.0246101348225936,99.45997711457846
4620,0.018783097436361442,-0.07123444182023506,0.2023852918618618,6.173280383952729,-2.872455914696515,-2.9016585596855218,99.45753236632005
4640,0.05895411540295149,-0.07444732484258414,0.26185799128181475,-15.431600616393425,-15.765006076420722,-15.458893434178098,99.44600973443252
4660,0.02148879845606602,-0.02441691048526409,0.21335807450287556,8.71389629409322,-11.783015677352605,-26.892298947934147,99.47966650515261
4680,-0.08179762214003856,-0.022266224727818043,0.14932769073781124,15.416247942461306,-0.3355353472774291,-18.621405612314494,99.45731622759989
4700,0.01682996919520173,0.032141214994022414,0.16978856733675152,-3.310115052011297,-2.7893839047554154,-5.075146196627767,99.43780636165233
4720,-0.012991278692959463,-0.006430208817647322,0.22995986825588627,-14.25531688535164,-6.312235429301998,3.5165476655301027,99.45989827281579
4740,-0.005682280861580707,-0.08214330273945902,0.17539522232058935,4.45724074468476,-2.7011855403305387,-11.53007086889536,99.44292599046673
4760,0.04990166036808763,0.023088223478764342,0.2803674596842227,3.701035978062473,-4.26661279196987,-18.519543554122983,99.4448043160468
4780,-0.030477114909811837,0.05227897555050375,0.21368204688219655,-0.21749499792512939,5.738327757198863,6.483573921988178,99.43496219073504
4800,0.025073158874597865,-0.06939132988403617,0.22109017185168214,-24.10170965402144,15.211414588879746,15.312720610380179,99.44349133591413
4820,0.0548530540305873,0.09240312871795539,0.17422059223749475,-1.0694461526295886,10.547880029368356,6.722413118263359,99.44699345348769
4840,5.292890938378677e-05,-0.029995440755649305,0.16892178744934022,-6.111034342938146,17.890963737843286,-10.534459420599775,99.47905772786504
4860,-0.08361433149939997,0.0022652198947805827,0.2715928781223438,11.505015267637694,-5.3214519293162486,19.74357873472359,99.44526630847741
4880,-0.042398851650367796,0.03761925426988122,0.14324456968049853,2.7205507500899744,-13.088109160587347,-19.182318173127946,99.45101751047203
4900,0.09075160214687278,0.021228338062877675,0.25023898197106986,-7.872398829496532,17.58881978734655,6.886760277831089,99.46307231787351
4920,-0.043952226361620966,-0.021383644963728576,0.18586981784145798,-3.751581900264676,15.963549507931006,-6.538408681850997,99.46837064113738
4940,-0.02844771567548133,-0.029294091653543006,0.22289585936587403,7.0276220250490145,-27.111416256115312,3.728296578082821,99.45029856470595
4960,0.008879578281954825,-0.06932713011949182,0.16228657515157302,-8.616701073018435,-2.2783949482271884,18.077407953894937,99.47471726311772
4980,-0.05495650073455593,0.05092940872054979,0.21103692382398745,5.34674039835541,12.9639382071433,19.105414337445602,99.49769560821215
5000,0.048732664634178496,0.025372222723579294,0.25310000496992446,7.303084748464478,-13.317548287342573,26.989960082096275,99.46540622548065
5020,0.07430514652841924,0.08143295261975968,0.2814564820521079,0.6745246524001587,-9.249857168292582,11.644403057260716,99.44018296603387
5040,-0.06761668224133295,0.04942880670588381,0.14436986633830542,17.381181209484808,-9.490288300291382,10.076146606169917,99.45585327677892
5060,-0.017585083856779978,-0.032261847301713414,0.17501838161125105,10.182317898074917,2.672124719819341,9.508266220479102,99.43432981855524
5080,0.017625632963370726,0.0266580960323414,0.16763720224420475,2.4332106944655756,-9.945900370167276,19.674192405240014,99.45556070972908
5100,-0.03405768338277808,0.13259066942618947,0.18091676836667228,-25.178257094812338,-2.7371525025509253,-24.21706438512005,99.43881677720725
5120,0.044956080547259164,-0.0710168233506073,0.2304154224477431,-5.016274294682424,9.517651844177909,6.862575877511433,99.41665019713763
5140,0.04293628441414206,-0.10496751128013924,0.21066561947174978,7.226832048042633,10.544577333976799,9.539660100705234,99.45177071130419
5160,-0.018127182242714663,0.018937615955495354,0.24103822116277537,16.016100037496017,-9.277825121801206,12.287821395269617,99.4606356139837
5180,0.005438132766304165,0.1005743625845995,0.1734844524128014,-6.063663122508869,-13.666794544497764,-5.273293491751796,99.46776683853298
5200,-0.017054095736440414,0.05287952519923931,0.22795855990767466,16.17909158514194,12.577269825418341,6.981664409251078,99.48148210760023
5220,0.009571098000870706,0.06940817036756552,0.1401513886195508,7.578492824261152,-16.765088145636334,-23.542681938749475,99.42997439006875
5240,0.06767472463744605,0.0043269914930014145,0.2706904662938614,25.120598789800585,-8.331764757924962,6.947712017916176,99.45991145198484
5260,-0.009812950697078058,-0.034218960098758126,0.22421112003515856,-2.9631166197703354,10.924544674583355,13.041626287789798,99.4332594275505
5280,-0.029973284656561558,0.01369338652998802,0.14409491268747346,6.091408234331913,4.4525111682143175,-6.232733229949842,99.43156249886535
5300,0.03254194389955367,-0.017641456023395043,0.17203846441464224,-11.291204883251986,7.961774630692163,21.65173028079394,99.45011226623133
5320,0.005985579016880319,0.006225657858996926,0.2197036609959815,0.5491853512480722,9.253659818757608,-8.966983789891954,99.42701518567083
5340,0.013312123108728436,0.012096079797559398,0.20874710232914412,-12.721427222825842,22.345449037740863,1.6594193581750245,99.45806659729182
5360,0.053498071367283656,-0.12511028068743882,0.2166454989033518,-2.114293871001512,-0.7251797903409551,4.533022641012563,99.44860069798156
5380,-0.005058868214952805,0.019709215997941065,0.15100747590986435,-17.98593434036321,-9.152891860955307,6.599073732341933,99.46843316539113
5400,0.029416529569339878,-0.018799370505118446,0.16220303215889342,-20.150061712759843,22.015017896648693,16.26014034743877,99.47037960910258
5420,-0.02166437636582734,-0.06014954647542983,0.20397007096973457,-15.373340206042112,0.3548966382280089,-3.9217137127174944,99.40477652189263
5440,0.03403919082703168,-0.022993013639240775,0.20410223943789635,-0.2759904961259999,-29.34447192221802,4.054791370154451,99.5051591226289
5460,0.004700111904297041,-0.037213495041154336,0.15920682722884577,-13.245272365151529,16.00579189920231,-3.18491498097924,99.41819477293245
5480,0.09662386264601648,-0.03262092652657581,0.2531984489647992,3.5353638004821395,-6.62625125053345,-7.197253734202779,99.46151031034985
5500,-0.0581905330044564,-0.007317400436991587,0.2990826646232595,20.156290009637125,-3.9134816173715015,1.7907391301336637,99.44286376623973
5520,-0.03532868832372435,0.10195501900907865,0.22066574043433315,4.520033038826838,13.51418064119393,-11.719701258709687,99.46333577195284
5540,0.10522412926566566,-0.01664548131434824,0.20492612571250274,1.6272136585284136,6.915761249718242,-12.48820058253963,99.43661379103615
5560,-0.07754473216036102,0.0060577125474640635,0.2620890131858107,-4.814781923531492,7.045309160118019,13.735599851679044,99.43971419371582
5580,0.09087227366255635,-0.05236066331375875,0.18818942656785978,-14.412663701937607,11.453681459416194,-16.234044288264535,99.46133900083083
5600,0.055996263513974846,-0.07866976577775833,0.21818577695112956,-1.3180848718859182,2.050977167480486,10.5824163230481,99.43439505985118
5620,-0.04092533931029854,0.0013113399844629765,0.18624008340968043,-22.094998173215807,5.13185003271627,-2.346718861946333,99.46808839057077
5640,0.013307792858646042,0.014990489928835615,0.12397311528518702,-9.390684969564662,2.768708113297137,14.71660106434338,99.42580619055973
5660,0.02552796349014579,0.03049727468089162,0.22442385940282428,-15.079843723645354,8.882374615959053,9.975158717902355,99.43545858356914
5680,0.03960299995270989,0.050389975307630945,0.28418534262522555,14.814260802525013,-21.618431805848182,-2.957986849517908,99.48099820670475
5700,0.026431662435121652,0.07940258586037025,0.13921384588986327,-8.947817781316086,-2.2928183131666455,12.362640646141694,99.40700895108233
5720,0.02508399073572294,-0.036363988544959425,0.22495965273194202,2.1235065946081146,-8.852932860280236,12.357564108292458,99.42799058032342
5740,0.09542519508509263,0.016875073828327827,0.09415098840524727,2.3991226225883624,7.406221733184722,10.861560252458226,99.46271125757569
5760,-0.08836551804098884,0.005330898955887738,0.18885567822026697,0.9122993721400783,12.332855684420696,13.261882352545591,99.45972127306888
5780,-0.006636447137807328,0.029173596010082986,0.14648266041108504,12.055833686680717,-21.13554084089759,-4.799972522309644,99.46479272320484
5800,-0.09235273430052598,-0.01510910431729761,0.21556663615677565,3.7974486877676332,-10.861172469538749,3.512517337273887,99.439506763886
5820,-0.0074538205691506865,-0.10770913948787803,0.09308628167001023,8.090899766391747,7.9247326335458546,-12.674894771487335,99.43612429107546
5840,0.07316143477433616,-0.014766227228023444,0.27105879953530576,0.38711370248871113,2.8536169230806987,-20.18848185660486,99.4590922045382
5860,-0.07513480358676627,0.027213146351116838,0.11011933463306778,4.646897929740598,-5.8460341493158605,-16.82732848482835,99.44997808026942
5880,-0.11186287496221042,-0.03693248154118808,0.18951301323924502,1.9489681240008991,-7.012773682682925,-0.648344951121634,99.46713410845022
5900,0.02637166822004502,-0.022772176427076088,0.22070684334945576,-21.692375576215806,-12.076669264859255,15.594210014427958,99.4788824633077
5920,0.026961417415914853,-0.03896477423038472,0.19997411278212582,10.937516699618646,-9.719998729101906,13.546369443297841,99.46252557040954
5940,0.06302760266042715,0.005855514854965289,0.20132022925448564,26.483915542065134,-3.9997766734441713,7.111295484274271,99.47291160549443
5960,-0.01393691613820656,-0.0018260125187659925,0.07078415425229267,-1.1785587719360344,11.512698373789497,-3.0673320972759197,99.47774386006226
5980,-0.01870960398131058,-0.05356203534533182,0.20931187484144728,-0.6932545204672487,9.314074250070448,13.917570790568021,99.42275735043839
6000,0.12030540626530815,0.043944619040917586,0.19932895750734553,-2.5483194118096097,-14.498908395700774,-9.205929290675428,99.43475935152131
6020,-0.05729544566203282,0.08574886421079148,0.32762427026994895,7.361969191692959,12.131598986650008,3.435934168468863,99.45008090116787
6040,0.046951571628566294,0.052127874887293216,0.15155777049533314,4.321869531534016,-13.665537620597139,-2.17047741327388,99.45844063379622
6060,-0.027049837965514092,0.01654559870367724,0.28677097868131146,-18.511850061582493,1.2870083605447498,-16.98160268485002,99.46351684614761
6080,-0.10169654430621283,0.06041063581300352,0.10435729439457969,-3.2621822673984395,-9.87751949029022,-2.4170318770192214,99.43706235785348
6100,0.050686206286407354,-0.04109145103692567,0.1707531470799861,27.432700297156998,-21.57398129823923,-10.675655098673717,99.46944793109003
6120,0.13848713408495875,0.058555604060055236,0.09285531651241899,-1.8610419222521373,5.634101980672883,-5.5483116548065485,99.48959185284001
6140,-0.007268087965566147,0.025741178326723388,0.13173276172478726,-2.7803753799680195,18.556937108800483,3.462642301225349,99.44555965892158
6160,-0.052915045228608674,0.03908857432035897,0.142440162137338,-5.753730705682515,-22.29626256945432,-6.371803364335864,99.43818847667019
6180,0.007242806911948101,-0.0686964238398972,0.19323530850619947,-3.7982069073621565,-13.109629625513897,15.584837282926543,99.47081902343804
6200,-0.009743674999803564,0.020724631441710193,0.28556926870645427,-9.568517137483779,12.290599800726813,-13.403084745661266,99.43463244956784
6220,0.03964755183165965,0.01787783844382042,0.1112607486004632,-3.0847757513888974,-0.22736183407768348,11.516771586952132,99.47612436619328
6240,0.0788321289182305,0.06138119640170428,0.2408638300007281,-7.383856517726034,-25.08170751160165,-7.005566486632958,99.43479895574268
6260,0.08036123280009919,-0.03499395941014361,0.2517644529521587,-5.160590972818685,6.894759677972265,17.278304553250123,99.41174670235554
6280,-0.03012338902581442,0.023187357503281988,0.22703395242166918,-14.744811977676154,10.652985787738334,6.963424876646409,99.47481030451821
6300,0.022081398707902815,-0.019164121935953744,0.15147105393932359,-10.698912905246416,0.020459679212825266,-0.19653348877386823,99.44940591202149
6320,-0.015118216269435457,-0.05131770418266438,0.244323239488233,-31.371981695963477,-11.763153683234144,27.053819305766122,99.46548757854796
6340,0.0546730806792071,0.011361530991634759,0.25371641489281743,-24.352208041101775,3.016179188428812,16.870413459819424,99.449770209386
6360,-0.009473087350822553,0.0312268947875282,0.19480167402764886,19.831970076714786,-2.7741370071471816,-19.731284705228035,99.44683921813525
6380,0.03127893632350318,-0.030406177696835925,0.15767928948737733,-0.08915384770762867,-17.218586927963315,-3.2246103733270193,99.4412461668152
6400,0.05512086425191947,0.0021410275598635945,0.16073633461077827,-0.19225794828629136,6.522018006057927,24.081687377337282,99.4690676251407
6420,-0.023632668522514437,0.05335292346933149,0.22965265065852658,2.901432135903902,21.758747253318248,1.1787187278809512,99.42561831617834
6440,0.015964798233480314,0.0327217583687869,0.1964171421987658,-4.284976989797373,3.41387515343127,-12.54816248342851,99.4832980036303
6460,-0.02614170564653639,0.08472100748727754,0.12337284067452463,-18.91973700477145,-5.782356748618953,-16.24979024132363,99.47119497853416
6480,0.027855944871329003,0.030353321680297796,0.15271193118514878,-5.048058863936783,-0.2820395523288578,-13.298530369272875,99.4156103931167
6500,0.03114514325220008,0.07361166676843438,0.1577599279312537,13.439024693862287,-25.224238594689375,-1.890759612088528,99.45263014810932
6520,-0.06074130625941428,-0.04880145175142517,0.26623488560597874,2.3260514379713837,5.494979568746302,4.577750954271681,99.43247566441069
6540,0.11113591224208835,-0.04623763946273275,0.25281319390339874,-11.28928449132791,-7.473979637453852,-10.969581547014137,99.41208599800028
6560,0.05036761815126665,0.017532993007163416,0.24946804586958132,1.4845887314346684,-16.48108944512949,11.179220761683336,99.46562875249468
6580,-0.05000900961563426,0.014001519497786911,0.1981431720319086,-25.19501524238183,-15.234520480315105,3.931158947715817,99.45991182416483
6600,-0.07187003385469977,0.019582008801666533,0.18139602689466708,18.965344979616948,2.8429957023045507,-6.78332153066968,99.42784548938691
6620,0.0027453557228496,0.05972528424198829,0.16807142170460948,-22.005429087798973,-18.691666979626042,-5.127060420366062,99.46011991954786
6640,0.0010204254138714054,-0.01204808491803948,0.18858449156635435,11.083935485002216,-6.425519192372129,11.201960831431919,99.43716901912974
6660,-0.05494700070564634,0.03710719210724655,0.12690305237951566,42.02105499001967,4.169517430968756,-4.703737293630057,99.4659072560381
6680,-0.06396308681640396,0.005119827462980887,0.2290681547492048,8.638322861563536,-12.653533360130972,-5.590293272452564,99.4392546628756
6700,-0.05678614254515109,-0.014925598744020186,0.16279341429519986,-7.381136498989415,-1.1051453359564603,-7.846514419048603,99.42497002941268
6720,0.020607602505083655,0.012072047992291099,0.18036700900281927,-9.892899117604111,3.94034310620703,-6.553579275411854,99.47723029097597
6740,-0.054067216274143674,0.011505802680861495,0.08248216804364261,-13.342100697343694,7.981669359435012,-0.7879609954073461,99.41988330560653
6760,-0.0024124355913176443,0.04662734993014626,0.15919697432503396,-7.3902621566031765,-9.688362987081419,18.220565135980806,99.41980851825242
6780,-0.04187259137309048,0.04755253201445175,0.17222641178877637,13.579072570860703,-9.33462156045418,-6.502778936508497,99.45383220431202
6800,0.04211655610151241,0.025400540742828583,0.17951356608966595,9.100270089688369,7.21035210836553,-8.930759525720442,99.48881245544631
6820,0.08231364880751897,0.034792032434033476,0.19118172639507902,4.354857775383293,5.273120928463158,3.48520684390875,99.41132559337497
6840,0.011202198630783339,-0.04294250541018286,0.2886451899954792,1.937521599468032,-0.133369630911464,-3.8994590884470846,99.4427402864646
6860,0.05889521544418679,-0.04609281962073841,0.19987843382899442,28.328409571859908,-5.471927407772844,25.356872630727217,99.47486914262069
6880,-0.016848178294432716,0.0001858344624175391,0.1757230599537289,-3.6438106960590826,8.56653968975218,3.875197015239024,99.44629505096636
6900,0.011076097721385177,-0.0021431435636704863,0.22865970439734834,5.63626837056296,6.372533277365492,-12.743262240741245,99.43648214779309
6920,0.052409038509819296,0.010154741509946533,0.23634375348280062,-6.697082095028172,-4.4846741494233076,0.5489602047886379,99.46793589695905
6940,0.05624127913245835,-0.014556139637726765,0.19425163049059577,-16.349835565372732,-10.05194740756184,5.608676033964371,99.44633191978137
6960,0.04149982258028022,0.02505696036711737,0.17380710470223026,-7.244056734691233,-6.538928393775418,12.3861841680426,99.45942733933298
6980,-0.014278294327714228,0.0033638512485362447,0.20140013389715597,-16.22985719668975,16.25996912374493,-6.236435331597915,99.436868753014
7000,0.03932702087105833,-0.02478943880571327,0.32998834390731047,-0.7839902680945844,-8.48207344920014,0.9234384694511129,99.44132330662605
7020,0.024796051544751996,-0.032265534795215205,0.2166146797967044,4.96418296964236,-4.30244507518964,-12.084806535991786,99.46286619564363
7040,0.1302818452123719,-0.005914229589179355,0.11893015521827484,16.408721294461813,-2.9921748499408043,-4.959860215425118,99.42856866675037
7060,-0.023118677228575236,-0.07571864507910886,0.23018720620893032,-4.584113579402266,-0.6454525256301672,-2.797794077417451,99.4603504706271
7080,0.04230780500598809,-0.07765867850846013,0.16935925260515283,-10.782785005363156,14.781782829774325,-8.317040805261147,99.44041357626197
7100,-0.04484003334614387,-0.039572720692867935,0.2897172278049665,5.418088005080398,8.338067880531707,3.114085859961249,99.47272416934744
7120,-0.07011625104272627,-0.06880604742852033,0.22851117759184936,10.78757408663743,9.392489173489848,-1.1612360784917575,99.4403993330113
7140,0.034875122460029606,-0.02662761993896325,0.2085191579120832,-12.537038587161913,31.858642603280266,21.77072199851018,99.41069831732518
7160,-0.04025677873629063,-0.04844620687387741,0.2215297889719762,-2.190009299515857,7.256491582654332,-9.304877070207262,99.47028629031313
7180,0.01327897942990525,-0.039647788235616765,0.19386595494448394,-10.458880860224737,-0.791401807494015,-2.0504526706042703,99.45094876749064
7200,0.07617580291816609,0.08220552188095698,0.22916180010017295,-19.212957862648025,4.138265528297848,5.639129466207855,99.41633496453076
7220,0.01670347673517108,-0.034860554472251906,0.1410170786220794,0.34486138660843624,11.583461807002445,-18.28091284170666,99.45246802153058
7240,-0.021737866232033918,-0.03596034378044846,0.1989004734404571,-3.3874179974600747,-9.097566954187453,0.6266205943572176,99.4121745668998
7260,-0.032018852538625284,-0.014674333837398135,0.16892515142621511,12.670394283703088,-9.577801853489149,-7.791438036327227,99.47394644009158
7280,0.014578253017706723,-0.008622637645894852,0.23529720789160355,-12.767188176022215,-7.7566326948972,6.849891566708543,99.45742693401827
7300,0.0011562861167088198,0.004438830583779865,0.2771523066704467,-4.950492490565524,7.473811953443329,-17.277250940249875,99.42621766646562
7320,-0.04433218430447853,0.0826986254479824,0.16212186212749938,-19.293281049118598,16.70830816273974,-7.146510270930274,99.4438706936402
7340,-0.023564437927090967,-0.009563976255496941,0.22008484941579282,5.233818740023219,-16.370934568655407,-0.7967751576243618,99.48692519693331
7360,-0.0038740520829992687,0.060821705265850595,0.13532302422262144,17.25813027160042,-3.1242598720454193,-17.135494629984912,99.46397570459814
7380,-0.02945632448709345,0.00033816485181109216,0.1809101009242911,7.193100619036879,3.8817528119356868,-14.216999561925418,99.46179970425919
7400,-0.03307468666207638,-0.0007958591158097098,0.2099836406209531,5.062785018653166,-1.118137166328645,2.7643760148421808,99.4515354928175
7420,-0.05619928733449689,0.051234348094110815,0.16528534386197533,13.131279891084784,-2.425236488305088,-1.768925341021417,99.48130583784095
7440,0.0038507566840885682,0.04060788487290296,0.1949159125255059,6.044377218530142,-11.617254756292501,2.6897706291235806,99.47718102858481
7460,-0.03735596643670968,-0.017037929947300717,0.13342413539899386,16.371259850430057,-0.49554629169409786,0.7272466140566989,99.46936534833186
7480,-0.026861169140686383,0.022203379955683517,0.19350588749071596,-28.237420494392435,8.87075908107956,10.47672549096429,99.39996692922956
7500,0.05961404354958001,0.03834486485959998,0.21065385095366124,-7.0245599433353885,11.892427591423004,20.620477475857292,99.45353455847508
7520,0.058582803564545274,0.006105463620626043,0.19799016320786078,20.305442083445367,12.050194842250026,12.834324237041494,99.47474507678496
7540,-0.04902176705736753,0.004479148200401478,0.1426193182307635,-2.7655426512257733,-14.342909435461703,3.709574852621466,99.42267318603902
7560,0.0549244211493001,-0.05292319262493649,0.16792104877435607,-10.560660936440026,-10.026520770096873,-9.318594093267055,99.46856973858596
7580,-0.0014529483366816705,0.05225132712065042,0.1753618593018909,5.141383983803735,-4.088429879265214,0.7143105209341956,99.42698509305292
7600,0.07337170674578819,0.035162329946427345,0.2551830312940311,7.481202640981425,22.69605959459296,-5.530739851507574,99.44608418320743
7620,0.0569662122418245,-0.07719397648000016,0.08955374568726966,18.106451204103475,23.42428131965158,-10.186473867401839,99.45574086188387
7640,0.039119150545107,-0.015226576340230315,0.09290237381413842,-20.099236210122772,-2.407934746125396,-13.128670062437608,99.45897015421143
7660,-0.05164739351071318,-0.11011886228231718,0.16085346211113852,0.8974161167474148,22.326531492025566,-21.646254423767854,99.47448531991654
7680,-0.06507496266520908,0.014339401573297965,0.28522726583722646,-3.099775305574988,19.653904127649096,-12.306859448928117,99.45630202283932
7700,0.058809902588018395,-0.031665795088720056,0.13260099101865636,-4.463921677782511,-27.4289552376831,-9.021101478566703,99.46265214231298
7720,-0.0600074605502382,0.10211577607213587,0.11813429652853323,7.411026585048825,22.287474005966295,-15.98881896041464,99.43108753826333
7740,-0.07910061091765312,0.11895010041256818,0.23902325349830653,-8.699594084393166,3.1510361035215526,14.033945511071865,99.45324654554165
7760,-0.028988019229570307,-0.012392674090876285,0.1419817841805092,-2.6905841672385864,7.437298956407263,-10.635281247799355,99.4430266127001
7780,-0.0217651887127599,0.02892448388551974,0.1772635255889979,-5.094523770208291,-4.5929422667595645,4.810033959217991,99.45990508134554
7800,0.00284625995114228,-0.017824654393660107,0.2047329585463896,1.249711704713341,-12.013173814697101,8.110883709610704,99.49279589770359
7820,0.022982847345310822,-0.01822669304755809,0.20553193030141761,1.202191450883922,-2.7922766761882274,-10.215602812442182,99.44684524851496
7840,0.007719590595425756,-0.033999733166068656,0.09478413024971322,4.355058681789934,13.572967232498907,18.375768993891903,99.4496781218407
7860,0.015404367483186418,0.005735494430672751,0.22432372918372412,1.8036614391613748,-24.659929901016568,-14.526575687296674,99.45213724774
7880,-0.01560279897598784,-0.12950519878708744,0.2141118675027476,-7.381343016627946,1.9620922317247476,19.74381895475276,99.44583941714093
7900,0.05924089600884294,-0.04665262135226788,0.21546334799955102,-4.648349348337343,16.026934267551372,22.56433471257299,99.44046394433414
7920,-0.014690673602128732,-0.008616601115160879,0.251687126883445,-1.5915817714328826,-26.321434004476007,-7.1807362213732375,99.45140314516719
7940,0.01725884482692432,0.026737455477547835,0.14455793311575588,-2.342309545862739,9.626934429063688,-6.9278440235970855,99.49322411687747
7960,-0.043187594264296025,0.03744577132318675,0.1512159839509572,-22.162973075807468,-1.7371897962993192,-3.731066149024337,99.46702766264877
7980,0.018800444918200494,0.0190040331769953,0.13534642835426247,-22.933480046580875,-1.6643346092041496,-0.7218467891516173,99.46219907093185
