timestamp_ms,acc_x,acc_y,acc_z,gyro_x,gyro_y,gyro_z,baro_m
0,-0.025362069518905895,0.07455300561307719,1.060886845276419,-7.117998481243701,-8.956629100938457,3.612506403210327,99.97862425206455
20,0.04451529655276595,-0.011231858965212518,0.9389466084658942,-5.502141475790079,2.5725758940231422,-13.827243229608982,99.97173909593032
40,-0.04889545087233459,0.04015699453040186,1.033188202604172,18.14925527597226,2.6585347515856186,11.785687690577982,99.97692631818555
60,-0.11227491765168812,0.04609103629070499,1.0169261717079745,-12.820643260313789,1.0324935362725987,12.286182245808071,100.04877582131853
80,-0.007632306083669317,-0.012240680528159515,1.044540242963878,14.171382141631064,-2.816759924633674,5.551562821052769,99.97039179474544
100,0.02807384293248283,0.027649132970627432,1.0138641140984668,-6.318815357308814,-5.264010591722612,-13.825177479306952,100.01578208372732
120,0.002222276468668202,0.004482902204485362,1.0278392491341017,3.2759191080722783,-9.180883462366676,-8.647726770928383,99.99508573508209
140,0.08233709500925618,0.02941892459862811,1.053813348941961,7.399269294538875,-5.9605822389127985,5.795787347058312,100.01317368354661
160,-0.0033335637309461017,0.041751194828533754,1.032579025647467,-19.038138649577256,4.354368642065755,13.778545963296784,99.96928462278467
180,0.0318419735077377,-0.03539432098460519,0.9662350865072233,7.951082232512466,2.1841482892415343,4.71357373382648,100.00448947050499
200,0.06902669275075589,0.029452345628223728,0.9269814084968918,-22.27715954979923,-6.520610787992054,28.68434318393846,100.02970715068687
220,0.002222681718258244,0.006742455072217913,1.0496066593096205,-24.89486617993569,7.855899995203349,16.833839166957347,100.01192483848425
240,-0.04080053844692816,-0.0752539099692526,1.0298314037121192,-10.191827827667415,3.0328672309099325,10.092157874128594,99.97492149060089
260,-0.028517172941733972,-0.01191831385684288,0.9899981274012423,-12.526179516863852,18.194148783862424,10.326986052630481,100.0140853416838
280,0.02901410688337255,0.0271095426492938,0.9121501609961875,-20.31507821232857,14.689672246541388,2.0191634151597038,100.00873536145521
300,0.0015829042513151982,0.00992761778085346,0.9761232201770026,2.0897404111906948,1.4835657960416484,-5.775815813432064,100.00541181654276
320,0.017743336564207898,0.0019905086255205223,0.9824837250789588,23.306202615005493,-9.806100104399256,1.9250070208578023,99.98413287178948
340,0.024329261523213425,-0.0025033596684144073,0.9797548427452892,20.013188961359525,8.376816662995076,15.079111126742587,100.00348541298807
360,0.01604699217884922,0.014269334771008835,0.956093624253498,-18.8945011232179,-11.838158191194076,17.447141555140682,100.00005275563693
380,0.058465706227713125,0.08003543642966071,1.1074762558603788,2.0290679498471684,-1.120898505346386,0.9514047911742851,99.9783564709383
400,0.09263543213136699,-0.026718752782935493,0.9547345738682945,-24.447284536098483,8.031785443036686,2.253623834531604,99.98325107380894
420,-0.06813913747207533,-0.032075050800382414,0.9562305986157356,15.037649263232026,-6.445613304251802,-3.1742140599753323,99.99028873322884
440,0.012387225993204638,0.03739212628728581,0.939633854058153,-6.441297637266629,2.7769486866399435,11.445600660646166,99.96474535021716
460,0.012289015306672105,0.043184328342104485,0.9970506125565226,13.29032713428969,6.69730768707336,-19.647511191488285,99.95722579315179
480,-0.049870981399629644,0.04033894009481658,1.0606270066269405,13.979670623429795,2.4636565865641487,-3.3591244161853147,99.97872777642552
500,0.02011652551433201,0.013322198224055684,0.9752864777763941,-5.482136060840149,3.2629444322573455,-6.291991960246971,99.99410450608434
520,-0.08058761710316553,0.009680465738273747,0.8642442525539066,4.592799983602393,7.116198754089461,2.6044296912129457,100.02214157815216
540,-0.012416242189482164,0.0966487089898334,0.9580640960096736,4.5145395959530275,-5.5251195297291655,-24.766128312259216,100.02695441178784
560,0.013058674787037353,0.06100592418709266,0.9922217622227024,-14.377733397037467,-15.81324948710887,11.215640726892433,99.99697269908292
580,-0.03569092859830206,-0.03708089616814155,0.9856921347648409,25.26436427472865,16.991510616922955,2.8374931977217637,100.02976713573683
600,0.11542140492161164,-0.04678012149673985,1.036220155119755,-1.0519357604694288,9.95805513431065,-8.231962073941592,100.01095379304718
620,-0.0623790508348262,-0.016293845929087364,1.0200446259832265,-18.241819766527758,-12.806339493170732,10.14321330100105,100.00770799809783
640,-0.10992858521395249,-0.004966121793018212,1.080518609235736,2.299368753608488,-20.179849354975385,-1.675101879375805,99.98870900767677
660,0.11356321305573405,-0.023815876194856738,0.946359216555152,10.68226915130539,-8.770969579708854,5.742982944065388,99.98903340980355
680,-0.06252352336194589,0.07688795719445622,0.9009380150081249,14.992699240003986,-16.397185161234937,-2.868966690638417,99.99179146170633
700,0.12048274009443714,-0.021476590479515698,1.0174909365025473,-3.2728315352007487,-11.194461466557676,7.860473292933012,99.99294773813283
720,-0.01889261249278091,-0.031281392225905987,1.1018778462809626,-17.030367717694496,-31.694041154685795,-16.383881316331475,100.03950978527493
740,0.01552404360806717,-0.03529548020388677,1.038907914989605,5.016767464871904,1.7199952366198041,-13.132319347869227,100.0330571476015
760,0.001045216545055821,-0.004203540505735899,0.9522828536330359,-7.996071610942895,-18.065854731956556,-8.639691703929657,100.01484244573986
780,0.04792091699848544,-0.12491068697265816,1.0086095380088431,11.887385171619542,7.492742104809538,-13.174510386883469,99.99907927482509
800,0.0030079607205576783,-0.08008718525457201,0.9963848170758972,21.388941928773505,1.6241831498617647,0.5399367076657426,99.97755761718821
820,0.013244806890899817,0.008843487254628054,0.9602046493995303,-3.9725502802465034,-11.368805747951248,-17.92779344754691,100.0164250124189
840,-0.027738873497915324,0.03246872717290314,0.9413927748247107,-19.04617429455292,-7.31848708132258,4.300475042073711,100.01180798879258
860,-0.08148204153716962,-0.007291853946173725,0.9968214290989273,15.54562247964886,0.8418149980484244,8.921349373782501,100.00992651248727
880,-0.08241237670210357,0.03364249371692531,0.9947782732293912,14.747415475069221,-18.998539715809784,-3.9315410106412134,100.01586723066906
900,0.06193026220126442,-0.037028772313268836,1.0383653142041611,-8.836932473551158,-0.7068977274211209,6.246893156990638,99.99962135513819
920,0.009288145732988484,-0.05239962211644899,1.0316607627207106,5.039950797402475,-6.123904834564064,-12.157769408437979,99.98375782836723
940,-0.13105002059046508,-0.07505931438579046,0.9588347837002605,1.0347788868387295,-18.002455172940785,3.330027587391006,99.99760135413506
960,-0.015925464056406154,0.0065606212762410205,0.9487005462528615,17.622400813773936,-22.303241227143666,-15.205717810976711,99.97743360222272
980,0.06168644568352826,0.08604700223623156,1.0221599709819469,-17.732231523707675,9.631059225064876,-1.7208166737566168,100.00506305372346
1000,-0.009632785144254068,-0.07657222099333123,1.066872633649462,-6.171197060310106,-22.040414151950735,-1.757559822142286,100.01274829781622
1020,0.014466049178709176,-0.022418729425956883,0.9454139840954376,-1.8576836964640764,-0.4680112917880615,-8.92882111236878,99.99760116576444
1040,0.001246104176136932,-0.08868473252440406,0.9907411151849953,-8.440326839691904,-7.723455637620425,0.43360961898489414,99.96224718120942
1060,0.027811163552707015,0.026885132660216873,1.0055145749523537,9.02072389863609,8.421505821201247,-0.648414692108114,100.03518565437862
1080,-0.0059207500338122505,0.0014694482507800661,1.0188020784832164,7.982445326915352,9.087923375440335,20.565907874714156,100.02016174009442
1100,0.04938260973580525,0.011713800117129454,0.9677101588089134,-3.4819099867608454,-11.282886635473957,11.785139973918135,100.0112378849242
1120,0.04886010748329738,0.021343164205918624,0.9601462466315814,1.2792560433428046,11.142327090808138,-7.1294412629990696,99.98960731353485
1140,-0.009949103595524044,0.01520670922299807,0.9655565484843457,8.77444965839215,3.5388910403203813,-20.753605024084095,100.02542385568402
1160,0.06790325744089734,0.025986452243421276,1.0090935131987961,18.427315227587663,-3.8283311900406196,10.324807606543928,100.02157116919453
1180,-0.022606164986799952,-0.0025908500515887537,1.018421907705719,2.8483866781670484,-12.072046793494767,-5.7949164349752325,100.00957013696245
1200,0.13441906682296187,0.02445113186411255,0.9290161392751022,-18.535482152302777,3.325880800508867,-24.765391838292686,100.02526381860709
1220,-0.05201945351594605,-0.04292343895360645,0.9825266015394096,15.922428429030731,-11.420897937812073,1.1986644374835123,99.94909230737149
1240,0.02719119958165748,0.11345903261703205,0.9337523697526366,-5.727533077478542,7.965465900247425,-2.321117551785921,100.01401245693069
1260,0.0607525927309904,-0.00701321605010552,1.0904694047905332,36.36647142714899,6.983320259179246,-8.234469627913482,99.99996442464086
1280,0.048161896445034685,0.06480894388832614,0.9302267093349772,1.0163081000130996,-9.638778752333508,30.373132977143207,100.00151612431415
1300,-0.03132239867988964,0.03480861190985884,1.0247431538544918,-16.05778550940924,10.248065742489356,2.7061289638848827,100.00300150170251
1320,0.015336481391445184,0.0212498485861687,1.0350825117803066,3.3356200884679836,3.093139181700533,-4.483777949365907,100.02007040544378
1340,0.02638631464859353,0.03040990742995064,1.017775567396533,-13.006553997622415,4.279834165929462,-2.379113305243221,99.98346306554319
1360,0.03503384994544038,-0.03902526686284179,1.0590793552636875,-23.27993420923619,-13.115174116314044,15.24972971821542,100.01971967096584
1380,0.03362320108228423,-0.03140557787581624,0.9676659594195137,-13.901328102055203,-3.8687748148847607,-0.6383239810317319,99.97626735464736
1400,0.027310449277980153,0.026066461690841477,1.0806633133573478,2.6083685751531944,19.4167387311879,8.648978323999243,100.0053504308125
1420,0.0438925271527171,-0.07291935831188788,1.0372334719374066,22.875491458466914,-28.44102309027417,7.457061799872929,100.0517282019351
1440,-0.06176610475489436,0.05110527401609451,0.9891563508207607,4.996068599448537,11.910774032629842,-1.3961073397375978,99.98068278253464
1460,0.015493386251404583,0.10174842816910717,0.9475627983767818,-7.273312333515454,-9.665236689847394,-4.12135815045197,100.01077281307082
1480,-0.025743096106508975,0.029421818722616795,1.0513480949278569,-3.6271087364994496,7.751927104320014,10.636728207846348,100.03998567432575
1500,-0.08885080779319528,0.0767558039203377,0.9112273131651507,7.694750772704175,21.732681777591097,-7.8754735438539,100.03064145983555
1520,0.05398831886119781,0.014458217606900562,0.9712083918363706,20.33885329433485,-22.1259687792681,-2.028127105848798,99.96785110213553
1540,-0.1169432797254249,-0.02909240766268873,1.0191816742769553,-2.2367121488354504,11.965302873021368,-3.9829743406721985,100.01483118981005
1560,0.014568683472867558,0.0772236761888595,0.9789316872447434,-20.338208683673525,15.5844808877821,10.77779668840439,99.99740912759752
1580,-0.01801332466760865,-0.07937503704564822,1.0124610371471494,-3.3961958661127425,10.239048452928568,21.15067730760392,99.93997513135368
1600,0.03761547162357123,-0.011125861305099946,0.9827324773890592,0.09182559723065307,2.0741100476110956,-13.76129087364696,100.00267777356562
1620,-0.025446302017969182,-0.006025529855175246,1.0707641932065628,-14.857723385197492,0.3827328465274197,16.744194702395653,99.99525030679953
1640,0.06944607031826333,-0.02001398905875211,0.9526853045182777,-12.25375789735519,5.09131688297379,-8.305081478583423,100.02535966404724
1660,-0.03555877955037281,0.008676918578941956,0.9917611864315987,20.468958498139834,-13.486956555767076,-19.7368455402127,99.98182841988347
1680,0.04527617051660452,0.05376223507388109,1.0455883828003247,3.5466634920802402,2.927737771618077,-27.809704102337477,99.9901773413042
1700,-0.07094336547118375,0.1222101869283337,0.9409831750654485,0.41490666974746904,-9.063411268725165,1.928918602119804,99.95739531966271
1720,0.04440114944998446,0.08384894241208768,0.9649213568521704,-9.528636340046894,-4.9296686659706435,15.24911980344882,99.99473549375124
1740,0.00011577633925285958,0.02699021233972866,1.0927386096262446,27.623683639244963,9.573773294113334,15.027551015342667,99.9954114323389
1760,-0.024842102604715782,0.025465590821724334,0.9872722477010292,-5.826058368679863,-9.150937743450601,-7.654569870059577,100.00871599049118
1780,0.029818717840321904,0.061105634922796075,1.0055230478630286,-11.268131074671572,-0.11481652931994349,41.69634751475478,100.03290811914472
1800,0.010365048643395176,0.06427846265398918,0.9821136098208816,6.7629125391107365,-9.984844327432144,4.2127871738342,99.98471166975804
1820,-0.10296209718229699,0.019049140714574697,0.9741264554516506,-3.337424191080459,14.111345204478305,-18.789327078090288,99.9555734441781
1840,0.08709647310518724,0.033589283731644985,0.964730038524267,2.4772897295621776,4.01527812976991,4.535159137742924,100.01677114908253
1860,0.02112749631911233,-0.014093424143780762,1.0196174980947978,-11.368433813070085,-10.134255463351193,-7.360585942871863,100.0096183701821
1880,0.03410249769032941,0.026143255079106177,1.034938033367158,-15.939173461686787,-25.958899666368787,9.197277536000914,100.01069800661688
1900,0.02882156630508429,0.03052986160390247,1.0742128003202012,3.1600056357675044,-2.9903959503206354,-1.723830430978805,99.97333224205785
1920,0.019637745900550077,-0.112810902701424,1.0724387327958675,0.6883463256467697,-2.8431187659861132,-7.903496392901088,100.00693243312082
1940,-0.06292018320433194,-0.029257020140291797,1.0009647728393525,4.820954359415648,-10.706289894725508,-16.89223562560185,100.01384792112826
1960,-0.10348837599518393,-0.019649319890391734,0.9633444966964713,11.569463790578197,11.374880934192124,8.406799973900267,100.03232019517111
1980,0.0287782505699627,0.02390163152193946,1.04025137258862,13.159574664604616,-1.0197638180915416,-8.00975089739206,100.00988276593337
2000,-0.06439374002812345,-0.035433708758410835,0.9906207807543574,-13.110791220308457,-1.995316817432979,-13.383276890069535,99.99932634521116
2020,-0.014648634725324843,0.01276952028868169,1.0067017869509778,-3.813297049651271,-20.695570918722158,14.242564868915021,100.00186681545448
2040,0.040499629742896434,0.015074006583155171,0.979482957849721,-22.639175289252247,-7.671098877670987,1.3413222083975276,99.99386116043213
2060,0.021251841711673797,-0.016830734414456705,1.0024537754491432,-6.397610471775652,-22.26087707833175,-9.705128565152986,100.00275445247992
2080,0.0399431366282429,0.0718904837609816,1.0372508603000588,-5.8719001556660775,7.374965590133092,-8.783749509454031,100.02683558975457
2100,0.07322451254022297,-0.0332977987619421,0.9767955106452264,7.629163326571826,-0.4526781026689179,3.0505599783954174,100.00776784467145
2120,-0.03245850063798924,0.05581385821252393,1.0604183668782123,-1.8493244711270962,-26.842885912434046,-2.4448580207901567,100.03042967854351
2140,-0.020463597113631424,-0.07737362891286988,0.9023226816878803,11.167772995392056,-4.974171305852721,-14.800062194048934,100.01001562729773
2160,-0.029010719094880177,0.11225175959365691,1.0342569289134587,-2.991577905073618,5.089484092720866,2.631409055366667,99.97865029070614
2180,-0.014008143039062804,-0.04389853573791676,1.1545685046077283,0.8262557110978695,-19.22841384393601,-10.186871267339276,100.00571290045258
2200,-0.04758165143562974,-0.04997211508481998,0.973572375750079,9.087225406699146,4.878267238625086,-6.037757316395035,100.0156238516482
2220,0.11938851188769761,-0.02017437126292411,0.9909796645623951,-18.391965349189547,-8.776899206254742,-7.061942911376461,100.01948874560574
2240,-0.006357408805747821,0.035318454496092826,1.024509846371252,7.865125607914886,2.297339285691012,11.722163620962581,100.00629232701522
2260,-0.02232159394234451,0.06074454954215103,1.0485088687180828,3.425165814272825,4.9043684868525625,20.270798417125988,100.00192477198205
2280,-0.055273677873172194,0.01832205492226628,1.0086346047889367,-20.629466625522316,12.315451125327511,-1.6717657554755165,100.02065264204764
2300,0.039882244976455046,-0.013820230813246737,0.9410661150572647,-3.643008326974301,-19.12724377075298,-1.0124150072842708,99.9740532275829
2320,0.0011885720613916831,-0.030330387238252488,1.0006507045428235,-6.901625844904615,-13.539843790103589,17.276166460556652,100.01913041786875
2340,-0.031136259277648227,0.016939740728533548,1.0064242137885793,-1.384631655054687,6.4360030054120205,-19.924100993674553,99.98191957374193
2360,-0.047061714246209516,-0.029840673365430965,1.1012183672791003,-8.531711406313939,25.026231309442423,-10.780201376183914,100.01888783887591
2380,-0.004646355170794308,0.056487808901065854,1.0182206269096248,-13.97014152834397,-1.6943419075403625,-5.499951653162382,100.01090436631529
2400,-0.00285517140758136,0.020142443396029955,1.080671258538142,5.3879970785994304,11.685682615916175,4.980094767527071,99.9847567490149
2420,-0.034918530462074535,0.029500522794647904,0.9854196461416689,-8.728515178695687,8.182414681663733,12.337902008019585,99.99354603742913
2440,-0.0492686573825715,0.038607525474410515,1.032484048174842,4.682829186037603,-12.229728496406828,1.2888369598774347,100.02155713816198
2460,0.004393106393656548,-0.012353959403056135,1.0845621786574462,-5.449670559628242,3.42538838958887,-7.275121482366812,99.99267881282613
2480,-0.012534230342666989,-0.01623441251996618,0.8839963487886727,-13.39094108800548,2.08349605155421,4.742543307930443,99.97290849890177
2500,-0.08281481663673716,0.03658040074982246,0.9357814206394237,-4.208728328792379,-16.6313172820299,6.518487569208007,99.98023742100985
2520,0.06020987541555839,0.05797939468576884,0.9024575781283934,11.248486133121714,1.5918521056437904,13.318938409055354,100.0209369577738
2540,-0.039077698662507675,-0.011794345469502587,1.0676605756323327,-8.549318983182703,-10.267159408834566,13.654939754575066,100.01991952399759
2560,-0.03678469010169405,-0.0097017937557828,0.9497252066571619,-0.141896970360025,20.243108977625116,0.12102442483359807,100.03806627156337
2580,0.004636928223436867,0.09788785480999926,1.070861129190716,3.886420444279926,19.251297985927877,-14.882578713008453,100.03001963982538
2600,-0.026649919818248435,0.00456408668215872,0.9596971926588574,9.676318329964491,3.431297582680222,4.3610098212922415,99.99551135530372
2620,0.00839781865840755,-0.02937080450390115,1.0007747996253629,-26.17758775864334,7.4689704313317575,-5.112698603244886,100.00814081881005
2640,-0.027228574164541792,-0.0019035164264090043,0.9895486617784115,-6.891280161425781,6.356769301457061,-4.399532612103699,100.0005198078579
2660,-0.05534239719288906,0.04183837786079259,0.9844284487939675,-5.100493553712992,-8.252714040792604,-3.7124028464182386,100.02400121533567
2680,-0.05459320138526019,0.07817511609989321,1.0057383819533476,-3.8008734108034634,-7.763113308213503,-1.6228992702640348,100.01344054235275
2700,0.040499804977663714,0.020205578891496424,1.0081084897013082,7.056482711186839,-19.126684128030835,-7.158821585304111,99.9905560741555
2720,-0.05244790870807378,0.03185359676906205,0.9521353428209063,-3.5144975745691696,8.120698685289751,-3.2995202157729446,99.97562284402005
2740,-0.02807001443625422,0.047750781861676465,1.0151093088287813,12.618741063448219,-8.40712634137855,24.58388100468434,100.02763979653709
2760,-0.011457207422516715,0.013705348144232066,0.8872435763554001,11.299315654644731,21.631540803105274,0.40188461519866064,100.0126163664957
2780,-0.004261105318165943,0.06750551522216207,0.9544432814285222,0.6663428404259203,12.704649209423994,-20.873785136170575,100.01615480753209
2800,-0.0564505400310911,-0.03048545389465014,0.970291177797776,-8.808608269241432,7.6205629156917345,13.112310740023611,99.98631301769676
2820,-0.06667929974986252,-0.053957074034377966,0.9667526847278349,-1.8169450882516074,-16.74003885931339,-3.857997105834057,100.01155238215506
2840,-0.07810073773153169,0.024227674551726905,0.9041825609872616,2.1439191277687604,-5.121717970252116,-12.816271264766138,99.99314818381634
2860,-0.0008435735375533368,-0.08164420453133175,1.0945675431252053,13.478825297860734,-24.488142103495086,-6.826065027067943,100.00059052371469
2880,0.08227547839795886,-0.09939067426611202,0.9049480229868925,-4.100330886365731,6.522943817735626,-7.664264043499636,99.9909049858981
2900,-0.022107908554830812,-0.025172455260206356,0.9743240402931735,5.514806063759217,-5.89306964223341,-6.3928854310508285,100.000189415183
2920,-0.0217699771230491,0.08195509146871226,1.0351900601251474,14.951763199406093,-19.351892920064085,2.7745036769849096,99.97019453894133
2940,-0.06393261279686725,-0.012419933760305127,0.8805738197739511,0.4011957521514714,6.717782985297781,-5.513567142159577,99.97169571331868
2960,0.027618355613894908,0.023135591520473064,1.0870369244621072,-9.442173259775227,1.3698030307544804,11.85336007915786,100.01281501174122
2980,0.06869585664326573,-0.03369491988748037,1.0670552512333737,25.726622586408762,5.915355693017241,-5.374104843156637,100.00051828142942
3000,1.9400702040182833,2.0129843201378743,4.306311475121023,338.660360204051,332.19997336095355,345.8201965462101,100.01487870752958
3020,1.9767408562854185,2.04475339481245,4.359301437473917,330.72414266989466,336.6013467648486,349.31839650413946,99.4774318063854
3040,1.9398859083985882,2.055593307299711,4.268765986437187,314.2667869003385,339.972719410221,336.4118478319413,99.44276640386342
3060,2.0763544096220494,2.054970568055747,4.367310541884994,347.9787637173289,341.4536303966356,340.97571089547125,99.45768541769792
3080,2.0454016356783136,1.993008044604108,4.310043758483824,345.76381280350864,339.7801111257101,330.39209484197016,99.44233745384078
3100,0.043211889894594846,0.04774749719510572,1.0211514981169836,329.987031302154,343.0274409614687,337.4072945419113,99.47827160267248
3120,-0.036735023421342876,0.018025420533915516,0.21506175386435858,345.73049149061245,333.8833264002315,338.1289589600095,99.4501422174857
3140,0.012812150984295901,0.0573376268217518,0.157103610124098,357.03874677955565,325.8238125943217,328.09822704438375,99.47567083963104
3160,-0.013989554789051312,0.0061699120589617795,0.24298255891066758,13.424952230244514,-5.523445438538816,17.219118935814333,99.46369965900506
3180,0.04567128120387188,-0.07851798694346013,0.11961171883321742,-5.276106800182264,-29.028274421155864,-21.34043924706255,99.46787296189035
3200,0.022721175434751648,0.0361567415267851,0.22145884229962534,5.770519271593434,6.037539730412119,-2.8313307754091843,99.44869975416015
3220,0.009360875689681752,0.0003136565187770949,0.17957333315722646,-15.29129627475892,-0.44020335313611114,-9.234584428599065,99.45794898333345
3240,-0.05160527973987773,-0.07250502575679503,0.1705827595774216,14.177718474062058,-7.234470463184506,15.02662015220149,99.46629571203812
3260,-0.03128547211748212,0.018609999998084423,0.22591772740934787,-13.229965425174594,5.863513417816633,5.948791731253733,99.49312189565003
3280,-0.03193349898507662,0.005966465666958104,0.1983528558482623,-2.779319465735907,-15.212966679534127,-5.197633467789936,99.4460137805046
3300,0.015299839516335659,-0.05600799338421392,0.17165125415809507,-6.206511796743994,13.6879163364165,10.238549451510675,99.43183121947979
3320,-0.02217444339097948,0.0036122529554662576,0.19734908005740917,5.310154520573345,1.9035226979216984,-11.978213382069317,99.43524258398956
3340,0.010788786332519576,0.010731732515068036,0.18201205997588063,13.140694594495148,0.4879651172443883,-10.598943262355007,99.48304139249937
3360,0.05466300727271376,0.11350013383512647,0.2327172035633306,-4.707325350238385,15.540338330089623,-20.974492642389983,99.43274922262349
3380,0.0045004761076009175,-0.030560340936354513,0.153042998421217,8.95361088514458,-4.528241266341226,1.0469259873719605,99.46752225423444
3400,0.0017862507110935806,0.022869345569772243,0.16386438243787865,-21.804810855971574,1.1736753046923998,-1.036257343387404,99.43795016232403
3420,0.06595342395752979,0.01535697972676502,0.22527223873877128,7.233361363748477,1.9409261130061592,7.2361371300297845,99.46136586397988
3440,-0.03316845040712879,-0.025241872463425248,0.260333031773387,-15.906346438255202,-13.906719250994534,-14.349343412864922,99.45245950500023
3460,0.0693511472138265,0.10312168865057665,0.19713148946051906,17.417890334504612,-3.649558536827673,-24.983169664336884,99.46051320874535
3480,-0.047529737433906455,0.030627771236775455,0.1222501225116903,0.6351908236080265,-6.348929446005604,-13.814802832363517,99.4158955588027
3500,-0.05781288616383201,0.06002805310361079,0.2086951389435304,-9.839745280166317,10.266811762955752,9.447962921025333,99.46242431496749
3520,0.12318448973861802,0.01430190319248017,0.20213438148644167,12.12445393347436,-10.943685556554737,-4.384838405875083,99.46251657494376
3540,-0.04105466769769217,-0.029283621602592475,0.20916694447246084,13.497988456556959,13.379312792307324,-0.7452819798121628,99.42108760227539
3560,0.02605420455079968,0.03474425112388211,0.16187901626679743,3.5981957301546315,7.853296768147702,-10.756873117114328,99.45168129270506
3580,-0.013428680406998418,0.0025748986215978972,0.1976739150705921,3.147007760220604,9.638975374092654,13.810116118053365,99.419423987027
3600,0.0009787732973737036,0.000656982137939264,0.2530962710963991,6.558393870241458,-9.656956964336617,8.938355125349634,99.43428681042731
3620,-0.061378065684665695,0.03167897135003512,0.28592861605616937,25.548114506754473,-11.86132046332834,-2.897144381392229,99.44927893652032
3640,0.0050015176113440895,0.10269485249472743,0.22599045856152278,-15.74329302628561,-26.785667144883092,-11.800065803458324,99.46484818623502
3660,0.12336432487624133,-0.04552954158230547,0.18988334437504795,2.803483269594499,14.794777865402223,8.194529931649905,99.4582863627041
3680,0.013581914293690892,0.011823463178484607,0.1911971985951791,-32.64584704195492,-19.086828105187358,-2.981053189869971,99.39570617325452
3700,0.11511491432477863,-0.03150062023010766,0.20670003307658105,-20.00591688892117,7.394866754250981,14.819238083506558,99.43971752393716
3720,-0.08923869109004759,0.004457760075754004,0.17782860080529111,11.505591529384178,-4.878945469145598,-10.932826155368765,99.4310914987637
3740,-0.11913938213040652,0.03768585187297606,0.17532882047024748,20.425103234560545,-0.6043295638967512,6.185878696044449,99.4450714698532
3760,0.06028976168960037,0.04581326430866035,0.20769185805477638,-17.635872079757682,-10.025139877591771,-5.906102244694214,99.4380313042265
3780,0.047149679908127684,-0.008104262267294061,0.22601376458241101,2.6777287788600654,4.580678347438832,6.363407600266042,99.47607909570803
3800,-0.007362865493490771,0.01650614401929255,0.20537188496852263,-8.035597505515028,18.45237392629431,7.606399822611582,99.43811405460977
3820,-0.006614772433000189,-0.037319054704785026,0.14574239616381912,9.418776385452858,-15.346292964913387,-26.319437578916066,99.44414995980769
3840,0.00878548286604854,-0.00353514712239496,0.30629941746516287,3.4646337679611174,-6.244117542172091,-5.433291074133627,99.44109741956544
3860,-0.07551580766390978,0.009603233265487022,0.17356555058172024,1.2868852064446599,-5.488332570545927,-7.150647651943521,99.46855745101344
3880,-0.00902829401873234,-0.047581465522125665,0.2611051862932951,-3.4364552147642558,-9.955115029934962,-4.364842062205895,99.47312526778397
3900,0.01710885507901207,-0.004175605724444152,0.22632453919559412,-6.5072083457214696,-0.8471563720688959,-10.391867860295905,99.46163960753505
3920,-0.025745791186768275,0.03827992249758873,0.18074975602814455,-19.641205859195914,11.356002410731485,-0.6601331435197654,99.48951931607839
3940,-0.015575891852281157,-0.08418172291843373,0.2096792845171786,8.276129050352916,-29.31663679909146,10.538702447703919,99.44171919225961
3960,0.019763104311920035,-0.02966220541440799,0.27366344599997083,-5.871954482846167,13.057749649205139,-4.929749126211771,99.44816511349613
3980,0.017707794643312694,0.11699492772221871,0.2278145044499993,10.957684295684484,3.54506235894344,-3.990638608288233,99.44410835434793
4000,-0.027296256352278465,-0.04528909916004296,0.15654143675566906,-9.59946392303424,16.71505521437213,-6.566207307429156,99.42588732044561
4019,0.027081032190076015,0.002269858002492089,0.2346428838533382,-0.06785703199077335,-7.688561487698273,-12.846752953231844,99.42563155027456
4040,-0.09527503349469413,0.058643189098411985,0.17084728938491606,-17.416031426013262,3.8417000679867046,-8.491918813372328,99.45705095087416
4059,-0.10863651221795156,0.024257899509504893,0.13856004506478012,8.16804655687443,0.37209631144381605,-7.959324568309603,99.43922499051303
4080,-0.028613528250092862,0.054847751174345684,0.23925156739132186,9.038320715762554,0.39399159720036464,-20.849330355552187,99.41754980090049
4100,-0.009124694126097729,0.008055701168732728,0.2364280072266443,-6.883470154444033,0.13083505645790777,3.4291374999820303,99.46760527747054
4120,-0.027801472280714487,-0.08852612031700482,0.17622618020956943,6.433096933281501,-2.8264088251843735,5.212266437694654,99.46432499069334
4140,-0.03944914206829363,0.05120705589156328,0.15472327758906226,-4.6066235739894195,0.5469528490128457,-6.464797720530161,99.41147031221915
4160,0.07566462740360835,0.013502991338656477,0.21932364718081754,2.9535567482951057,-1.4716960848006027,-10.768356423509886,99.40995034221324
4180,0.02087568931151681,-0.00828303920820178,0.12184005468096132,14.012712511369172,1.6281034367682385,-18.800196654931387,99.46387802533616
4200,-0.02155577542967867,0.12266051947557516,0.14876343596720137,13.60039807941645,14.107607090278073,-9.759394018755778,99.46490574815316
4220,-0.06419625201297739,-0.03457887307552791,0.21927996440576802,10.089827966275152,16.32716100821136,31.601167017059467,99.43627528341675
4240,0.02640298351869126,-0.07659472157685014,0.22527489295932313,-4.308173582330891,5.531744714525116,11.670343982480379,99.44117014668498
4260,0.05528883482643259,0.04104432468816862,0.14508620938302336,-21.580324923468414,-12.904500204100147,-19.935012889311064,99.43555886213049
4280,-0.03465919044242741,-0.018737467144331534,0.11183616166503019,-6.503679060666434,-6.900781376355118,-0.6565693190062928,99.4240996487523
4300,-0.023996235525757626,-0.09339345102704444,0.2318662521245152,-3.8646546556128607,-6.778187619989502,9.977071630924307,99.45516424557313
4320,-0.04637743657601156,-0.036068674207999626,0.2433112392666784,-8.054497062191817,16.338363271915107,6.834494841628443,99.45602936221071
4340,0.06182666616868135,-0.05607076639915781,0.19217405084740088,0.32518704861652026,-13.3750638641915,-2.124836092314454,99.452656406427
4360,0.04991240118247391,0.04125625887366103,0.24975508314245293,12.406717993548465,-13.064950266141839,-5.171302440942862,99.43257960471978
4380,0.12536896355381463,-0.08934011557586582,0.1414115180477987,-4.804240673393383,-7.430868532930469,24.468570982950762,99.4424773966269
4400,-0.08244532989759376,-0.019007066681822234,0.14224904259977167,4.279433473372616,11.82302971475582,14.509217845931925,99.44477143429566
4420,0.02902368817030637,0.02404192292692366,0.1568963567254008,-1.5265954630003833,-13.895722159979446,9.722484052318936,99.46432033916285
4440,-0.03405897961306826,-0.004291769907733815,0.2291921598018185,8.549368304401305,2.9084220303100756,-1.4844289293572839,99.44403459519795
4460,0.02574269824117774,0.04210231225468566,0.25783027979435547,-10.351013087947207,13.614869086142303,11.298891546410038,99.46872975930484
4480,0.0023807697378475158,-0.027901408972178993,0.21002445952991344,19.375713885687443,9.877145483252383,9.41752960072746,99.44201922813406
4500,0.005918157702206991,-0.030816039564435318,0.2620469939730718,1.2621794703606417,3.591971817690604,-7.7650754904176225,99.47968534993748
4520,-0.06965025532810024,0.011713424037123991,0.27869512440366007,7.638519105555774,-8.532606266796689,-13.954515216122683,99.46426897704247
4540,0.04699705889087791,-0.044952903370881356,0.2360811620022795,-18.2543408223348,-4.8855886037928675,16.467476717156977,99.43689945480772
4560,-0.0007339206116963402,0.013760452986571019,0.24072441030600394,13.39962896520185,3.658575514641715,-23.923597873183994,99.42581318334194
4580,-0.08075952064397157,-0.14268711855043306,0.20683147679483924,1.1949345469604205,11.824905195925034,-8.058556557147533,99.46069215945504
4600,0.016281038295887156,0.015313074633463873,0.2529129860254404,-6.501289090619165,-9.824069358044014,18.50380302225116,99.46284715453605
4620,-0.013422329703422982,0.08344409367228693,0.13695630549312457,11.908114349767462,-0.9701649624599313,0.7352513404830718,99.44847264111442
4640,-0.02125556970488663,0.06860034934857548,0.13895086728268286,12.26200757324365,24.93423054308434,-5.30394251694926,99.4588648065659
4660,-0.016358551603242726,0.049623553077671856,0.2663654959208028,-6.201670164608808,-5.112530704534494,9.250291739550914,99.43774825440492
4680,-0.03194437141362414,-0.03059602425080927,0.2649729062928598,6.564761336229659,0.06260494588268818,-2.1326832618659237,99.46428702358948
4700,0.03625491712785835,-0.03432350270798362,0.16035699480687307,-20.898896426358178,-7.886075468061092,-22.639568959130017,99.43587587106617
4720,0.02837224363472329,-0.013948738533817107,0.28056819854292103,16.869610796017817,-2.5767166621880397,5.147267058280968,99.45251391411391
4740,0.015145622937333007,-0.02582022588521863,0.22890748248492995,7.9320318563559615,12.440614474743782,-4.272376375795135,99.4303673181715
4760,0.056213012379257715,-0.051623200673517014,0.20192558293837873,-1.5137550718375388,2.3766443716504364,-9.54507638403255,99.44056717653866
4780,-0.024925633393584626,0.06509374358774508,0.21162638566503633,9.279024371306056,19.154532523999286,-3.2243365224482288,99.43722490871625
4800,-0.030954243334657496,0.005107035532202777,0.18140519708586736,8.861568731107326,-12.078204689272502,6.104880183936649,99.44034183574806
4820,0.005068536900852518,0.07586446400570371,0.1634859525700963,13.220600503995557,9.273098463844292,-2.9937489460786817,99.40500558806717
4840,-0.02237749482842516,0.04794168390526088,0.15467023091742813,-7.1346280842016565,2.7849566545265882,9.86922113778181,99.44077672881669
4860,0.021720480235093556,0.07030489921172454,0.26557541776282845,-3.7292315119393082,23.30508529839179,-3.499989905268826,99.4808259678458
4880,0.07389018433892791,-0.02751498345969934,0.16971335210489144,4.797266363519477,7.303983496882352,11.93623688262454,99.4437230243149
4900,0.07773532691941201,-0.01046506187545003,0.18516398494975342,26.691182974420837,11.40618497725486,0.4852147989400001,99.4414807493802
4920,0.0226763296966505,0.031205531303680364,0.24723954023732816,-1.8443399571037808,15.257431105024745,-19.793070225094045,99.42543030955753
4940,-0.0060826488006158535,0.017328540644262775,0.24497044772909168,-2.2816146677036793,-10.126313656521063,2.7218664003785284,99.44384757837844
4960,-0.03621813382971212,-0.016599492277885257,0.2958872575173146,-22.07326259169851,-2.156687364446279,-10.955101166404981,99.42088532210656
4980,0.08411312965533559,-0.004868896237326351,0.2424486722522114,22.699326317835755,18.60444074012165,14.503106491456267,99.44382413244374
5000,0.07933568143222217,-0.016937056950965115,0.16812063914701675,7.596956129314579,16.21905730961408,7.314217647356301,99.47975530581807
5020,-0.02105546740164438,-0.017445697312498277,0.22404094668089067,-27.583154239035558,17.791282826738243,-10.306402558831403,99.47321594436633
5040,-0.005783954670249232,0.06705990962780146,0.24384593054429698,13.079885267446251,20.54990891459122,17.13890163752677,99.41422748917117
5060,0.044798907712593594,-0.09736565213462312,0.20700560377104119,22.593516297843035,0.15432015831811785,-10.563064260854375,99.4512662535788
5080,0.02317996833493205,0.049617577982897315,0.1321606731352024,-3.865094153287746,9.726542144025604,-7.27860312179409,99.44458670338447
5100,-0.04211424258118476,-0.044799200170669184,0.17054740111385233,-13.51790215758676,1.6119277291583098,-0.4823098944255376,99.44990706180033
5120,-0.014316439474401272,0.005221152100301369,0.18140414089917425,-3.5068946222539203,-16.05536329018438,6.066230652071967,99.45832342215084
5140,-0.02386041313527609,0.017860669468035873,0.17541905606574348,8.039639154270953,0.46939339001687125,-17.88033801415988,99.42791636581836
5160,-0.01859580069469668,-0.0681605032180693,0.20054863072616913,-10.742415439525688,-6.601548610651139,-15.734030630891269,99.45754132399681
5180,-0.05351309002890186,0.021941810219473543,0.19782470141882053,-6.486657608557214,-5.087126855238884,13.419277234375969,99.46525170743936
5200,-0.06471153907903328,0.030078227458015135,0.15224500792497742,-6.705025980489506,8.235148584656631,1.4391380465436479,99.43056648714614
5220,-0.022179757448017385,-0.059797289744052275,0.19437639225911157,2.349428384397455,2.0579785561503345,-7.928111934541314,99.41464064964697
5240,-0.07975959592681245,0.007384425642045835,0.20055554471300233,-7.942951416449825,8.016982452874986,15.530616932655906,99.43764110003147
5260,-0.05481058448963494,0.056095971170379524,0.23524878171624575,7.250973394634288,16.75633843441462,12.662228754960406,99.42246037416876
5280,-0.02967975808539441,-0.05373572029190193,0.21743882360358233,-11.057159645977634,-10.418951017956344,9.99598043398631,99.47660351311234
5300,0.018382800179202033,0.01791187578407422,0.18054099766682205,4.937298688725536,4.1192693839448875,-8.399983829304366,99.42440486504412
5320,-0.029649486770235173,-0.03999360422820026,0.21664348525694987,-16.94523156303874,-13.403315475291878,14.734529526616292,99.44905488154618
5340,0.08596299971908371,0.035136378012655775,0.1507618667079383,-14.286060162014344,-32.81107289344013,2.6988430175502307,99.44838000109623
5360,-0.04778569724874567,0.06254497386133094,0.2053887482067925,-7.053624722070431,-15.57608854437727,13.14866313839719,99.46403496188356
5380,-0.00680810442752186,0.03979661020197211,0.1863649334783357,-21.051909854939034,19.64416970934649,7.316821561829577,99.4014703221944
5400,0.08098644519230384,0.08628703810873058,0.08350516739844326,-4.170812884932559,-4.596087321612771,-3.0073303997755847,99.4406333495282
5420,-0.0280084437112859,-0.06146941406522294,0.1890756382847336,2.442821639756879,-11.616887328521203,-13.021632420950322,99.43762060993
5440,0.05284041541638893,-0.0008633619241041985,0.11242955005877855,-12.545979376962542,3.566313041051898,-5.277501859262275,99.45350152738143
5460,0.014497209779904409,-0.10159443896871137,0.17518279410188922,-14.81770595589052,-3.264145163157643,-10.44482528889308,99.46450575234898
5480,-0.06153051199041968,0.010470881139633027,0.21814770539992023,-2.0878484037427354,7.475898932944486,9.74965818567696,99.45352196254399
5500,-0.008801970783672728,0.03729074495423866,0.12534113582086837,6.155712371279876,-5.665476904926716,1.9712550499874066,99.47749029577531
5520,-0.003646380796258449,-0.043739224264559284,0.23414036058164578,0.1682068285851509,5.066167399108974,-21.281795017166086,99.41661674355394
5540,-0.09014702280455592,-0.08948515307949773,0.2540805505951075,6.161175467890352,-3.5386014775234607,5.845786242503584,99.44970287140198
5560,-0.032506155261049996,0.023862212263142914,0.22959233579016225,11.161997233753938,-1.3360050350585113,-2.5884641262458086,99.43210354373649
5580,0.01200961984015228,-0.01793466804261087,0.27933637754805696,3.286970509854793,-13.657753118180157,27.64941180964845,99.46427600872768
5600,-0.03340668165681293,0.028584812768663106,0.2422105376491122,5.293390960124864,-3.3011971605017942,6.0996800615647455,99.46444562308656
5620,-0.05733830816795943,-0.03947801458536202,0.2066666156578378,-0.6197788804598781,-4.235393949109322,-32.792850703473356,99.45256575515934
5640,0.022055058429850838,0.010917472326558646,0.20874610258154108,-16.728372768720572,7.511109425699633,-3.820667060367012,99.44396816789276
5660,-0.057857485971345136,0.0511224987983946,0.24874784920890639,-10.287555201236893,7.451503968017165,8.736749567495053,99.44584807061827
5680,0.03896455548545246,0.06403963708065881,0.19663573837912632,-7.9149167503268565,-11.346644511847403,10.785960609071807,99.44727108195265
5700,0.05560658616673217,0.03127180645291348,0.1841244362011021,-8.713915208280106,-9.541219761958134,11.193273410582089,99.46835241645107
5720,-0.027531774416573125,0.0292525309470307,0.1877628153515885,-3.109344845140479,5.083342822035746,28.598251107296903,99.44113781972018
5740,0.004579743945453735,-0.014279876765500191,0.21508754067760383,-3.0344148066201835,-7.011705115714392,2.545897460660786,99.43216557583864
5760,-0.026920969210644394,-0.08252189347425998,0.12268976960034617,12.174030496847237,8.99990458040733,17.697270211976495,99.45484592297215
5780,0.09241438059427501,0.002148034044006524,0.22137535629910632,23.695250418196657,6.674282761109438,20.848917314548746,99.4785707100784
5800,0.026838038438142326,-0.0017339033115383769,0.1995591966313284,-5.9145556761404166,-12.538845885074075,7.3656201467076,99.4577150872808
5820,0.07552770783844803,0.08816637438479141,0.1878974597028505,0.740006177632457,-9.164948086224367,6.972524549659296,99.42228866834009
5840,0.0746571126491072,-0.06449160853214449,0.23720442996168017,-1.4271302045853727,2.1980821857423787,-10.55290942066657,99.44804778044737
5860,0.010773134231050906,0.05859113144900085,0.18937416750181657,-9.543472660389988,-23.61791876772128,8.162806987244977,99.42342234590565
5880,0.023913747636445937,0.058098761393379876,0.15266441185007645,2.252275801619195,11.470325592803535,-0.6954069142117869,99.43465885985857
5900,0.02354297313907816,0.046998086054840287,0.20984900558101127,-1.7447595893914705,44.99509554161227,24.402358601469174,99.45572331619685
5920,-0.06908019782061227,0.002344172683726083,0.11681131323663729,-1.8226712028203185,-0.880184264831052,-3.701533876978165,99.47985078114542
5940,0.049006941132582596,0.013442612913834195,0.2415241610206609,11.229009244536915,5.1632903094017495,2.2386661240323558,99.44025021939481
5960,-0.062449227736437185,0.012075830349436874,0.19233798912686145,25.440500402644123,-21.603829944100664,4.864378566244694,99.46792154688677
5980,0.10408247458463848,0.01620578067074472,0.21063625067527778,-5.21482138960797,-13.562713845231102,-3.0757134663319126,99.43172045409452
6000,-0.090776071203955,-0.030343954090680744,0.10270520316535421,20.805058349363126,-4.445827580295614,6.905164000256221,99.4694750427737
6020,0.07643464159566249,0.07509439341531285,0.2087566604197533,-0.8967916415945052,4.905697344251213,21.744685317145006,99.46500213216233
6040,-0.0726066088977222,-0.01841989999655391,0.22948956397401812,2.7526016581635693,12.667272142654571,-2.77089664697648,99.45580002909226
6060,0.0034147750991886843,0.06785188789439402,0.21118412514802254,2.774001512586491,-1.093569544113429,-0.055765521313030926,99.44756971685719
6080,0.04781645078379631,0.06513472242146955,0.16987974695363173,-2.516141910237714,-5.793877618563258,-9.797257377470736,99.4643278778475
6100,0.004682466038183192,-0.02402419796576198,0.13415991420966494,-6.504826041641243,5.995952303666304,-8.485787199806849,99.42723985845136
6120,-0.02661845117783046,0.09406739699271736,0.24927031704582794,12.479132009473906,-8.725426778787737,-8.365531159572917,99.47273342304923
6140,0.03126426863261078,-0.05388040990280266,0.2633209455043582,-5.346464880781118,-3.2297168533743204,-17.228870102778814,99.44937826204918
6160,-0.00473802845886966,0.01989631803581797,0.18586818668235278,-9.56557550133362,-1.787117793066242,-15.885915397130713,99.46332614809155
6180,0.006339650954063452,0.04925066243544001,0.21534792329423144,7.1633889747418955,6.700483636158865,17.49875741030168,99.46674484962155
6200,0.07752243458546061,0.021781581774484082,0.19561626028401374,0.4855132936511073,-5.351921836184187,-1.412414952251359,99.4668754202085
6220,0.027459920169478264,0.05612460116917365,0.2217108029240944,-2.4344021105411815,10.670976167202424,-19.362553173524258,99.4617958656476
6240,0.0027313577621191553,0.09679334041687197,0.12099643413581035,-1.7868964097035818,-2.552488214432552,-2.5906540273283056,99.4655199764624
6260,0.04240503268171694,0.008440343468820508,0.19120574993319442,-9.61507773600891,7.163222492135964,-26.581642692387653,99.47224096905285
6280,0.07592835977941048,-0.010044628684674022,0.16645675381291647,-5.419160118434216,15.175198600688082,13.804451403997788,99.45663683493945
6300,-0.013226871158092951,-0.0011535845561650362,0.23346266512032096,16.12065569848115,-16.092554613280058,-3.0704709381339166,99.47300774455611
6320,-0.03237119582759059,-0.03371983615631584,0.17183368609098743,-3.733923407632462,8.664821171926526,0.28545958530393944,99.46872901350643
6340,-0.08991080674393016,0.03625534735621037,0.2053098449141017,6.68723041503384,-19.563413617843985,-29.237664431310442,99.44014631529903
6360,0.04316422174428167,0.023764228311926282,0.237103774837579,-1.7773580685269548,-0.7394243451806861,8.656459405031693,99.4626905050227
6380,-0.00015963096488188673,-0.031046176464626526,0.16594727317316896,4.231727375069976,-36.67518432941459,1.435922424153746,99.4367587401143
6400,0.04175057764648332,0.030257855876940073,0.2822495306800531,-6.817911957893294,20.60528161578953,-0.7417157849528355,99.47755703287598
6420,0.009725002951459458,0.06472605957919293,0.16011043352810544,6.1335556955027855,10.778103482568428,0.915668797185347,99.45357022052097
6440,-0.0661712865712912,-0.06418081020055819,0.20760464854443117,-8.575727640996487,17.742480028311235,11.542909388479085,99.42349080833564
6460,0.0018712131672575954,0.003433730793036903,0.1871159941411735,-11.356024181654988,-7.4324952874217125,9.080181405984288,99.48029455061962
6480,0.021947221134382452,-0.10870284716093877,0.18871807787755884,-0.5594167667351414,15.602955557902133,-9.501194245392696,99.42942735359598
6500,-0.019118973539379552,-0.012469989734628394,0.21063813615216317,-11.81702586262099,-22.731993734975397,9.655004492483577,99.4577393912151
6520,0.015091759005470369,0.04408236041174541,0.2094975783447528,6.1012395077273975,-4.16375155024974,1.9564655966648075,99.49443948829983
6540,-0.04258256763371877,-0.060733704078350194,0.17932382535311214,-2.1127697644246455,-13.873176908939747,-21.51458610286703,99.45524718623
6560,0.0759315701550116,0.05228296488728551,0.18917335844759245,-0.21474565098396078,10.460677557224287,-0.12816170820727554,99.41180774535158
6580,0.05564985140840826,-0.07964884989709313,0.1758086590198945,-7.998512439424589,-7.968529626435268,18.274743450194382,99.47634771054446
6600,0.02596701051389242,-0.03462085858122885,0.24987918792787667,-11.355146836793722,-27.883574039703603,-1.7725153432347667,99.40339019380498
6620,0.041007840556205793,-0.01617716715491891,0.25700661443801337,-6.361692561072972,6.283636973992125,-7.010830755299347,99.43401984580701
6640,0.013122351273525547,0.06104886113515007,0.1917595870399224,-3.734338197175846,26.500858943835816,10.128093595279562,99.43445818743263
6660,-0.05050394916772555,0.00795156316000304,0.12728888134364869,1.8784070046352155,13.312536146664957,-5.7185531320943355,99.44419845248441
6680,-0.1428755026174982,0.023037024016703232,0.19193326314076303,-12.414313823463257,8.021599417586515,-9.209879168584145,99.44412968588772
6700,0.011341346364956604,-0.06334157485382749,0.17543652663619705,2.9189400443513733,3.545852369420002,-2.490815032918308,99.4245470527102
6720,0.08629424459121426,-0.0167454067984709,0.176116299662246,-12.17130951222319,-16.827810741243333,-0.30166235387505597,99.45302175186706
6740,-0.04060014595462047,0.10337438678659172,0.18503087812773555,-14.07375856673141,18.753632228195592,-7.7042735640361215,99.44547739975637
6760,-0.032590418090434274,-0.09438468935495146,0.17828170408543578,8.134733798884088,-6.730679343608971,-7.3500765965104335,99.42281132732691
6780,0.04515448175753501,-0.1476594912395434,0.16302864305617507,23.685732282086917,19.607321289352146,5.414947720616885,99.46324224375091
6800,0.11619695531586936,-0.06623636591901562,0.20234847105929232,2.083640945905189,6.801536911137631,-1.3733358133846543,99.41141264286219
6820,-0.0005943374175345398,0.06335594432803957,0.17445596032090205,-8.683479958163261,-2.606503482089308,8.291841200515844,99.44334344597947
6840,-0.0011874155364461785,-0.000831510297529421,0.28420581118032073,11.399334846305452,14.219896804418001,-2.422445932874507,99.47674619304281
6860,-0.02804127873483145,-0.0030502832228580566,0.15142311814347073,7.278111563544847,-6.341357041671294,-28.11043247984317,99.41326945734488
6880,0.08508986159720382,0.01743636355072144,0.24476794065647328,3.2608299209665796,13.81005146441668,4.169786872976649,99.45167541004658
6900,0.007901063638825518,0.07963127799601301,0.19473965766388254,8.98446309245897,-1.6594142999724228,6.8863651354927935,99.44061166525378
6920,-0.06380435691176481,-6.206726425425915e-05,0.1440423166770805,-11.273463611267465,15.692718440565574,-8.333581703059426,99.46098182310863
6940,-0.08746151822003197,-0.013362198529013374,0.20256168675225064,4.517937806595972,-8.97606844058163,6.0047338334284746,99.45278323729096
6960,-0.07537656262600717,-0.040636414314770206,0.17928525445049814,-18.506410796026444,16.357465807952803,-3.3255196490610253,99.43486946193943
6980,0.04153540752418933,-0.024487284796590868,0.13792960379451508,6.450612378661706,-1.9293158886312551,-6.4703915121634745,99.44339326645792
7000,-0.02646076928815197,0.007991855935535476,0.23308062713512018,1.2473671749787443,2.4979711548059917,10.278182747977135,99.45834362767623
7020,0.02850309075701334,0.05423326504737465,0.22640650195852322,6.993948028086536,-0.5922994688206678,-10.296745948688677,99.45938444001804
7040,0.04838712183796729,-0.0407571228492999,0.2168049840758405,1.0349513476204155,0.3395349200058788,-9.720166455208608,99.51674056400122
7060,0.1655553701164931,-0.05913802652284836,0.1456881152544132,1.8454034451621792,-9.131536086228362,-17.511144110799815,99.49603953137601
7080,-0.02757304650962932,-0.02442695875840785,0.24598146568765802,3.213200437141823,-12.827812304275724,-0.3556135806229055,99.41899376144255
7100,0.06741655520465956,-0.048216276727671245,0.1351417214156011,-11.039831693937225,2.908051077296209,4.121138111159013,99.45975955607297
7120,0.011596338433327049,-0.061047787624988116,0.25013641438911116,-4.793245534470563,-9.092388291002496,14.47711548972597,99.46423726824369
7140,0.11112563988657674,0.024661572142170865,0.23171786249634346,-9.369655904407129,-3.325403644035725,-5.272343378834851,99.46055190001984
7160,-0.003910319985491242,0.07982092926711565,0.18909309590681697,-20.400038597338323,-7.027773888978151,17.232176496349904,99.49087752406574
7180,0.042801690445544216,0.005660682031605893,0.18674857160874866,-6.311305142238462,4.147595865651908,-0.9052710585350991,99.4571583952225
7200,-0.020888046826275042,0.027163097247929147,0.20739208607888399,-8.66803751752791,-21.00106834736515,-9.155929829843314,99.45616992059422
7220,0.03096157507958862,0.0011979433073305065,0.22195124805513775,14.324061643812732,-3.8835163394743755,-0.504100611501699,99.45153937782337
7240,0.04627039885402326,-0.09303380656025169,0.11013387858738242,12.138250551565813,-0.33556287398486173,-3.0175516880679485,99.4996178009918
7260,0.016723698596494734,-0.0018244948364626566,0.23675341357738997,13.779653017380495,-14.106273196978698,17.343889648607828,99.46027648770507
7280,0.07496856025541314,0.018880892136157925,0.15909904226625843,-7.7416209815971175,-18.58193987424245,-12.696973010903719,99.4424834509517
7300,-0.03168633816141569,0.07994054017206237,0.1831739488140189,6.55016674621886,-28.175421295407016,-21.915773393041412,99.45582009111648
7320,0.06808765912121315,-0.06793633727849843,0.19430845000965566,8.636683795410795,0.6217078124125568,8.59432786525589,99.4338520931832
7340,0.043994864623297235,-0.04756333722000153,0.22020839031873982,-5.034214330823396,16.680213614764952,19.937358195235255,99.44241717208367
7360,0.10456172676344595,-0.00349518160671349,0.1805170093816973,-14.656873991761396,-5.470849604533299,7.598113493597069,99.45211814379587
7380,0.007899400545373218,0.07556205789863138,0.14355973594802168,-6.310309363266871,14.04852519290388,-16.706532176388954,99.42548860719712
7400,-0.05267886867714743,-0.024047583122689186,0.16956949818061928,8.419486334517988,1.332175475686081,-1.6509078945031432,99.4441993244958
7420,-0.00990921058200769,0.05576636644475778,0.1874207303561077,1.4422618486518384,-26.92823499986139,-3.5537040708047156,99.43513758411909
7440,0.025302574523838918,-0.031140291845388576,0.252562584487472,21.28087362917299,7.823997834070754,-5.411775724729668,99.41811441596502
7460,0.05738589765902372,0.030942506948099663,0.1408129027020364,1.6104983615491888,-1.0374619179186841,25.53146043870175,99.44734271677856
7480,-0.0018307206766032598,-0.04470096565913898,0.22731327347155125,-0.4877655061645934,9.45061467249226,0.09116550113440175,99.46396362344635
7500,0.04017604729015748,-0.12559711920283997,0.1679305380070534,-15.673328007013147,-13.86207180469669,6.205411872384409,99.45255482755509
7520,-0.04019564482937473,-0.040547799401949094,0.240531931405849,-2.6502902982263588,-3.132529726339733,13.86982217736773,99.42857367938764
7540,0.10988400369593708,0.00899715315844288,0.23771496854923135,-18.962787116189478,2.9810200599266676,13.24650354485058,99.44029661636061
7560,0.009315250908474897,0.06871739297444217,0.18442909326364135,-16.672385842920967,-2.648745512246959,1.4087746197915327,99.46056235728413
7580,0.012962977095797369,0.03265133135335166,0.20387803170422605,-8.080087158492255,-13.8861062483787,-7.817991835973242,99.49030009646175
7600,0.03006232005504807,0.010663914456389208,0.09247549908331953,-20.80098886699752,-0.6352188316977168,-5.348886738887302,99.4575130311567
7620,-0.021736927392858627,0.06677230518772927,0.25696476336951246,14.42090275903374,-13.152543278344893,-0.17826097177845007,99.46500851399315
7640,-0.010850096217947663,0.04067466899198141,0.17373146733021283,-9.44438538837222,-9.482925107416916,-2.035560537323543,99.45400975680431
7660,0.04359048736036284,-0.02785046293025637,0.18012256181806036,9.590709732605028,11.440622328757833,-10.146921992555288,99.46775943798787
7680,0.004742313297031944,-0.05364682311805413,0.14157633646741724,26.853543492413284,9.676617722230223,7.571355906120942,99.45944973313247
7700,0.024560910198779776,-0.001130253787004366,0.25621812120183796,-12.812999483169744,-13.76208728544491,-7.346061231905319,99.46450570912849
7720,0.032299624506782997,-0.07622707390627374,0.15594244913506133,-3.023514826805055,-1.3555551954423994,17.474584636977102,99.43174850639342
7740,-0.07814456034670814,0.03662951795886929,0.06558372109956465,3.435606627967611,15.326898632552734,-2.8683043939454094,99.45126546634677
7760,-0.1332705384761974,0.022168227365261993,0.21070840648478512,-1.1078295425092954,3.441194421404929,-20.399201308184324,99.46225959896763
7780,-0.047455431011943355,0.041266265376092744,0.22101460540825604,11.830480780247722,-7.118316470693289,15.201625590444957,99.48519562822452
7800,-0.008362198915005772,-0.03676810005041459,0.19547636394847415,-1.7368601870432174,-10.454396004635807,6.44250306730253,99.47863480163657
7820,0.040687630294803975,0.08568849537419326,0.19753017692177005,-5.699661505461862,4.7582580779745225,27.267134232084523,99.46961200723817
7840,0.028192843590203923,0.04557952427994871,0.2067871210484898,3.4805656943909495,10.526540829393653,12.472832443921547,99.4560655011774
7860,-0.016978822517608863,0.0375063797717518,0.1666176576832056,-1.6159348853812086,-5.78297885501747,-2.7968415580962724,99.45568497348957
7880,-0.04247959372967864,0.008323103549681497,0.17649296408332527,1.32264962102612,-22.635200342791126,6.192764872691411,99.45442190073773
7900,-0.016661717535398524,0.05132882088787433,0.22000772037686964,-11.233350237315832,12.488509370788446,12.981656114322654,99.45321939170567
7920,0.02373690153721939,-0.06413307108246173,0.2224891126979611,-4.369397681234298,-6.007724980564294,-12.651894590447398,99.43010605563973
7940,-0.02656016722853793,-0.005706342572405678,0.1989890005977329,5.507134846784476,-2.9362584891035337,-1.0514253337548767,99.46149228031236
7960,-0.0445221586301033,0.024067543410706563,0.1962331528724528,-11.04194847509116,-15.955996163309496,7.381484555884383,99.4606684546639
7980,-0.0756327000586336,0.02390913236953389,0.20980215346782247,-2.313620248472418,1.3070007607379577,-5.34749057250372,99.46909166379483
