timestamp_ms,acc_x,acc_y,acc_z,gyro_x,gyro_y,gyro_z,baro_m
0,-0.040827560150560493,0.06731906057957603,0.9792089842005193,1.2840397499561143,-19.58047911681273,15.861551567803712,99.9905890470447
20,-0.041696264295590646,-0.03285017601473986,0.9944323986648972,0.9922382151952103,-14.121468906674075,13.87619382001404,100.02057752900299
40,-0.056033075189712116,0.13146927450222853,1.0246001241057499,11.774441472468965,-17.40279155932079,13.316921472731956,100.00684281167496
60,-0.019352217198856075,0.11730116031126865,0.8984875311895,-7.341917530055051,-11.746211567444409,8.802124308438266,100.00061114322368
80,0.10561877251843355,0.026489461754919164,1.087806027848792,-8.83143447881899,-17.66770024052675,-7.255041782431093,100.03960069705532
100,-0.008282605941721853,-0.0974762295540802,1.0473503796755337,-5.309271819111732,-0.4986036263430771,-9.76079936471561,100.00645413581455
120,-0.07106279575118042,0.04008958535104605,0.8689703836237587,2.398661995572193,3.6702282831017907,-0.503489193156839,100.01114869656342
140,0.1388802646281722,-0.042065721183987034,0.9402859374787682,-0.5303763228092254,-31.052716408470996,2.344454924405057,100.03389132547936
160,0.06456811612283131,0.0023971520652130082,1.0732335825510855,-12.30434591214669,-19.845462835447467,-2.251199351455586,100.03986966175296
180,0.00036773834104345855,-0.04065027462498034,1.0071822224555715,-20.637627324108372,1.4584879181844128,21.013100406920593,100.00610660536329
200,0.04775221192461366,0.014485250784349242,1.1158277024990237,13.896983366936052,-4.573505991166087,-16.518654102861678,99.98715909017558
220,-0.04423909180067153,0.06895761098304902,0.9711601078610216,1.6833049702754113,-4.729382296800515,9.810540770910563,100.00001960646158
240,0.05084142683195349,-0.04140091618696776,1.0565307469407488,-10.333302527487058,-8.991560961328975,-7.478317817597439,100.01653904482744
260,-0.08632169083892077,-0.008949214540575718,0.9829211712185967,13.544179944523693,12.646053898738312,-3.0464557945240927,100.00412482611125
280,-0.00898211486971211,0.07132833370011918,0.9853366310303323,8.766203276672764,-6.695715908553318,2.9304199454382136,99.99534298244767
300,-0.001449731510840309,-0.07360591335316868,0.9531959592964514,-12.469537586477,1.9851402398588935,-3.698955096921217,99.97139006962551
320,0.016052139881913452,-0.05312457938609869,1.0608392719711837,3.3118084319660483,-1.7438157493372934,-4.579626934982802,100.01169306457473
340,0.043042801254507074,0.025594054114551863,1.0111137392927965,14.372871498086475,-7.978977680382425,-18.85745250559341,100.03544102130097
360,-0.049252395972984836,-0.042867369623623884,0.8944692438665489,4.364700761465016,-11.007207908939028,-4.461220301207191,99.96361653526886
380,0.005105829382958983,-0.04023893526121829,0.9299188114619269,4.625834242151477,-7.162429720650078,-7.89407022768658,100.00926580890827
400,-0.07910948351989333,0.007920712013770164,0.9794755174062588,-0.2447266563081001,15.417119682492826,-18.513922988560537,99.98616767869329
420,-0.005519647112935826,-0.005366618057311244,1.0101667480527776,7.0470032182332485,5.326481224918826,3.619601551983468,100.02425382472043
440,0.07089386105969155,-0.051991487988943874,0.994166847590026,1.5632982722175992,-17.847690189803465,-2.665870012047675,99.97056913079057
460,-0.10357891252827821,0.017392723781244908,1.0293717182343207,-8.393699457109882,1.7329354481781007,-1.8235966083397104,99.9994760437467
480,0.018645823554468484,-0.04412123915332136,0.9721897697385886,-14.17542034184411,-14.628143847876473,-12.27989778564763,100.0243985153101
500,0.07393907462820612,-0.09413285427128742,0.9806763004726408,14.288674594019824,15.265924376707197,14.110313163858024,99.99584743010278
520,-0.02207409475792523,0.0024478419381843064,0.9239503327637022,5.364547180054541,5.0927415106506535,8.189251587939001,99.98939879437118
540,0.014419448689059845,-0.057297086829573345,1.023924895214355,11.469017135019147,2.233184157337477,11.99910490239187,99.99149179603786
560,0.04422153644446691,-0.025111990276439733,1.1361624153922376,11.775567692690476,-9.44287689104043,-12.729082850306902,100.00875706894968
580,-0.05877811355127315,0.06181916372857571,1.0052885146288975,-2.866516615525012,-3.4688876892104092,3.103729761518616,99.99494075251198
600,0.016838056051075127,0.08564621390567356,0.9257159872261254,18.111351774318923,-3.2305874755902115,28.405196529588522,99.96964831959664
620,-0.06010050705627943,0.10119862959398117,0.9781387980916245,-11.298535848404516,2.149129996698818,-17.023805048493937,100.03593636110108
640,-0.02001236800498448,-0.06112896385034672,0.9930465934760194,-8.08268436005826,3.4964359826161457,12.845415683071531,99.99920532414114
660,-0.033328834281796754,-0.12528871004424513,1.008653835292606,11.097716995905113,-11.366328628761064,1.9515645134109536,99.99183246920575
680,0.04240089532682423,-0.03754232788130301,0.9683011838702731,23.296345719287423,-19.375032496321985,-16.810876683855263,100.00492892021865
700,-0.020666527996094947,-0.10945738892841093,1.0431432138899304,0.2514740940275917,-5.531622419944171,-4.700235896747591,100.00267559098099
720,-0.08080301357306081,-0.05104133960613988,0.9679338833269768,-8.138054921059672,7.467826367140683,2.5978063871136756,99.9976386293703
740,-0.1295871622781168,-0.05156273249345148,0.8843654589102617,-4.1905250709293576,14.507805746903884,-29.798917401198068,100.02085435431589
760,0.021873478609042846,0.030633358582252468,0.911471722769754,6.811163417426069,-7.036226483266251,-4.310907599213849,100.02890055566955
780,-0.018789961229110464,-0.06590910074620702,0.9306018013305891,-7.5328829521025895,-0.03841161457686245,-12.338662216825472,99.99532622394781
800,0.02342922081263392,0.040057838662638866,0.9237006717537728,-2.805072577637433,3.544462898400103,0.08188655730041183,100.02809678716184
820,0.06489629867205518,-0.043587723982018295,1.0772956924037083,5.592294771376611,-2.351309397997101,-1.3979262216066157,99.9528104576071
840,-0.03254704054681672,0.08047659190397458,0.9655612167018132,-7.750080742502622,-13.601414901140718,-6.626511105968327,99.9813231114877
860,0.04508047288408426,0.012381831865605578,0.9413805480978923,0.4053112063854744,-0.4253145823159553,0.3506913339756678,100.01116947353556
880,-0.021828638926192634,0.09483567383937623,0.9926390453990707,-3.2990163160806163,-4.513202444416381,-8.300197188716254,99.98920857858221
900,-0.006637346884025253,-0.008239829098558587,0.9984609782473027,0.3137194188647192,-10.282480387958952,-5.5009263583024985,99.97589723982264
920,-0.015682103238092184,-0.06180446780455054,1.0392458607059425,-10.56680483798781,11.79673322567497,-0.27797531174996776,100.00627554839117
940,-0.01249213543267813,0.04025480205934231,1.044385658661868,1.0066145426675954,7.821502196229168,-5.1567191224819515,99.97821729549678
960,-0.12684554946141538,8.5992064591051e-05,0.8989322974325428,13.310265692471551,-3.9657908896588348,14.647210946357408,100.00556535793216
980,-0.020237112877268135,0.06416952388857365,0.94825331817176,-14.764097567764797,7.611257840817432,-9.017705403530229,99.9750283432535
1000,-0.1258199647246489,-0.04691992044594742,1.0658368394628748,7.629463878741253,-5.675660523930797,6.287276479302308,100.00745941617274
1020,0.0030761791913653403,-0.04912823912415638,1.0439952934482282,-9.971444937684964,-13.725855623123568,13.43810757925598,100.01911014058446
1040,0.08948119517707677,0.01626866937911802,1.0600610213271255,19.514566605871554,1.2153889862769864,-6.8999381722731625,99.98610320364321
1060,-0.03669889830741512,-0.057740799395138,0.9902771899814987,-14.415451176923485,-10.421795868826447,-2.998455742215418,99.95189129355812
1080,0.05965908047487281,-0.021767475108935744,1.0396341832461231,3.520466724278182,-16.597253801087252,-16.318766898930093,99.98924479759185
1100,0.011717876519013102,-0.12384292397513322,0.9531719229022398,14.87078292406045,-0.4699188384337145,5.908303519366367,100.0010227817262
1120,-0.009391221450893938,0.03816712651971977,1.0436601935064862,-7.2552914033216656,5.5024941504591744,-11.121915904886492,99.99295420264366
1140,0.03133709221292761,-0.016219757141003804,1.0638117894999863,-15.192051990526547,-5.901414232648426,-0.3012317323945417,100.01096201491296
1160,-0.017701839610063504,0.0699514081852874,0.9957293484034129,0.44927100787102403,-1.940393623635079,3.365552188508498,100.02461572899728
1180,-0.01972819271526259,-0.05310122812965931,1.0196789405962188,2.863935665158556,-1.5017046253454525,-6.048156497368717,99.9880661957072
1200,0.04531203214155726,0.02238413810050993,0.9663932470507622,-15.334880676711373,11.742460201987953,-7.054054702091712,100.02661080600951
1220,0.022535029073843,0.054205621665721015,1.018196181218791,2.7147623787722868,1.3657291078666636,-8.64641814639946,100.0126270313238
1240,0.04485169864662106,-0.04239623059960415,0.945929321840851,-25.87553390829929,12.785671475389819,10.385274041185875,100.0016232736104
1260,0.04314554945054652,-0.026343920071358946,0.9675214383304386,24.578931993588302,-9.793073193656236,6.981397932904146,99.98192123286233
1280,-0.036892486754695065,-0.040724526298228744,1.0053880102356503,3.015203808062345,-17.577554145147356,-2.677973416991431,99.99497380977404
1300,0.06760889857728773,0.026961764610341193,1.008679763983597,-1.0662891664079466,-10.258082961558067,11.837013274829603,99.9758026166742
1320,-0.033239327664088464,-0.05986386925290578,0.8379745560543805,15.053471398393905,-7.7867904224993465,2.672271461468166,99.9928802028996
1340,-0.044201882693426356,-0.030434603091498653,0.9642148974760406,-6.463147966883287,-18.236867083661426,-3.2709170089131625,100.00757235037356
1360,-0.08489746927347994,0.09123686469636776,0.9580577957196009,1.927655702884579,-20.471194211334243,-9.589390929266637,99.98837748091502
1380,0.040662682683423136,-0.02635986192591567,1.0670324551690384,-5.885176457506501,3.610170431536237,-1.5380432475793289,100.02976510610097
1400,0.03497941355897443,-0.01839257447336122,0.9703210440851715,0.9670416617201376,1.7193768546426824,11.269642238015813,99.9817785816876
1420,0.01809669481006838,0.007154982725214604,0.9555615283171632,15.135195009330538,-3.2484008430448057,3.193955175516482,100.0123078477964
1440,0.04763698430291918,-0.007903190417967068,1.0242567025543277,-11.773891189476213,-14.048880678583512,4.805592046898552,100.01827024345705
1460,-0.02253477809797829,0.13088198077159702,1.0290634908612484,-11.357530388673663,-10.506673145945175,-11.13475907649753,100.02852645060027
1480,-0.1033744524379876,0.1321173459357496,1.0121263862563086,-4.324350624539945,-3.226971002622945,-10.676857018519996,100.02486633292098
1500,0.031807827002350395,0.002002699325247724,1.0115760504202278,14.94571719935378,-1.625665117027341,-17.105750053245156,100.01889296071617
1520,-0.020112884212088122,0.017280916235423795,0.997166330052926,1.5960764177706266,18.819144510667275,11.393325405763122,99.96502571094963
1540,0.02267229901233441,-0.013977708409609407,0.9353743714332319,12.786850419249426,3.991615272351223,-10.161110593078304,99.9963640054174
1560,0.007623232162042393,0.019588090611966764,0.9842683927431823,17.106649211571465,-11.606581094514969,11.295555216557572,99.98902952946175
1580,0.02901445193714723,-0.03149125511351954,0.9773200964156851,26.841572549511476,22.431671245113776,-0.9253986001631109,99.99308766596546
1600,0.08586893757297531,0.0231780334225716,1.0228901295572728,2.875370596141935,18.281268461742272,11.33022958655521,100.0241977857614
1620,-0.06013923888423353,-0.004979471376139671,1.0175340236361208,11.27384395627126,-20.024353678300024,-7.613136905910648,100.0072193909352
1640,0.0545301444181866,0.06714160885520981,1.0270680236252134,14.042915992672597,2.1087968818730443,-10.67513796948261,99.98914206293264
1660,-0.04839127828108757,-0.023983872260537623,1.085238081411791,-30.627031662392824,-13.999775649165944,-6.7613394251299175,99.98107981303751
1680,0.028481201931726065,0.05249157859767284,1.0322091510947313,1.7834660497686505,-0.6932100428804935,-16.00071357103513,99.99738212355429
1700,0.056632842043844056,-0.05188381457966271,1.024854617926861,3.1453571127662623,-3.2511425193474404,21.552938869857595,100.00614914377495
1720,0.010325903481794949,-0.01904807702102175,0.9829646330029295,13.878274156453983,4.704069617791182,-1.1924848057217226,99.9990669508361
1740,-0.019331312164118857,0.07114031189543932,0.9805039758024836,-11.578905714179099,8.696794262361124,10.080412976547882,99.96118323716198
1760,0.018811803593363458,0.024392906611769703,0.9325984137730845,-12.86065235481972,-0.7914730000546586,17.329994203150285,100.02620094625567
1780,0.05676533432083469,0.11408333115405392,0.9572010885356751,-1.2766347842542844,-8.383854984685117,-5.3575766438346974,99.97959511513139
1800,0.016643254921041056,-0.09371640841634582,1.013934588214528,24.65947171762337,-4.393926165094763,-14.039824051863373,100.00178056241704
1820,0.032126960145254076,-0.012334544849415985,1.090554168135987,7.215755767148375,-0.6200659268638418,2.987120986155005,99.9969479837782
1840,-0.06950548314364792,0.03557768641727349,0.9767844482162366,-2.0491726191288735,-8.344719368813237,36.65458600745045,99.98882181190426
1860,-0.013209447431900008,-0.0991817712022223,0.9415564243507221,-16.108651040355014,-8.765236436277736,5.962841542187471,99.99612029153987
1880,0.03780789514467994,-0.016435160124938075,1.0135634401680784,22.9843869373793,-5.097789636525248,15.220608835719128,99.99106595646738
1900,-0.03306725951558902,-0.10326276539446388,0.9889352633525973,-8.262355614003502,-2.3551330009370877,-0.17508296620619207,99.99641106729165
1920,-0.013271965688499336,-0.043101597255324975,1.0701418326181298,-1.8823239859860021,17.333156989797075,-10.555739603462056,99.99506326595649
1940,-0.022574728521710486,-0.02098467852565491,1.0379276780721127,3.4350425097020034,9.962139045240356,-7.777436014269437,100.0053829394485
1960,0.004088169503502369,-0.06746205979906632,1.0045509224684432,-6.638588178386561,-2.3903726991935006,10.639170631738493,100.03069224325759
1980,-0.08488313281117982,0.04971604967912521,1.0059430890706555,17.718521843337207,-11.077851236541079,-1.8950648458109114,100.00056260664151
2000,-0.06778186596410442,0.0009493072412841716,0.947866412127176,-1.9064791775425953,4.52738820731144,12.159686265744302,100.00907916658244
2020,0.007799339380562326,0.01943189229223724,1.0355419775839627,-6.291054176204343,-8.389952469522054,14.848425017016385,100.00289695450408
2040,0.01803299092518308,0.02444424076306259,0.9759449051257578,-11.8117598733822,-2.236125011357058,1.3623666616148582,99.98814166337245
2060,0.08247656315919376,0.06789116020316548,0.9603646495306247,6.513234966804767,-8.084485597200718,-4.563923001348714,100.03250315900874
2080,0.10946891296040065,-0.010863499644857617,0.9548716470095922,-2.222100070695547,-2.14491651990158,9.957412717611977,100.01295467845705
2100,-0.0060241995876347335,0.04155014898212529,0.8673844589967947,-15.853135444306538,14.756966507277129,5.995074112191169,99.98825222806094
2120,-0.12257930828318282,-0.09879108105758837,1.0010185472927056,2.9100007423388248,6.22777574537275,20.53147569758616,100.04926267481481
2140,0.000717767807532329,0.01574751880635056,1.037859667822915,3.184718174587867,31.273436540301784,15.034906186313457,99.97439987185011
2160,-0.08272528211860908,0.0011935045314747997,0.9758602449234609,4.003884524168559,-11.116994048639855,-22.099646508996013,100.00348745799079
2180,-0.07060161935227739,-0.015370655907797749,1.025392069620957,5.832547489221765,13.800774154337155,-23.464177930476325,99.98539935885354
2200,0.05080201218817652,0.010658399395131041,0.9199307584557233,-14.008041085914737,-1.5939386346442888,-1.7554094226636128,99.9891795408085
2220,0.028710977156591867,0.10296510973939746,1.0319410793556432,-2.1810614971275557,-18.705345729321362,-19.42021885572814,99.96975623125834
2240,-0.04561033786485915,0.04901663783161712,1.0012660716128405,-26.471954566461942,-8.115246426860535,9.222448140929696,99.98052506010823
2260,-0.039339559285189965,-0.07549363769287842,0.9432352698351749,21.3712700159422,-8.817917854073404,-14.873705159046429,99.99591850475942
2280,0.05240668964642519,-0.006924642558768012,0.9872200265431457,6.17119688032049,14.262291601509109,20.001319661565677,99.98032409492399
2300,-0.03806539862515239,-0.08936981014094697,1.0199977015520558,3.5165134364431987,-1.02924483943935,-27.167002272632015,100.01316960153667
2320,0.010307032964652995,-0.055578496191706864,0.9833005188670388,-13.764959915413586,-12.966742332858823,-18.501900391141636,100.00744484556309
2340,0.08298231139535495,-0.039926671704645256,0.9985391894196777,3.10757427928273,-8.845466805297866,-14.79599533376091,100.0271888736129
2360,0.07673702622710704,0.03785911378178916,1.0543706970888898,-20.813156040099166,6.902091841289463,4.204321117897356,100.0182036277094
2380,-0.009831656608076089,0.0004315694943908102,1.0232908401705552,11.999528435486933,-6.17654131333655,2.6186602214398205,99.98883342292862
2400,0.030394692574338297,-0.013768860129091013,1.0013683289360367,7.372069760192394,7.079115702313318,-32.81155782934054,100.00977244861741
2420,0.06629350761827445,0.014408089984263382,0.9543983962383804,28.67292232215811,-2.6830905321752643,-15.42980791591852,100.01134899271796
2440,0.0025075103846475366,-0.035047850171851656,0.9175107653328494,-10.601430097456788,-4.983361395445002,4.323780352858477,99.99837584767529
2460,-0.018060391285028773,0.02657287722817918,1.0451496910043476,20.229002402508538,-24.137896062669164,-2.4076460656308747,99.9803984797301
2480,-0.03121119176043212,0.00043337300703465153,0.9627793289377384,4.437079450871006,-13.343604879365822,7.4692509077491565,100.01657491040623
2500,-0.05092086018140545,0.11876234109743167,0.9704111763485911,-6.124626779227415,5.9845103758176315,3.5390255713582333,99.99217177988767
2520,0.0058229857745556,0.02599415405786247,0.9069416070715546,11.374407053873998,-7.439857801542377,-31.79147987705832,99.99562240920831
2540,0.004798435924954635,0.022031321438927134,1.0073392235262215,-20.471567997177814,5.617651716663248,5.33525684833768,100.00190793525728
2560,-0.09843484057791158,-0.055332435002888085,0.9281085011987971,-4.231039515319694,3.5578110976018866,-6.759204657006041,100.01781738940491
2580,-0.0024643364218267707,-0.013963902565471021,0.9842343402823782,3.519549811438294,11.982771085679898,-10.962428167385887,99.95793327044221
2600,0.005562845789535118,-0.05910578690226566,1.0698651403018398,0.187019176153448,0.14179519918735484,-12.310785996508328,100.00422701106125
2620,-0.024176194988091107,0.04920038204356671,0.9829481945838674,7.172062763129714,22.97227651334882,-3.1261917359980522,100.02592409171223
2640,-0.13283374978685325,-0.05447619305753958,1.010255076471328,23.395057205295608,4.644626220874487,1.3159957131932103,100.01801856603409
2660,-0.002213839179254611,-0.04205061965125746,0.9730666877446723,9.212002382261247,-2.93739270596607,-3.1353193991840382,100.00890013977579
2680,0.06697215627926216,-0.0227285510858054,1.0125144240561672,-14.003038485944373,-10.78002434039148,-2.227028332619732,99.99699412111592
2700,0.013438123814437711,-0.008912002355153223,1.0713322371897467,8.787725541370968,7.218508733499444,-9.779331398389372,99.99782043247535
2720,-0.07171046196742754,0.008666405547995217,0.94045945096271,-3.635420194057263,-13.028248384866448,-19.400825278162475,99.96509198277892
2740,0.014424431900755503,-0.06678393386712064,1.0329797635863252,1.9023626027580032,0.568340636470653,7.735499919860249,100.01930177033188
2760,0.004991120373806824,-0.012680764730817166,1.008334765273952,-1.99212016792755,12.951782878063558,-7.905795958582653,100.01864914690186
2780,-0.019269232952278222,0.05161659182107995,1.0577984291061342,-6.643003728167551,1.4890369107150845,11.67914467210859,100.02970350378712
2800,-0.12489323023666561,-0.011694156245309692,0.9754037250563097,7.991170188110752,-2.9646517041384657,5.214005696643121,100.01984059763251
2820,-0.008417519480495328,-0.055773979672656196,1.019527413122502,14.10577114266048,9.806857865741048,-20.8515921394432,99.96175969999257
2840,-0.06686089605309778,-0.0006444777997627907,0.9655146653608874,20.49926423887819,-2.35830275164582,7.67952137980204,100.0105351976927
2860,-0.07938703463728478,-0.03587230317177982,0.9183141888342241,-3.946395889062893,-6.105234258556232,4.052187006741178,100.00585719223405
2880,-0.007041123255935956,0.010451627046694209,1.0368890593650273,-6.8428801047928065,9.557306794983766,-15.8860174816956,99.99951515621207
2900,-0.09898291714837155,-0.032290435530475156,1.0247969187636834,2.787990608090758,6.070917611703347,17.80820438326362,100.02647688498801
2920,-0.032292552314805385,-0.010906852570376942,0.9585878450397024,-28.19383254101574,11.94724583805946,5.04544655582343,99.9960096466687
2940,-0.06689830438012055,-0.005362927681446011,1.0328304129332748,-13.13197927763468,9.569267983892633,-6.941950152197023,100.01566337621941
2960,-0.0075242732923700055,0.035526661892730606,0.9847858624423759,-16.967492940912738,-6.392930304191019,-3.6816154081400176,99.97801720875448
2980,-0.005020296218631415,-0.007017398889358758,1.0552923293306744,-5.631411433766973,4.997292519239174,-8.59174182700339,100.00665856593643
3000,1.974258891476505,2.1455644509408764,4.381514360240181,349.84245093718926,318.2862326932432,343.6818700410355,99.97292664776447
3020,2.0155737220795755,1.9570153981413942,4.255525577426006,335.9141922011927,344.53710895604985,346.34611562761694,99.44402131762033
3040,1.9509947254274416,2.0316430343905947,4.272700269138943,329.3329621847044,334.72284856357305,356.94055208541863,99.42317679778468
3060,2.0805656064377422,1.9853794715079103,4.322856466796582,353.03351933553915,341.4582080939607,320.5357044247693,99.45037286995516
3080,1.976947939590665,2.016441378102282,4.299900898008928,339.26996164507864,349.8044842146711,340.38229047392883,99.4364014461053
3100,0.03768162770279385,0.0029273873989412473,0.9283648312001308,317.120006745971,326.0740955049941,345.70772555916074,99.44159950060559
3120,0.018690589813224245,0.08255721304264836,0.24642612750549586,344.227747015092,345.9979442411776,341.2276648797676,99.44344875145198
3140,-0.1144384656616801,-0.0025880600065304273,0.21523439201382816,315.41895824093297,337.2070584499955,318.50632108021824,99.48549867591746
3160,0.042875588476087995,-0.01650626435306461,0.1605861332804272,8.135670863392336,1.1817639529141966,-1.9328899629339247,99.45342564951487
3180,0.023541495456346977,0.01092190947848222,0.17697969173335334,-3.958612709727867,15.493349589154949,-0.8841862366453694,99.44777520241499
3200,0.0832978459049343,0.03750755319166768,0.24996579000067573,2.5874946775534102,-4.62349950904399,6.748260032258949,99.48012248490718
3220,-0.03907535264303806,0.03640061548928746,0.30711760819607803,-4.0600334309733075,-2.774061609943879,-2.8840800303333087,99.44286001589145
3240,0.07640892813465477,-0.02213340255666808,0.11994402694105553,1.5647971787994024,15.272460056341544,-19.558499528756467,99.44781197024226
3260,-0.02907361583853603,-0.012575049881695798,0.13577388922433095,-10.49830645493692,-29.856428396346967,9.465494645046311,99.47430577018777
3280,0.0020298849380637547,0.04718985638910367,0.15993491222148093,23.603945097836835,-13.411560871345145,1.7480055150617897,99.4677813119484
3300,-0.013232228207634318,-0.01040594135175392,0.14184860694614215,23.36542895100833,-13.937673921890012,4.2851069396113015,99.4868870152065
3320,0.006994282196383041,-0.028074374337271408,0.14743002501739394,4.670150590553643,-12.859207583200863,-2.581041539633883,99.46911722644667
3340,-0.025278121285223477,0.0692921120231583,0.14011296717351676,21.838593581984235,-3.461712172737801,-9.406620707768429,99.41814160730934
3360,0.01657955025149967,0.03960266888079129,0.1637770238411832,-3.943668521376209,5.803662867985552,-0.008678466123427712,99.44708759864129
3380,0.059972303221964465,0.02073443119065074,0.24594906953862442,20.250015521973644,4.824021410513081,-4.556583775873942,99.46615724481079
3400,0.11890871800203573,0.011734529750719737,0.20914601947048117,-6.403255766015416,-3.0555410777558665,-16.163724844218653,99.4723789052463
3420,0.051265182715027335,0.0778530408696693,0.24306205728539398,12.310286782826276,8.125451649241537,5.710469607409015,99.45261777410894
3440,0.05285837273282147,0.0642175874450545,0.1772771599977027,16.263594169400985,-3.6077604090333,24.33403792803662,99.44610789162762
3460,-0.09024800257512536,0.04049459181150705,0.22758409155620996,-12.248862341329586,-15.75975327937422,-2.088800274789828,99.4541283512539
3480,-0.05518902424841962,-0.10527121690459876,0.14817221961880278,-15.330967985791684,-16.49277286637726,4.267478359835712,99.43593083396941
3500,0.05372499482749541,-0.016862732859321997,0.11801957791163198,-4.225375047511215,8.974668258297822,4.511753404215749,99.45887915568683
3520,-0.043389385785028975,-0.010953996327710989,0.24569402445167954,-8.072774818932855,-8.15716697015958,5.89496101333508,99.44870271144426
3540,-0.09043646887106496,-0.12497722861067123,0.29587565059847243,12.342629960681268,2.4030045982657167,-6.238195732256958,99.44526071105349
3560,0.021817151632946254,-0.05067569129352814,0.22479208177472867,-8.34074304804086,0.6836354685418513,7.539457610942854,99.43767155229287
3580,0.07988252284985298,0.11010188358412179,0.18059147564186961,9.760021325683997,13.196311093865713,12.16941034498642,99.45423300573054
3600,0.03850073075548871,-0.020763072905263177,0.1714050213253235,8.336471684486167,2.813342086894763,-4.558070086778489,99.41149468433724
3620,-0.03697612094259768,0.055317916375299425,0.1873652691464206,2.089344121697388,-2.4573358521853503,4.334697169758178,99.46867155503577
3640,-0.0182072127367147,-0.04925034260202711,0.1612644558664844,13.469214041789023,-15.026406541056279,-4.77369371578853,99.44338668059507
3660,-0.004027916893384767,-0.007565845473225314,0.22806997585097652,22.167174232752785,3.568831697577768,13.766064162737289,99.47561600916997
3680,0.031273211785486206,-0.10363711686813928,0.11774102890665289,16.43677512505462,-13.468589337733455,-0.6842604562451655,99.48589513147151
3700,0.04162736172772526,-0.007528009772679836,0.25500449328471575,-7.957207926691758,-20.880652185338196,-1.088987185433205,99.45683001961716
3720,-0.04857391790502903,0.07561125555553462,0.19863373259051215,-6.8683212673928455,3.7802239816841263,4.551008142601164,99.46276610854585
3740,0.04405393019566037,-0.044527246927052344,0.2223360196629305,-2.318301072979127,4.302911730369127,3.175390245460954,99.44708869225559
3760,-0.05478672264685493,0.030884083944381538,0.22695437570239269,9.592159951934203,-8.281807248287105,-17.607441642539776,99.41767927297421
3780,-0.06039249121589577,0.0249248879460508,0.3154806149178473,-7.776528519210486,-4.557513828557056,-9.636476953417214,99.4544509986141
3800,-0.03348724272668042,-0.01815369700570775,0.16636585153436925,17.234000017337742,-3.9385132542260317,-17.950103234087514,99.46101595251375
3820,0.07076446478684292,0.039500001029957287,0.1712403797994372,4.52118855063189,0.48836134095617184,1.024688019991765,99.44903822500974
3840,-0.04268994906403315,-0.04880603851224678,0.19113769522660784,1.54029617364115,-20.847865111346866,18.788427228716564,99.4824620352709
3860,-0.005103155210185844,0.01660475222315283,0.21307912659346295,25.775340829071435,-10.835618798097656,10.240867851230888,99.45697208902887
3880,-0.017205894184727327,0.010995679030383424,0.25407184247496717,5.093834163000975,5.090518401987551,7.014527857561989,99.43692346283781
3900,0.09192099375461721,-0.06202147057869828,0.1701533137762878,-5.666250514320145,5.8525672484058395,-4.559649849699827,99.44353649539232
3920,-0.038327647291668925,-0.07472762091941748,0.19674450204604135,-13.245453858606655,2.826524333067048,-0.7971503074421825,99.43787392402123
3940,-0.04575227491487035,-0.02305437193900126,0.33007760457670743,0.6304622774475981,-35.03102918622762,4.009193963054689,99.45311423532145
3960,-0.030631662068455075,-0.07654727136444141,0.12126985488481258,23.69782912425955,0.40932263089481985,20.07043376906177,99.43339576262944
3980,-0.01932835829844261,0.00015058516065084317,0.22950011901937606,-5.783036987309308,-10.673342677290918,-5.112935918762091,99.43001182864211
4000,0.009751365318562698,-0.03559847209559027,0.1539680104593323,7.064589446868763,-6.273983564795263,1.1693721397923176,99.49759893161735
4019,-0.006226369202225835,0.01810388120244027,0.2681313848098665,-21.059500299589093,-11.822623101772521,15.540442414673862,99.46241661309648
4040,-0.12330918080317776,0.05651438275459369,0.3123690582640485,3.1997275307013173,-6.107724965009677,-7.850380081752968,99.42461741963774
4059,-0.06007381327288881,0.13381349338221285,0.22071530990587385,-3.5483840560019124,-4.990848128127876,-16.227278188045645,99.45461104381454
4080,0.04655061028306341,0.07997412184371067,0.27611159107168565,1.577013125604653,3.2267227826212626,-6.3374217524712115,99.42485069651401
4100,-0.015278783280090986,-0.028564224822488257,0.17537323647872619,-5.032365209389561,9.299786123495368,30.578625177326813,99.43892806021651
4120,-0.008335430555973584,0.016605895831782413,0.16304447542557385,-5.361202503276559,-10.732728094761322,-12.511332471964893,99.46397894876243
4140,-0.019092878684156402,0.015567040572880546,0.3087821647546756,-4.513586435930639,23.023008554712277,11.039219611514671,99.43871086747633
4160,-0.016546905148543185,0.030195572524792193,0.19896570276240058,-9.18539731994475,14.846364966384854,3.4382742535947712,99.436561627542
4180,0.030567777848390168,-0.040430673741082716,0.25597783533266266,-5.26091087613495,19.206773426276058,10.639257969547858,99.4983954752935
4200,-0.04578738601905724,-0.006029607283132264,0.19181544316585453,20.642820725565677,-10.17483345029152,-2.3451347934638433,99.46886215347347
4220,-0.0128320877935454,0.011460148041617126,0.2584509401712713,12.848717688678441,-29.720146805832268,-9.923650162024472,99.4314381249078
4240,-0.012242065458416971,-0.0782438154562212,0.15786558296262554,1.278621485397629,-2.995035357234473,4.618745690112643,99.42941905827703
4260,-0.019381608938514757,-0.0009430357664959625,0.22731018440931863,-4.350767408768418,-2.4429927140821874,-7.489386362187544,99.44699969768524
4280,0.001295638067656737,0.07136271855901356,0.22718954293269342,-5.100858921222498,17.80623764419635,18.365490799799552,99.44875986815342
4300,0.08792941648528113,0.04647954021579761,0.2754824703986688,4.744109363955173,-10.763401969292095,-7.994815072666921,99.46589727105466
4320,0.04946536370152074,0.08613352660962098,0.19083851559243978,-10.393159268715415,-12.054478862442632,6.230542672789417,99.44330816992324
4340,-0.06290112052784778,-0.11261242521013909,0.19572382489676907,-10.466374812203815,-4.149654864849495,22.942627205155752,99.4465356057741
4360,-0.10387632702018959,-0.048572018011558526,0.17160335945909483,-17.504733395114137,11.583962921531363,-5.707071367564415,99.45659671262983
4380,-0.056363535194057374,-0.0832511575670674,0.21141602697853265,6.753636110882821,-19.358488684969707,-7.612927045977367,99.4742424542297
4400,0.08205961205183593,0.021108944665304625,0.17500767965144123,-20.769294696877736,-28.23917236244673,1.1046101443495946,99.45942003527263
4420,-0.029228080466436136,-0.06010081472644066,0.2014990622700923,-4.968383964440397,19.02902751281569,-14.141401904130019,99.44757210653468
4440,0.08619440047257096,-0.024214345127615656,0.14370003727663302,-3.8835089821114472,-0.011838210919196764,-4.484427820081977,99.4701296465468
4460,-0.020078162486244194,0.06666011492521155,0.1557747542489088,-3.4617064297573257,5.24394160702488,10.019471918387714,99.43954299505202
4480,0.03666320675809853,0.01585336480680534,0.2204955319969627,-19.957092615426646,-3.5126358016031807,-5.688391259918339,99.49632523751002
4500,0.00851195170950819,0.004352013375025127,0.20379757679050553,-3.9776771605914227,9.541579545196836,4.290696350282834,99.43300780139819
4520,-0.038724649035860724,0.01636245556691467,0.1636619347937653,11.563890837618894,12.283852615018109,-13.871531634386518,99.44673864492995
4540,-0.06989710090093856,0.002601865761996156,0.18161952688560265,-11.995017760524034,14.48844322906995,-6.817283554806345,99.47759092271919
4560,-0.001638249235536399,0.09079610171796115,0.16807129337990603,19.177311760291822,-11.168575440115136,6.635132025471037,99.44521780042335
4580,-0.0372920915246085,-0.04154698334761315,0.2382695904157843,-6.136528636757823,-14.162736742997325,16.213404336559964,99.43332691430497
4600,-0.0014448291519470313,0.02193313308550149,0.1382944512093461,4.417690475064881,30.331348061231484,-5.387399758989458,99.47181546732098
4620,-0.0730939752337105,0.044574478145134794,0.3529812368050584,-12.518563612195322,-1.9069036359843474,-1.279093209130529,99.45558842695333
4640,-0.023512763623525258,0.01807212697737998,0.17698068736189393,-9.798799340885179,-11.490623826031472,-7.776411794249794,99.43801489385365
4660,0.05437403977533476,0.014259661742435502,0.12308516169289953,-2.7192266780794947,-20.969284075675375,4.3172011247500945,99.46903211859605
4680,0.04280193295216764,0.007898121254764414,0.24271931368029076,11.470577339011381,-14.447059326846711,5.789896335445694,99.47428751708841
4700,-0.04854071263288143,0.0255207878870853,0.21894594934111297,4.351394320622537,25.501273778087658,1.5542765164815684,99.4587169103785
4720,-0.03554035344525879,-0.02106985060201152,0.21769873169007514,1.967391708574548,4.067369326845435,-0.2890910314227339,99.43694758628838
4740,-0.013856676513115507,-0.009970172268481922,0.20065887514682182,-4.290175034000752,-18.747070225103716,10.737582571188383,99.44921109835069
4760,-0.08125134292598778,-0.11764750116144063,0.2540844629168806,-5.152623409125557,-3.3045673138646334,-4.766588993325354,99.45821484673354
4780,0.0723395563475805,-0.013676954221768706,0.183084977725982,-32.08479349828767,-6.567460386320219,8.246425169762535,99.41481199858086
4800,0.08110950168896133,0.02397549613154722,0.21310963698395124,-0.8356912886471117,3.746541337026592,-5.169915222315916,99.43897281120698
4820,-0.041614533414818945,0.051722182067920314,0.2522671406639298,14.399301588903484,-14.978252568879508,3.892326641646423,99.40921814747732
4840,-0.057580920306344846,0.02392702879234518,0.17246087212051697,13.743562393961586,4.068368624387315,-2.164455202559306,99.49613035217418
4860,-0.02691648355964506,0.12417554978249559,0.16251582485349966,0.6004837922298226,-24.713316926459964,-18.152222322249845,99.50003051469764
4880,0.050205116215275784,-0.004000210684450001,0.3102755910924403,-1.2510658666190377,13.596227795779306,-9.772242334814745,99.44370978774394
4900,0.08461996480517002,-0.01970483685707024,0.20726864364245073,-24.086923049288174,-8.99349998704911,0.1912955259329021,99.48017866873703
4920,-0.012922362253991834,-0.10614233548483797,0.26250176120291757,-19.146721816736648,-13.591405420916274,12.66388253991113,99.46424077176867
4940,-0.03956634450743551,0.01862507204380244,0.16927761984084014,6.959863753968978,14.57055447984347,9.439279368173231,99.47072787464504
4960,-0.04675887154580508,0.05486761574854511,0.1961758957250843,-0.35531610222128773,-7.708836158814503,6.675921088102632,99.45727247993119
4980,0.035713060088218,-0.02645067289043594,0.2298115009266117,-1.4568601770192995,-8.206448434818052,-2.087472375587101,99.45626795244773
5000,-0.014231068020644756,-0.08693262066132058,0.12180020467744604,-18.879601963369822,6.365390738630375,-2.832367394297357,99.44836589530414
5020,0.013846522342490945,0.06484017141286255,0.22687863307483797,3.3495775537164802,4.001936518151487,10.089773015629929,99.44104079760103
5040,0.0208747059129502,-0.012288862988783544,0.16029930457788616,21.58714541452244,1.1775120466829732,-0.4409808935769299,99.44078140837306
5060,0.03436291273140359,0.0634133838292231,0.1226397600786836,10.287840624177498,3.540857784970423,-0.08140103715248388,99.43454904132277
5080,0.020632236897781056,0.013122127074775551,0.2556888704117563,-0.5237937803376506,-8.680079178969226,11.782776288901944,99.4790669315925
5100,0.04489777299246445,-0.10427838184584091,0.223257584970798,-2.6312885624817026,5.419452356620768,0.3905687935450539,99.45905563501027
5120,-0.003942534956695185,0.14127478365765025,0.18766917596727054,6.015755648434361,2.1142531103726188,-12.046834233024375,99.48670405869764
5140,0.061197219583207264,-0.04299499625820527,0.21751939297382922,-5.48010503525198,-7.958470839406974,0.8304439695619628,99.46325173956892
5160,-0.002608406022688002,0.004999693844833408,0.20872045268195813,2.9989358836535387,10.28928635484616,3.808491599008061,99.40423389399609
5180,-0.04568035359010295,0.005002625496978153,0.29787006276672223,24.614018215718186,25.18842120699069,-2.8012708707922487,99.41760885062665
5200,-0.03866389065159909,-0.029221071026273707,0.3122327293392926,-8.277204054838256,1.644859121300644,13.126465409452301,99.46574534371693
5220,-0.03694038118291218,-0.05931204101844772,0.21193925238777744,15.990765101591496,-1.5784273418469894,-4.555017178352559,99.4489708611795
5240,0.021994967747643684,0.026134857477630415,0.20200375378817453,-2.407009218070155,0.7742463046343357,24.335481226634506,99.4536422692295
5260,-0.06508809957901632,0.09114574954898293,0.12142572726590521,-8.069154177134568,1.1323175494311526,19.306837172878666,99.48526282787296
5280,0.0005771397998343184,0.04355594806692283,0.12320909972166111,6.048181844301956,16.239554503672185,-4.701026875667749,99.45914105140211
5300,0.018631328987384965,-0.04535751614098358,0.19610128003482588,3.8649251798560202,6.716285077413032,-11.25317989879731,99.46386177918653
5320,-0.04241985004615286,-0.037587743874778395,0.21069565172342977,-9.363447058080451,-13.176644670793063,22.27931922990143,99.4589629157034
5340,-0.04101597855513342,-0.06545769502421332,0.1593163337996401,-4.742029271421133,-2.7166735039436753,19.251431500895986,99.45541281209874
5360,-0.04610888085441808,0.016398982163406947,0.21901738396312956,-2.5654608363646325,20.074982989341173,-14.358353865299392,99.45574152796024
5380,0.008357895450946404,0.03117951433912068,0.21789976943251335,-12.60438852618136,0.9146058919731266,-21.905633418860226,99.46683540500558
5400,0.0907177766399272,0.043373115669258167,0.19938616065124026,-1.6008262313700197,19.243544794970845,8.974060737052248,99.43669118385895
5420,0.001597122827059349,0.07975426744310664,0.26268057593680527,-3.7254289885098193,-1.0146784913474138,-4.801259256778668,99.42102304566723
5440,-0.08663040322627066,0.007533137326123121,0.16911748695794798,-4.479310287247253,-13.05524775247623,4.481512145160693,99.4493859390028
5460,0.007898513770635732,0.05238332369636092,0.24103623951743694,-14.578470297875045,-5.933484293572004,17.042927066253437,99.46568300755736
5480,0.010485591183367143,-0.10393613152056323,0.2229891957093862,-10.345342605335473,8.240074929285285,-4.52227461338887,99.4329934159212
5500,-0.01158113596445106,-0.07657094806859283,0.20454480907333364,-12.429146546458188,-12.081565815821634,12.386431800526914,99.43811341727684
5520,0.04430449459683063,-0.003292034230133592,0.2092338038771827,-16.89920887503964,-14.383151761874437,-6.2278570668357585,99.46971446059057
5540,-0.01735861731399858,-0.0772134251467148,0.2848819313720361,-2.4665270224505162,-9.120220053881548,31.37883928682968,99.4489617163547
5560,-0.052260379893622755,-0.0012837791409506024,0.2326761200128559,33.51402330489343,-3.9025231523505663,3.0902601854930047,99.44653570907334
5580,0.0771603920238067,0.0137339050091334,0.15868603816187782,19.837445414129732,17.045777399394332,22.95803315092632,99.46613610107946
5600,-0.012197398603835823,-0.06757846988052833,0.2742891706676873,-10.866207840187927,-16.290259540420067,17.914331289329162,99.43985565629694
5620,0.055541289049462164,-0.0001523307842595521,0.25037286183758745,1.7331907120062662,20.95109208455547,-1.2091451830872044,99.4355238916214
5640,0.00013261668767627617,0.025611372197427713,0.18101208843085642,10.0603537393729,4.7737706341112816,17.749600953252298,99.51612582004715
5660,0.03737558441561831,0.01618658935606728,0.1616296278413605,-5.767360773503039,-18.496897310224522,13.65364723539735,99.47307712537955
5680,0.016434898883404585,0.09996443451629651,0.29003245484444906,-15.784251593032536,1.3924725829543096,-10.854165530453422,99.42855408272592
5700,0.06898646089589275,-0.050970844008259034,0.2904721551409313,2.3321820377842544,-16.78852607713822,15.39825343760332,99.4355632472117
5720,-0.08664511966196864,-0.041859106088542264,0.1941921302404056,-15.861202714509602,18.55850138665354,6.435009728587529,99.43744075702371
5740,-0.0065187702149668535,-0.02061748512350957,0.17787545996579734,17.029997713959393,1.2719821122800004,-11.972179666720765,99.45163007192895
5760,0.002441771379103205,0.018343378141897217,0.14418613176823453,-11.352584323017886,1.3880918934539301,-17.308771510972637,99.45891777732457
5780,0.04040179181193867,-0.010777779569358931,0.2544774062975896,15.528213682740521,-8.894097568588194,9.47217105544846,99.44181397824364
5800,0.014140794306462277,0.04618095624171618,0.1056890655843308,15.454931052365371,-17.282558672724505,-10.418130731648882,99.45207425275962
5820,0.02750824849675005,0.01642952497344503,0.2021135742832205,-6.474030966525428,13.33092054720069,7.947086456874008,99.42370585235929
5840,-0.0401571088571189,-0.013210423370774538,0.2172864302699372,-19.4490550665413,-6.9492085497288105,-5.088887729681375,99.44416514441542
5860,0.01411355287212139,-0.043197987202804766,0.17314541127186026,-7.862598169583288,-4.233237597512097,3.3743131218938993,99.44522535527322
5880,0.009930437160234657,-0.035400804773643345,0.2425206063513149,2.729129454810223,-17.632532519304327,12.869059022660263,99.46733476029078
5900,0.02364529083005186,0.012493111951889261,0.2653736400560785,12.113719486232878,10.178252906946925,3.8242520358158583,99.46719226726344
5920,-0.04357279336331568,0.02241905573505617,0.07884292735138586,-10.034620546036471,-1.585657273019165,-8.290204337738373,99.45922040523928
5940,-0.029724494122522996,-0.02651021504291963,0.21424546904191963,23.866334347681295,-16.895531535494523,12.233056741962843,99.4710512451939
5960,0.04088773324932803,0.033966164399135114,0.15532232952673874,9.460807127958677,22.05268774716726,2.3578916317885694,99.42275201100631
5980,0.14716628516658567,0.06764990328886157,0.2224140211533068,3.029464842955647,5.830223469837064,12.682202510831301,99.48251126649401
6000,-0.005808911401787929,-0.012858885995891314,0.1525812362159163,21.944764193492972,9.316227985788098,-26.504399672505556,99.4670743079553
6020,0.00915838515922325,-0.07295492127594315,0.1974913931954883,5.144975260149803,6.409295665499528,1.3724174652829173,99.45384042854157
6040,-0.047620057008132724,0.0029062024186314174,0.15351774809177093,-5.175397898206819,6.701816066082031,5.357313296375031,99.40408181124555
6060,0.016795763487255602,-0.03350476797562823,0.1487968247715642,4.991345533467537,23.703096128447182,-4.492498949032268,99.46981510533666
6080,-0.00584281574111262,-0.009615977065552263,0.15419314815538818,0.6915330524029073,-12.832908262138147,-1.0469727181517616,99.4251498160876
6100,0.03783460924853531,0.0024144193627455264,0.16330576693561544,-5.886014561725727,-0.1949538889274,2.7884883856176605,99.46917590520852
6120,0.06705586414259854,-0.1259466835539936,0.2772090952683738,11.579668759893485,13.497833854661428,-23.743728582611823,99.46178906633976
6140,0.08219639585594936,-0.02617783190370017,0.21526410879965324,3.153312876914087,-16.872626705764933,-18.94474940697201,99.45879559550185
6160,0.021083379801039807,-0.05549935377804754,0.2666527776491774,-1.284225516657036,4.241836373677005,1.9703145621476985,99.43373009032142
6180,-0.03153686004600539,0.010754172243762693,0.24262064430186375,-6.08781691983096,-15.337176368165057,-8.777652030409202,99.42030434122876
6200,-0.01120220474379891,0.009119107535287274,0.16186712238842094,-3.031459660445149,-17.66507485503184,-15.020473377839304,99.44274869702193
6220,-0.0032444082269560805,-0.037790663999846534,0.29738394217965414,-1.3310819570274173,3.327798145806126,-7.454369664451134,99.46661683103515
6240,0.024705657293279035,0.03326540246653745,0.08008706458346833,0.35176689855099097,10.908859938417796,6.237285117280354,99.45165607374052
6260,0.02282435853007956,0.06999936137087087,0.17686065769281797,4.412026798368718,-11.782603898602105,2.6273381681138055,99.48967627464326
6280,0.024566415673232526,-0.012971407911354444,0.2219235139948958,-9.141217626321929,1.8202123435783224,23.680644529561903,99.47093247166683
6300,-0.05973194352195245,-0.10793668625738706,0.19116375362095114,-5.533615779831024,11.90343340456084,-7.000342324833823,99.49019172730618
6320,0.11502429469624775,-0.10398262712228763,0.24207330056381632,0.4555961979903828,-6.241031192028965,-26.890213275408307,99.4067809288853
6340,-0.034936153128381435,-0.055363688497740905,0.16311477262711704,-7.694299487623064,8.045894180443074,8.258192711410663,99.46806296090004
6360,-0.0084632020402175,0.05975617449246223,0.1892102748774076,-0.3553890433904471,-6.056918441029092,13.68841887941331,99.44154747332463
6380,-0.0909428259687153,0.03393891243801082,0.22862470479835828,-3.014070619784146,12.177041813112861,16.689237201714388,99.44279126122602
6400,-0.03569620272725824,0.09840607560242844,0.147295276308647,11.612239895118002,-9.534105986362842,-0.22946032366084881,99.4155052648677
6420,0.005618054762800502,-0.008051259930155038,0.267629338932966,-9.473545726790162,11.232600158116762,-22.71050513532488,99.4326121836634
6440,-0.07181065604548433,-0.04679054486009848,0.21529139280550455,4.5339032287243155,-9.585617746525129,-17.32483700203196,99.45374582258202
6460,0.006233029046071591,-0.04805575499395118,0.18871552707308584,-12.21356324152722,-6.716859243863599,-0.7616762996788747,99.4688035698319
6480,-0.044328394328113946,-0.03172120369537659,0.1805959826223991,-8.022603025980386,10.17864621701895,11.969234862567179,99.41210694373159
6500,0.04415983459160258,0.024723700189916677,0.1917827414619796,9.13495189464037,12.410128820691037,-13.410900593362516,99.43365640153934
6520,-0.043247066747547316,-0.01897314871675598,0.23188150083971004,-16.342305548502797,4.540839966308129,28.411552666377066,99.44132794368934
6540,-0.02709948813288034,0.0012426508045586156,0.1338553441447169,-9.558382378900909,17.37880672599282,9.987134341762935,99.44679778927836
6560,0.03950129196441138,-0.045554586393898325,0.26673630551460914,-0.09619844220664633,-17.001300292668155,2.5187626248602357,99.4212967843764
6580,0.03745499042527079,-0.01591605540966166,0.202611946950841,-1.600967072220575,-4.83611077447387,19.44753595087333,99.4564392047887
6600,-0.01669416934337477,-0.02921858867216162,0.2669205467227482,-13.553334653630849,21.68491423577689,-3.3894068613524113,99.48971915602088
6620,-0.02210564219705692,0.04207796662410049,0.2523965426585138,16.35211529008711,-3.7901883422580065,-4.479433667582852,99.430842102052
6640,0.09525563718878947,0.001051435468776818,0.2430849088995538,1.0904737444886328,-0.5344779057529951,-20.836575597619877,99.43286433782222
6660,-0.029850545156392627,0.013828002413017786,0.20205700239387525,-16.79721156674988,34.198704536910064,6.086437120528079,99.44702521615869
6680,0.050773449039974175,0.032189898054577115,0.19827530711990907,3.2325603914585956,8.344076567109784,25.059752476135458,99.46571947041696
6700,0.005051156432713894,-0.0991799299545335,0.16252615697487616,-4.356026794505549,-2.0368705033904173,-5.509825633939332,99.46861113975613
6720,0.03968969378359761,0.07475108773153553,0.19156282334760097,-0.6148504939762477,18.126359623790744,0.3146747337130143,99.42437814030812
6740,-0.0994547015871118,0.017908856962673997,0.1917151774971092,7.313636637884595,-16.18363487904432,11.145598862713785,99.44841893707179
6760,0.013470701566674764,-0.014578382699058787,0.21122509427386182,20.29025700424238,9.841794895247642,-22.675741260135975,99.47242727339402
6780,0.0337726431933105,-0.03169709082172404,0.23111295821549555,-3.8711518811619534,-24.36963631083188,-15.933484566568218,99.45590388423199
6800,-0.03279348811757831,-0.005885435536703218,0.20694800589981116,8.58493859421068,12.065517844018988,-20.825042493825368,99.44158073928432
6820,0.06453255227470982,-0.018983812580444726,0.2736551691131078,-5.621815190443605,-1.3613285099388006,-10.261391275177559,99.43441986925473
6840,-0.004972633249050791,0.0010313262566590514,0.1998301635853773,-11.599807865855533,2.59090006630686,-16.1148377928135,99.45477713639022
6860,0.035177021663310624,-0.09634270974486342,0.11874424246220373,16.35548004408051,-8.307197667682914,-5.06592962756003,99.44988069425072
6880,0.01833229407725136,0.0123202855535625,0.1709706488631572,5.249365459019177,14.054530964302968,16.03824185708874,99.43878204092773
6900,0.0446162140248261,-0.01175777470527426,0.23003062423445875,-12.502652729276914,-14.68816155741581,6.934653386113484,99.44289986883766
6920,0.0542129251496903,-0.08224968020310977,0.18719067763351502,-17.183653636462576,-12.08430451383284,10.474599917882186,99.47468470445058
6940,0.05812130633829508,0.025548261205320902,0.11771147084713411,0.633326168093119,10.651840038113336,10.961865583471033,99.42468054294625
6960,-0.053934141553047814,-0.03082204389361067,0.28485267853731716,-6.070908759710431,13.958634328091193,-9.593052043241237,99.39610621726452
6980,0.04781336093510843,-0.16248034140580908,0.2094700048588838,-11.246898065319478,16.551684880848647,-10.115700885904264,99.4519556641836
7000,0.05334777668222514,0.07699491056799519,0.20847494004939515,24.790156860837254,1.9694957706223528,-7.180298805235498,99.4747608778804
7020,0.11022278454955488,-0.05059880577546704,0.19518899634685893,23.214397156210694,-5.934409069273625,5.3228747904641365,99.46509558533194
7040,0.026311853254005715,0.027919219520023998,0.13136740638079542,6.831794798040029,5.885626700679319,2.800709200656008,99.44701020589163
7060,-0.028057359866155332,-0.016813644719892086,0.14963445848009363,1.0962634885417235,2.0416739053554647,-6.613259847246723,99.470018184117
7080,0.04715135131971171,0.06225899310684751,0.22706232750391236,1.1887190443194813,6.524378265218761,-7.999947699170882,99.43219282521687
7100,-0.007681025829446996,-0.06565434154374761,0.1609070014643384,3.468296120212851,-16.77361706676297,0.7946457353719165,99.43873178970674
7120,-0.003125603551990807,0.019956269315895097,0.23024734448846157,-9.032849938756573,-9.265476116392811,10.28182969425519,99.43528384839162
7140,-0.04324375784725427,-0.03319660562243353,0.20321073942466467,-7.559178992300572,-6.384900536901911,16.347650415781725,99.45043073652448
7160,0.08106590114424733,-0.02229589248006716,0.14680789994807214,-18.53351364498963,-13.433973458192693,-9.049230002070935,99.41998528872234
7180,-0.0628045415004396,0.09723165376137782,0.27690672449249676,6.133188094528887,13.25062956293494,-1.797218205958863,99.46002664972512
7200,0.10467858538678199,-3.2381111409683206e-06,0.21020334222604609,0.7156542514397058,13.294622025320297,7.360379530597285,99.48792304116768
7220,-0.027669273779746484,0.02980581152713138,0.141302175967911,-14.950525044923928,-23.20063864400554,2.727253751271183,99.47259635634045
7240,0.001236387597429644,0.0447466919818676,0.2390507950716446,-1.8802003820049158,-38.59798250110692,6.396387036624695,99.4571676543919
7260,-0.0019909281384631306,-0.07418979608343847,0.2088445829211242,11.22703121576518,-9.673189982638265,11.919718341829398,99.41529828140129
7280,0.008058029853996937,-7.019822100699478e-05,0.11572934145901105,-4.564536821922677,-7.048654722823185,-0.4780587059116834,99.40750451515022
7300,-0.03519699464682442,-0.019638426058958748,0.25271164019594283,2.0478401825110177,-2.8705142108481736,4.0655290387587595,99.43478916754272
7320,0.036028077319761036,0.014232636307678213,0.27437199296703657,-6.499978765726215,-8.72598797478411,9.082371313881424,99.47299305256557
7340,0.023181951035305813,-0.04694456922444338,0.15144530716497656,1.3394813015204081,0.8552400842450865,-14.182525624134769,99.44770646498327
7360,-0.027649503097359775,0.0561970625620851,0.18656852960146678,7.858438412650489,5.779917275958982,3.7209953804376514,99.4782341412346
7380,-0.0010477495683210868,0.13814301993043873,0.17230973071385627,6.907830843884644,-12.044350249870277,-4.1110591540898005,99.42108385291904
7400,0.013253896448600748,-0.02198722260783753,0.2214951618361463,13.659162697786833,24.981843544045937,-9.731977048057164,99.45269877359115
7420,0.017687205553798973,-0.031834036180567654,0.288141044215686,1.653842789413388,-7.45424863922919,-23.794975977268063,99.43271616016145
7440,-0.02277677693857512,-0.012725262267163287,0.31029968557586474,-0.17091417573587933,-1.426581381798155,26.139020629294208,99.45807620698724
7460,0.007208208471968489,0.06968013574356297,0.26196438324402543,-9.698948265810948,11.366253807892466,-25.973517470521216,99.47081231513172
7480,-0.01216149129554761,-0.07696549369513149,0.22843384119359844,10.220833832887902,-2.6584608748551877,-30.39288879179116,99.49898572959924
7500,0.09412149713185387,-0.05381559131105317,0.08239085911566996,11.249575129355264,18.428421302548866,2.936926719707687,99.43277153208358
7520,0.06486358916416853,0.00798835610392195,0.1589832558199194,-10.630225629535436,15.296387728388432,-6.312802718198315,99.45885549759033
7540,-0.0033471861566724856,0.05183373635649399,0.2143401073228436,-2.220272917542159,-0.8121144663761082,-23.322643969930045,99.44297112343668
7560,0.0745249896865711,-0.009947780563689966,0.2187995038651453,-21.91981068618795,-10.73250984505924,-28.54361795521001,99.43315561600195
7580,-0.042617227890771874,0.012064759385658404,0.10520605173852633,-14.491856775261269,-11.387623001676229,10.804904888253354,99.47250683977907
7600,-0.017254599821787425,0.06328721312835586,0.22349268363271754,-26.017849038349432,-6.996261689016823,4.096083956217412,99.45325626254616
7620,-0.03722979573960416,-0.079661492640858,0.27512075834077787,-3.927086220188655,-20.35877544358112,3.413133285911598,99.45962266699007
7640,-0.0034447020366928888,-0.06027646614472883,0.09821858736918188,11.037654712135263,-8.874957934824025,20.49538608238474,99.45168520988977
7660,0.045053570069193985,-0.0076886505361236385,0.17219534941496945,11.53623202299251,-17.695714256251694,0.5110404459019218,99.4173771969664
7680,-0.012151995535821246,0.09095281963033008,0.13078939192395195,-14.722650623338286,-19.027223826438867,-10.33563330822337,99.43923589458598
7700,-0.01265617410196997,-0.03133634217139663,0.26104947328310546,-0.9103637113116381,-9.590032875621558,-3.009915592217504,99.4289487902586
7720,-0.07891325752442613,0.018762040527920062,0.276603376886041,20.85624613522829,-20.984563014256263,-5.940666241000734,99.42834286043055
7740,-0.158298371327826,-0.015573452106320322,0.2974066278344444,0.7375590773789477,25.768270708106115,-19.036440675398488,99.41899341399761
7760,0.02055426303071549,-0.06672620131962674,0.16948826628153846,-3.6858673313387067,21.531580170910974,7.47977021315476,99.43526413473288
7780,0.07290528893928448,-0.04375934728483636,0.1558093946381856,7.587568501197094,1.8396250302259651,-6.042280028771393,99.44607169914201
7800,0.020965216663403473,0.0024475209458397025,0.11548955359381512,-1.5490522945431322,-0.9003209365444133,-17.082637519541027,99.44277665265919
7820,0.001678017730570701,0.043342829593670675,0.25046403104282466,-16.362317439433752,-0.3136746003399655,2.3892293647819383,99.44802186945944
7840,0.06474045167515118,-0.11096867061719876,0.19455694507574317,5.1346153280636955,14.17263484232842,33.75304080925459,99.43044487914314
7860,0.09558551716848586,-0.04506293869125819,0.2638354372589933,4.490067503221246,9.944073833879116,-15.949042583163763,99.4488299156185
7880,0.048254085856086246,0.044840062321886594,0.2917182640417018,9.322349126789788,-3.083183641524456,5.71060718045191,99.45302790750644
7900,0.02548819650392954,0.0882022183770512,0.21134837205021942,8.454670793366645,7.60352230202821,-4.661469359200833,99.46185443276048
7920,-0.011981072398829153,-0.04144449335497352,0.20341355428505165,-8.947047381599665,-10.074499711836538,1.1824376987172749,99.44768996883845
7940,-0.028931994706684335,0.020813364695666872,0.2754347938294612,-0.2937422881098655,-9.98728456668927,5.2086746918431714,99.45247019127594
7960,0.032224776570027196,-0.04706561160421962,0.24647604597146627,-14.481381810386424,-2.9487160547634907,1.7975099742442535,99.47328080542188
7980,-0.06592986649843754,-0.020271932298819705,0.2229914023153088,-1.6968164500499179,-0.10438495990129237,-5.997405051067826,99.43841543544853
