timestamp_ms,acc_x,acc_y,acc_z,gyro_x,gyro_y,gyro_z,baro_m
0,0.02305993576201565,-0.05198427903399642,1.027991820945301,-4.871362565426736,-1.4987650557217223,19.181859317128087,99.9533564482187
20,0.05761985982459137,-0.02751785593413668,0.9926877514011976,-28.40934098491957,-30.55179742079013,6.430637079852325,99.99890685133873
40,-0.001616014108097377,-0.023887482742618663,1.033343387207842,-18.870093289312045,0.4248753260163226,23.705637535115258,99.98499283325168
60,-0.02989246941431091,-0.08998958905672783,1.0242003222063527,-11.933801900674966,30.31242869584989,-16.188034834519733,100.0059558256023
80,-0.06027156608455249,-0.005414103906492307,0.9733420576241224,7.768267881971352,-2.997458260900137,1.5412775435792285,100.00532432235312
100,0.013667649835373736,0.09427236666960992,0.9169758187650766,-13.730376125360944,13.426747071177957,-18.713939827726694,99.98758782796068
120,0.06391985160408294,0.01967009650341783,0.9984741995015167,-1.6523020024422999,-9.815743834404953,13.001346484592498,99.98436412388173
140,0.038440879574604604,-0.07411802502745074,1.044672192559006,-14.018564140858357,3.498864692505102,-10.306943853082554,100.0246253462384
160,0.0005427695692639319,0.038506138226224396,0.9790721744379134,9.582130110305545,-6.089584387309818,22.12426967635003,100.00883199597834
180,0.07398743572976264,0.03523360040516823,0.9766521310179359,-4.0727942509284905,-4.43731219586984,31.875603226758834,99.96981775292434
200,-0.0362593042816766,0.06045932553873743,1.0041919669586858,10.314016679380455,1.5707890695512257,-4.16532942737409,100.00004140869142
220,-0.04728979774085659,-0.0024260322900324666,0.9888688911784539,0.35504767287924655,-5.790867529060116,-10.480321699525339,99.99372342079536
240,0.04907349530510006,-0.052067598714982156,1.01008875558703,-4.9491145268481755,-15.055454468801283,-0.4941878537299127,99.97342541064697
260,0.08153021148782556,0.01918486798106467,1.0806101598781006,-6.383664740130553,0.31517563370581503,-1.346305049568362,100.01421545910918
280,-0.017491290898793338,-0.0637441631767474,0.8586656637005321,5.891684137585093,8.070709603298065,-3.9858849617729044,100.00938040848388
300,-0.026362782100555412,0.0568624516376858,1.0231240171342024,4.543764330186887,-15.314802821080455,-30.029524917222318,100.0277745169373
320,0.03147909836049832,-0.04555217381761254,1.0152562728177537,-7.936414869654028,-11.26588692094278,-4.543702237885081,99.95643264685197
340,0.08355198478659016,-0.005346537419006043,1.0059835848860392,-5.91062467540674,-19.72765550827134,-5.373876415914108,99.9941256637289
360,0.003497127830983568,-0.06622222332871634,1.0551175657497733,9.192508568690087,-14.90363491080084,-1.0432093305140309,99.98885969465844
380,-0.05668597452527807,-0.02612423752514036,1.065137779343475,-9.452119507717471,-6.525835351650029,15.645888831093377,99.99825853595006
400,0.004677847317227515,0.06305474825782922,0.9518182696820418,5.327996411129995,-0.5841701557384458,-15.874628400475991,100.00432394725803
420,0.0026805989473888303,-0.011700227622286887,0.9549734193124032,-15.873638973408825,5.714770478861319,3.757750600133334,100.01226134996674
440,0.01989334097117555,-0.06369959408859831,0.9767598930429217,-4.002779851826947,-8.420384295433546,0.16475156624942744,99.99454346252664
460,0.021146261888362272,0.06135637843510422,0.9524386305420999,12.20583718470252,7.169176831844174,10.819541030006613,99.9877314370133
480,0.002622833712884719,0.01536515620498441,0.9558193646750593,-4.663766282566735,6.368587911065237,-6.371692884166762,99.99957772776888
500,0.1554167867302284,0.05103699926971338,0.979042827459466,-17.552161077891117,-7.786106775295492,-4.236256031618604,99.99709709567594
520,-0.011409792736477182,0.002813825331483073,1.0162334548948044,-12.363430045142175,4.28527336237212,-1.0131877753878418,100.00686202643635
540,0.02719831957189798,-0.07368476375407829,1.023609838694374,-4.99450727855121,-0.5830085625910255,-12.705815552288415,100.00071433990782
560,-0.0736274683401261,-0.03308656595924719,0.9963167240459403,-19.11008303356553,10.323367835084325,-3.173625760544316,100.0202197555487
580,-0.07350174274386836,0.01883053099000634,0.9712637854937604,4.072826371233925,4.653572161797065,21.312850814781722,100.0372732865664
600,0.0029796943605345815,0.034153329481295194,0.9860918833290246,1.4376772256427697,19.865011961573284,9.500540545596248,99.9851625006184
620,0.003011433063204974,0.010087403667822799,1.0578151293214142,0.8865318017758528,13.09595183020741,5.396679126301233,99.95619671832338
640,0.026963969987497168,-0.06738512106649737,0.9948664327985084,13.169176430950763,8.677942486778122,0.26802242437464024,99.98410177804278
660,-0.02495688809964866,-0.04583584416016659,0.9805037395195079,2.102357154377054,8.987177620408202,5.455763740466862,100.01511139563279
680,-0.047385400781395956,-0.018669922663818835,1.0112576475812438,-2.1382181578702077,-12.932165533886177,2.2613276938545144,100.00388151929559
700,0.05037450120236347,0.06012767448866532,1.0190691688504812,-1.5191667368174926,4.927696221266198,-14.721685680825594,100.02402664481613
720,0.007771839620070259,-0.018840009648679972,0.9758112293716552,-2.700961754323391,-4.388231418537903,18.93877548710623,100.00566795408936
740,-0.004263385248432981,0.0820313986559978,1.100322482894295,-11.153467333320625,4.879753295504104,13.10837262760315,100.01596308438391
760,0.021977749979856385,0.040358267385773666,0.984781564001791,33.55860418427258,-22.98905545854293,3.456378821663118,100.00075815407685
780,0.027485267639225097,0.024360171306703687,0.9980470001851413,1.2389360498489057,11.549255985886703,29.09897980607701,100.01468195016349
800,-0.05002282821122685,0.02957030971868237,0.9879365260660904,20.51967742480823,-2.057852879730837,16.49083575344916,99.98607573642443
820,-0.0629111499155652,0.002958675985058727,0.8857520623063783,3.8821269878539075,17.075298289593444,2.872759953837117,99.99974141778075
840,0.034707746537004355,0.01811549585931305,0.9037609893582909,-23.20139332386255,-8.449047817628962,4.546418371876495,100.00982779505985
860,0.04894344866101607,-0.06256340495958607,0.9777076705865545,3.0224083521078313,-22.30174154006626,0.3431466501917208,99.99434900944277
880,0.08965357594739137,0.061627786861296954,0.9604183543914366,13.425872467486936,-15.64438127331933,-8.0516149220057,100.01119211881894
900,-0.05727211944921343,0.05503469147964494,1.0366560842168764,12.855871470085606,3.870857929932434,10.802233808145155,99.98399812777492
920,-0.019651964945725114,0.011996661732060553,0.9386920849009888,-14.705934375559465,-2.53155446494479,0.4163889717097423,99.96979590327336
940,0.07017152731714892,0.055109670390167835,1.0216214374187493,-3.686754617654628,17.661517830367256,-10.990787822788564,99.98982792194597
960,0.05173426661426718,-0.06900122639086394,1.0013325689480996,23.954079594612224,-11.793741475793093,-22.582510472274624,99.98857250880357
980,0.05851793904231839,-0.06403241545232323,1.0743534274830335,-7.408224667804305,-14.200789276267322,0.4176725155017229,100.041438492162
1000,0.0438043686699866,-0.026017608740965193,1.0523593548303607,-15.58881467030401,-12.084914186188605,-5.304480396237404,100.00354225807999
1020,0.018198964029448324,0.03961086524629129,1.0204333492443862,-4.505428842299793,-18.616251551297125,0.3669326275200333,99.99453481949588
1040,0.029426119418297397,-0.02119097779222229,0.9740198736554236,4.759217358372104,5.476785712555854,13.857011471323094,99.96419845624624
1060,-0.06059560892249643,0.02841639529785695,0.9495448807608715,18.17401045398523,2.5158203223748097,-3.149027707031754,100.0073810758189
1080,-0.12105017017375477,0.04894776379184265,0.9938209794143364,19.195480709343236,-1.0732197625435478,-2.2380416787720065,100.02624951530761
1100,-0.0970365660769094,0.03168659010899951,1.0384769141009083,-17.40908557262144,-7.880006647171966,-4.502124759284142,99.97022042632612
1120,0.07126688682209059,-0.01899906005395325,1.0138274643505916,-36.34800022208693,13.567946809116847,-10.413997001408706,99.97822400541821
1140,0.00010248331094207995,-0.011416957610144761,1.0204903619956018,-0.17085370521670246,-8.9944386238403,-12.131917686415289,99.98728614328354
1160,-0.002330791226615582,0.018370304381893642,1.109607222437498,6.655705390256239,-7.518143265378545,-5.205408024350295,100.01772918240964
1180,-0.06985941810325991,0.007937829673821069,1.030776163928155,-20.58919071720168,-5.702130012687386,1.2803315692280728,99.98757489451391
1200,-0.08752260131263372,-0.04175036638483559,1.0193641287464577,0.6510462756059043,12.776155337937823,19.831626175752106,100.01603498236348
1220,-0.006901772018196817,0.01215293288487189,1.004438306908696,3.008154281045761,13.268322437954959,-0.7381290887013385,99.96833363657386
1240,-0.017817913237957422,-0.002101638921319452,0.9624495075681866,-7.02793298787045,10.151943168888065,13.918144536440515,100.03109543076671
1260,0.00821280408234761,0.06715955154296419,0.9711426382237661,9.395682725028756,13.360025694478288,27.386481713680777,100.00865451051604
1280,-0.05749170769375042,-0.06325711629891054,0.9216640895112497,-17.956165944097968,5.289927537851029,5.655748295650881,100.04498679498062
1300,0.04842336161506129,0.04010824331849982,1.050617534093383,15.994118071481498,8.539748386700536,3.8184310428102988,100.00448307969052
1320,-0.00262900363462316,0.06998832894026046,1.0108574241955783,4.60260502822834,19.785232480918218,-11.412772245235812,99.9955228686818
1340,-0.0319781360221415,-0.024069766609725835,1.086464405427814,-0.8651571664310033,10.194679272438144,-3.714334725964591,99.99900980672378
1360,0.04667701795107537,0.06674775693248583,0.9634064057905498,-11.383975450374233,6.290931333970775,0.19544683978504407,100.01426821995862
1380,0.04865767500414426,-0.0037194822134508036,1.0082083915910551,2.157366525429394,-2.387128905524871,-12.59183324796371,100.01966855776976
1400,0.0022302599505688307,-0.029063498151475454,0.9489296020898335,-2.4987912953425613,12.436419309934674,-9.246810014747297,99.98764276205647
1420,0.0008982977766904386,-0.012028408094266618,1.0010168727310507,14.015648449094469,-16.323442611383253,4.111669460377817,100.04005125206588
1440,-0.04550004589863784,-0.028665888571217768,1.053877958901888,0.47750123460817784,15.11150538047304,-11.192205617280909,99.97342854091298
1460,-0.06372611479166683,-0.021651496585677752,1.0445801053728179,23.552999590332384,-1.2431750671391453,17.110254218445256,100.017612054619
1480,-0.015958632949661333,0.04288406788847401,1.028746061869021,39.77482526258656,5.698941424813555,5.00819049466858,99.97730250033418
1500,0.0031109783138615395,-0.001475893167857252,1.0589623924225837,-3.275996294979273,9.2298548105764,24.124900120897003,99.97091023605745
1520,-0.046229495918394106,0.02229952348860561,1.0619444363938555,17.06720839606551,0.8963985677494806,3.072502458762316,99.98674509401016
1540,-0.014331869122904135,0.003645133722021517,1.0609910008625385,9.99861789504373,2.4618212281603054,-15.728587307862927,99.98231074366623
1560,0.07425431100977262,-0.054437563013491855,0.9653110272659667,-9.100928429982975,1.2311838912914295,24.33419457083864,100.014030523993
1580,0.022860757966835635,-0.04270278618976719,0.9700959378120677,8.43328447070511,3.123741664052842,2.7387944874809174,99.99393407367086
1600,0.010740836886410645,-0.051450097561470176,0.9923432103014516,0.6779405006512113,-5.846843856335193,-7.768403335798633,99.98949282590839
1620,0.048449435086684034,0.1274663802564789,1.0236346736986557,-30.67416978048073,-1.1813957627674334,-7.319989553077059,99.97741151749487
1640,0.03936946701589661,0.039233637083891854,1.044051482246385,-7.2358690427661,-3.9747888420524564,3.417272860697496,99.99687139785713
1660,0.0037358541609011256,0.031431201232580266,0.9970336427471694,-31.346960099086715,3.8477386193499177,1.625219836873352,100.03278275888445
1680,-0.04030853878317686,-0.07622951378924743,0.9893405080904784,-17.361349102535044,11.266193910286379,-5.4394216080524265,100.02799871673562
1700,0.08562625411150943,-0.029542376237154496,0.9649713150830077,-0.3408188051609563,-21.972677263082563,2.316382142702847,100.00465740778253
1720,0.06515107370230716,0.04256187744745111,0.9346754765593395,-4.714504917189831,0.38651538089549164,9.869790695086966,100.001449933501
1740,-0.06550521971232319,-0.03333014627455137,0.9920695649634623,9.750017945314788,2.6404585258591595,13.715849252386082,99.99418506757638
1760,0.005722716843835342,-0.001116403839527614,1.0100425039377574,-4.410872126342169,-14.799379983296161,-15.753553334377727,99.96665180978296
1780,-0.01120663899140243,-0.0037517133038244654,0.9651778527923836,-1.227481069580108,9.833242318767727,7.287890793944301,100.01289247878766
1800,0.027333407740850187,-0.035641419898147446,1.0792582219484792,5.260289341759954,-6.707896025027666,7.6302799916417445,99.99430622941732
1820,-0.06326192643913187,0.08719442983908406,1.0019847100680768,-0.563662293006754,9.469737252413339,8.81723375036257,100.03298333794152
1840,0.10790790417719319,-0.009477608987560199,1.055269469651558,-22.10918202000945,-5.810326530747317,-8.708591500440502,100.02237939585685
1860,0.05969031407863684,0.07631151581986195,1.051231103793438,20.216889821431725,-0.4559339681485277,4.329788572791647,100.01864757931992
1880,-0.03855375004906331,-0.12441727865766246,1.0225204715682037,2.6088749728728455,-14.252133139116765,-16.152515012147727,100.01507303940019
1900,-0.10133428101383693,0.05313045329915379,1.0333070844556749,-7.471386077906898,-12.627769297778968,-14.690890692688257,100.00250190555026
1920,-0.11420101737292634,0.09240150534329283,1.0200324604222415,-6.01744192251844,-11.145005325531942,2.9674348657978773,99.96697343547872
1940,-0.006170777107508043,-0.03797818348036922,1.0594512457358496,1.5568909520623166,-8.67058705399956,29.041672618317172,99.98767614446787
1960,-0.11885904799867678,0.008496240028250527,1.0120940648038783,25.004021145552798,7.199798766898663,3.2806909534427087,100.03367224602466
1980,-0.027513058256403922,0.009571462343700944,0.9253572741994363,-0.9831375732672865,-13.580449969532204,-10.295826232458214,100.022872423848
2000,-0.007800451810947311,-0.011540527978881443,0.9778758375682642,-12.52507297957991,4.156084054056088,0.36111509581724294,100.0008308498474
2020,0.019158008521553065,-0.025514385737209384,0.9163430865631382,2.7381968973264668,4.894868994426619,-16.75286669865052,100.01465572860779
2040,-0.033765218610138086,0.05039291155656759,0.8437431868621942,6.749009416967976,4.303524327381075,2.5125992954748733,100.00465827121275
2060,-0.04354936247078017,-0.018563680438677926,0.9162802295963743,-24.778528296680815,-2.0047228235889913,-6.7359218299988255,99.98193393535405
2080,-0.09945253057683684,0.024636495811676175,1.0920093053076176,-12.139912454116246,-0.835445347112147,-8.195859196072298,99.97212288202483
2100,-0.06441996716561338,0.0297242876296958,0.9592176765458896,-7.2522974711683466,-6.491656597457391,-11.259206005988105,100.00928545951595
2120,-0.09596216018799048,-0.06512302522937564,0.9700912727095006,26.70257584389603,-0.25223048648866814,17.944569555426963,100.02952758471244
2140,-0.0002239605397210155,0.0017133363624019416,0.9399341909617502,-0.9513024066992786,-3.336057820268503,-1.9488400149673442,100.00362456757625
2160,0.07131491805034698,0.06373713464275106,1.002969540834075,-2.43489764381217,-9.361622619958549,-7.991697080219275,100.02654618647107
2180,-0.07080876654103972,-0.05862405843784401,1.0236989185763543,-7.654840118003637,10.810782942331725,11.613904520379666,100.01355990708547
2200,-0.0634671592411926,-0.03408220249764526,0.9594660393241043,3.251269474231629,12.636572605435978,-14.680558012392195,100.0085799614047
2220,-0.011953680733123168,-0.022614592423699433,0.985970923321445,9.75966938227725,34.86983289554931,-0.42067968960623064,100.02412248906558
2240,-0.014341047505955384,-0.014384890861980354,1.0965685520326065,9.10054060918763,9.85782006236988,-21.535750434254428,99.97925759876463
2260,0.10228588788837178,-0.004018322252261961,0.9855391523003847,2.7469846559179354,-12.32467239619097,-6.864910372751014,99.99347131185407
2280,0.07242020983205437,-0.007635277827362912,0.9508957767315186,14.709301182337214,-5.920773777769698,-3.222314843238612,99.9900125424702
2300,0.02086223080753587,-0.08140339590562898,0.913100585227641,9.780117180692308,-7.675221175182621,3.277938685030626,99.96915211065883
2320,-0.03487614439322217,-0.009272333451427372,0.9864675936044537,0.11936158762953697,-14.65424744704087,3.644207973294343,100.04274217911187
2340,0.10139169461045322,-0.0603924177459521,1.0679599937788455,-14.07561444934163,17.801275674772967,-9.215572651727516,99.9891960568766
2360,0.0031819746427972947,0.010534860868650502,0.9056656103210342,0.03641379050420959,-11.28715846797227,-12.957934253996704,99.96238407184644
2380,0.0009695303312104395,0.020887007934144764,1.0098277612188853,-0.1620070148611246,1.9331730235904687,-5.42586360581681,100.03379306704572
2400,0.030250538027514207,-0.08073984783853227,0.9509566723885864,11.481570366133987,-16.64250369109107,-8.000937616956524,100.00019871384892
2420,-0.0077656507408451056,-0.031630200539376506,0.9985338321622357,19.071136058646374,3.641771332382266,-11.809375090205242,100.01775048839265
2440,-0.08273914083884781,0.007163710720147112,1.0330335448871353,-0.15174573223485605,9.302195504389141,-13.129597193904424,99.9969580424169
2460,0.06135186231331921,0.03894914141091236,0.9588099786846109,14.830211244420973,0.7104088095234959,5.186580754553832,99.96592608440301
2480,-0.030562983277003103,-0.05886327423952592,1.0204454823099205,16.61598661253865,-0.4939336138036873,1.9413219756223712,100.00713449910609
2500,-0.0229680351186389,-0.009429796670044274,0.9729484513798765,10.49109054271457,-7.8946409640291595,16.0598662052315,100.00220245800979
2520,0.021501126543667304,0.10967613413462084,0.9433641467270553,-16.156406280146825,-7.5267276425305845,10.757537566266206,99.9865297724779
2540,0.0787429924826526,0.04863439181925491,0.996718188302683,12.533859119254112,0.9253179325815655,-9.934315124433471,100.01151898276031
2560,-0.04984706170879062,-0.05577753921865628,1.0333166528850155,-16.671177876716506,-6.428280184755087,-3.7442522258036344,100.05036351787749
2580,-0.024056947436399856,0.03477801187347818,0.9899928701767573,-11.870041908417157,3.8009803590755498,-6.537647767068048,99.96285867167504
2600,0.010813342512411584,-0.056458643327270214,1.0195950919995806,-4.067605289120998,-2.2997236205912865,6.729814206162021,99.99426048638713
2620,0.0002609289433090777,-0.013251754917613438,1.0097956025383845,4.9867895730762495,-6.979623761509503,5.249774081451957,100.0314464825658
2640,0.09148093887427472,0.026681541972036524,0.9956157350077821,0.9522664835998662,-22.738702846809407,-9.770785200115098,99.98159595612363
2660,0.08278925301039378,-0.007649239348178666,0.9728891572876677,-32.288801280205725,-9.090104613017406,2.2648150672492617,100.04517609678405
2680,0.02053209127818593,-0.03206284053231179,1.0409485622755694,12.842395249577699,6.327963358233669,12.583851867849006,100.05635544057354
2700,0.07072403145244203,0.02241143180249224,1.02354387177952,1.4950261368550144,-12.816274319412626,-3.148008393015764,100.02057125838992
2720,-0.033789655806615464,0.028592165035495727,0.9588919810378294,-7.6444237219677476,-1.8539774023328883,2.196042662994121,100.01730135139013
2740,-0.0026614743988012026,-0.008443257852946395,0.9651076969447497,8.110161466850773,-32.43985911193451,9.94709059985196,99.9813679440096
2760,-0.0035315450180977564,0.04325308382274548,1.0113131357341933,-7.5507527571244255,3.992687245631691,0.3890085006347138,99.99643775539728
2780,0.015032038500123244,0.019502581502040303,1.096130570820374,-9.066997584278036,-3.6417729052617984,0.8777838797533435,100.01591767657256
2800,-0.005537798169467842,0.009521165363230697,1.0756153650596814,-6.697027964666051,1.6179142595019242,-7.938709528594078,100.01023843723364
2820,-0.05559285047225945,0.07007116440275396,0.9573342138541031,-10.088765716773743,11.512698590123698,4.180032901312125,100.00002629956376
2840,0.024119410911683344,0.03855635581544199,1.0042518296125402,-14.18872569455521,-2.621216630582156,-22.3568571714512,99.98653098922287
2860,0.033746746004561026,0.05635110299430708,0.9954855597767565,3.2395645952361214,2.292937779668545,-6.449977950997967,99.96414243063809
2880,-0.026811777264575776,0.019823644625661323,0.9329505386192741,-14.311051655953506,-13.767963441663454,-24.63457397536422,100.01197743493528
2900,-0.012802601014635743,-0.04934557035065451,1.0011265177405348,-2.9813428866634135,-2.3381890795184788,8.795107735564319,99.99429481134418
2920,0.020478611286500435,0.0020670162033074903,1.0526835847133351,-1.5699263662698013,1.6655884016494529,9.81076259664365,100.00597104798761
2940,-0.011012467242938891,-0.016969200800252913,0.991437587854036,-5.9058849409589165,1.01438174190049,-4.33117465938492,99.97332857223884
2960,-0.023704527530440802,0.029315751391758668,0.9537685081829855,7.820735213370967,-12.137824405466471,7.111953701506193,99.99067738857913
2980,-0.017365835079345155,0.03603199369970419,0.94354367449337,-9.358992678297135,8.325099919188133,-4.9025067736846815,99.99082426107906
3000,1.9667539128915072,2.0129843094292452,4.270950534060649,341.1053308736566,340.6929503689803,328.1035251665673,100.02102715705509
3020,2.0251025345208693,1.9824583204670359,4.349590865282503,349.78281897906476,342.47385847596513,360.50547222140756,99.42021065688175
3040,1.9104071551240835,1.8958714536178618,4.247055698858694,369.5354324302157,331.56723145333723,306.3817791187546,99.43912996180912
3060,1.954788583322961,2.036855662582768,4.3417686918950205,339.13279024564434,343.61580122308476,359.6998287930321,99.47117556515822
3080,2.0528660437635295,2.0115188649677314,4.271945994124307,329.9444972861209,345.6528963360859,341.6452870951168,99.4663846254537
3100,0.04387124506082867,0.031679936900736616,0.9299891235125105,335.43934272092247,357.79698929688124,348.81677798577533,99.45963228608848
3120,-0.11874271665248648,-0.07383246680377552,0.21159027588554438,333.89820217667597,326.8754564652008,334.4507671117276,99.48110095367454
3140,0.01699264479473225,0.024957445712921977,0.1915131478076924,339.47895193195524,332.05864290399336,342.4873546272775,99.44955507412502
3160,-0.03142359622632905,-0.005825328359942785,0.24526800626872322,12.181858625106845,10.910913775879205,-2.867405888433079,99.4393667317804
3180,0.012427546781483119,0.0037246882030974684,0.12194959583428056,-1.0856059332086958,0.42122716877892663,8.545340705911816,99.42504465466463
3200,-0.009314247932469103,0.005378665935492783,0.28750115056145453,-11.754802827625744,-2.9700814551779504,-2.1083949763478245,99.44144492419456
3220,-0.06898378294163862,0.07221552539706895,0.23963056801205213,-1.7023398082787127,-13.142098792114275,3.906049602464187,99.44832213447852
3240,0.03892112244333725,0.04896929652715973,0.15393364276650978,7.532082405290277,2.737668775539477,34.93687053366172,99.48245895821981
3260,0.018678380868170218,-0.03897119488778589,0.22754737793018828,-16.6494861816483,-3.220963105377865,12.67797302016503,99.44484161123627
3280,-0.035366919683437074,-0.045924348256507354,0.17801021302889722,3.2100838461414773,-12.532848890908515,-9.002812430106214,99.50343825938275
3300,-0.0996358118324328,0.013646764713534092,0.19945812532810855,9.702945533379593,10.31166840031138,8.377223600089795,99.43884941217132
3320,0.025178077908080018,-0.043995139179830584,0.1248090883426809,4.318777475611306,3.4214623209936845,-6.283082052201376,99.44050190455884
3340,0.03467995308847108,-0.060718410561762505,0.22953674516276418,-6.8777341970234716,3.1496327980847583,-3.638873929809195,99.46466504521428
3360,-0.0341495470598301,-0.02526686550816129,0.16254257978769926,1.1606078195428577,16.309139167291647,-17.395078265443644,99.4517469402686
3380,-0.02410845120528103,0.06706583769801572,0.2627937545089976,-6.397292572464012,10.050701224295478,-17.422243787151945,99.42402874415434
3400,0.09888133952212615,-0.02130992116010689,0.183552656192796,-9.830684955624315,9.308225442146437,-14.248244991541625,99.42772970785448
3420,-0.05612353473525816,0.022933128269270263,0.23085925586253994,-5.30905049502443,5.085003083429004,0.4409445650598783,99.47181665395601
3440,-0.0149463027455194,-0.05728083529305472,0.24773349642579823,25.35736071567015,9.362255634765042,4.854487061408967,99.4584251265227
3460,0.017210689731809805,-0.06991809711025858,0.24414099643908205,-6.429592798112811,-5.435360914995254,0.24701797655280244,99.436466638276
3480,-0.04279612844766038,-0.04173756978913834,0.223469175045549,-10.278014767549902,-7.399643452467579,-5.815060884217784,99.43081387463113
3500,0.007104441155468148,-0.017095109618850326,0.19998792009455713,9.90014662091864,10.677439262187866,2.6803913083335784,99.49451593239515
3520,0.0899173856404739,0.01239951714355613,0.2644107962615123,-5.924928545328046,6.990359125295644,3.0614481028684946,99.45904574324486
3540,0.011749563688161171,-0.008343819015746995,0.1483412699369358,-2.91105798231673,-18.45730761254865,-3.093932006762312,99.42708407662158
3560,0.011459826545150681,0.014839578074685097,0.21306425689490216,4.578414755420309,-22.44304130313944,7.233527326125724,99.4420595879315
3580,0.00822563765311793,0.0653420913089028,0.12474728734445245,4.836964273502859,14.136905680969047,1.4999353583623618,99.45557439776861
3600,0.03998132750829614,0.02796650674338727,0.18483577069323856,17.51053133581313,16.290724030461696,3.38805481047925,99.45803983313314
3620,-0.013107148381877917,-0.003928379052317314,0.22960348006002565,14.150949487558204,-4.57827309663616,-14.460454427157757,99.46481821747167
3640,-0.02365539067639151,0.03202589738961324,0.11866821715151175,14.243345606316213,-12.211419951430429,-2.005291498097253,99.46609389261648
3660,0.007182954118485767,-0.031373968101998176,0.13670750038570165,-8.342294937956794,16.08903668491753,14.106095351052163,99.4699072500785
3680,0.043721863291865344,-0.05666025359764259,0.13173912446892377,-5.289216506652911,1.9053611615383717,2.8035446230686407,99.44911595645117
3700,-0.03790702213554834,0.0898332918575683,0.26748493115502436,-4.804080303161157,0.5276629342311125,-7.51089600320565,99.45097582609851
3720,0.0018447244078915973,0.0540222219670122,0.20642014110683338,-12.64492739838666,6.183564273653815,9.517731273855283,99.43554071460974
3740,0.01854326874674023,0.0324717258790042,0.214931578111855,2.059492161503047,12.553651905227767,-2.875743184578683,99.44924508700848
3760,-0.09975493623358041,-0.0303816946032193,0.14881088437677942,-16.761942804110603,-0.013308262618302456,2.6420098524015847,99.45395071706574
3780,-0.06583399965336327,-0.00775733138497992,0.19185380363523913,-11.414372043147765,9.576806714404258,5.341871181705408,99.42703764778925
3800,-0.08781126061503872,-0.017728777569704972,0.2344117971669229,10.765673764153389,-27.300281974314025,13.418212854393008,99.44752574242483
3820,0.07961841440253935,0.008928867080729158,0.27945115096725226,-7.033600744464557,4.594221369321147,13.139225408146693,99.46791531078603
3840,0.009034088508386212,0.03548627591585867,0.18824994411293972,3.094006143651791,17.71529807173392,7.619242639407695,99.42776291785673
3860,-0.04925885816579073,0.0030917949686008177,0.11530541476898633,-3.471700893754583,-12.912799163405769,4.865582427874764,99.44253992496643
3880,0.015766678376954706,-0.02840209505459182,0.14575045280692261,3.4293927342196326,-8.85464020285815,-6.289376367299424,99.44957739403962
3900,0.003992513698221754,-0.035941506385693815,0.2262842465492964,2.826677652066241,5.23703117374017,2.272126861725928,99.45656737863052
3920,0.09618553737456158,0.010090788087734351,0.2651869791186272,2.4421508809233834,19.620714494280108,-9.79971056326286,99.43023334276023
3940,-0.008460376588421343,-0.0011498095385844376,0.2006068743969964,-0.17254669285961655,13.82864111131694,-11.679552330701085,99.46759352944198
3960,-0.015499139098022231,0.07636902565112831,0.25837803106895063,-6.21086671137175,15.126883809484134,17.464845658033518,99.4495640234122
3980,-0.024009690021258488,0.010744503133204401,0.2353131129434261,-8.218243847255781,-2.336687417824318,-11.82590913745517,99.47511169652323
4000,0.04406260765057285,0.062296210246372656,0.15897119659217115,-4.001270531273075,-3.310389168948229,3.232063527901884,99.43079293854407
4019,-0.049878099485460146,-0.04389726286249331,0.18672081855976644,-5.66705411056275,-9.016576415618474,5.5715193898444,99.44293763605008
4040,0.039708112762986164,0.06427727965367074,0.21408607067044286,11.68766560354001,-3.8632270425995863,2.9639550528850576,99.48133845970649
4059,0.04162665217776249,0.08896990665689876,0.2587761320276686,-10.322466515343317,-4.7518659697775645,-12.061291258757619,99.43310837033087
4080,-0.11400349455010075,0.10537277740929887,0.22233040658192083,2.777389021095825,-12.727027500218185,-2.4549526512291475,99.45014061180393
4100,-0.06912817752880697,-0.023665422783959878,0.19461971199593958,-3.9267409644420757,-5.865983069290601,-15.813092179294944,99.47710521913719
4120,-0.012573329562048883,0.04166997071669745,0.19966287498331056,16.15078418860151,2.215069994427159,-11.681479017949583,99.42688620871567
4140,-0.09135599705240503,-0.05047607745291306,0.22984066379116028,30.30781247443298,-2.3157262145310478,17.569625284233567,99.44651360070544
4160,0.12692353745144255,0.07797048881590393,0.15917671736434913,9.7113980005178,-4.156752622599212,14.47617430094477,99.45125065557916
4180,0.041832921058971385,-0.03595379437872894,0.16096125303674974,-1.5093120421374588,-10.709754682226201,5.401098658998876,99.42536162050585
4200,-0.039792010902013925,-0.012707953057476901,0.28112867212330833,-5.421104095164067,-12.938744865090854,3.4926454106392133,99.4667472143797
4220,-0.030076886040339097,-0.06555442443206665,0.19930619450004528,-13.013240135596224,-2.7425760904401226,-10.190454479950745,99.45139898507635
4240,-0.03138800482437988,-0.09325140621847515,0.2845386847067813,18.94757000879643,22.908495537025185,-6.476917961144959,99.44258438328241
4260,0.045299539149580986,-0.08008058878709375,0.1378752790512068,11.385339963894658,-22.26077658496765,0.8148117629493739,99.47514537397994
4280,0.035060188691819934,0.03405877389958278,0.18428414088457667,16.62974417339511,-13.738178460083681,2.1342231895981447,99.43279413328065
4300,-0.09871383784907295,-0.06199862927965203,0.2308730586739151,-1.8315081724549898,-10.649649742741524,6.5989023218659675,99.4497294736799
4320,0.02157840723751832,0.007224704156818704,0.1932280323992269,-10.857355035708206,-7.216518150074872,-8.635968301330564,99.42885868575208
4340,0.0028336985579159005,0.0004959421402769644,0.15584160464133548,-8.40469170063015,3.1413286989243225,12.554038764502444,99.39260396471062
4360,-0.12295410882276861,0.043038444446661744,0.2589023791780459,14.244733998685188,9.551936013177478,-5.697866057420186,99.47622091913583
4380,-0.03673568923263896,0.03054307444841763,0.16606785993570458,-8.073723424445367,4.8978844163072175,1.0526202857798659,99.4583288535709
4400,-0.06199200644295562,0.07552313072198347,0.25835760299435606,2.7478704905495275,-11.65820329861804,13.581020324763362,99.43068295184398
4420,0.046406093095956565,0.008528563102876517,0.28771538442518396,9.90158448521222,-13.268623379860518,9.801766135232864,99.42528094311822
4440,-0.052550350126936346,-0.024206787128683016,0.1512475845396708,0.46473670928939637,-7.490436891670365,18.2716097988273,99.45848435015377
4460,-0.0425248381162681,-0.11935471002486892,0.25754966499684295,2.00056645277902,7.604781364882819,1.6427956221635769,99.45308969623565
4480,-0.04835540765917041,-0.012841549390757802,0.25976645571697443,1.3990951115452739,7.621005634256172,-12.101362254488008,99.44919542204235
4500,-0.06075841390994931,-0.08379536098047072,0.1748381756922553,-13.6599755016765,9.077406139487065,-4.3732888483325185,99.41565619433796
4520,0.02137752290633758,0.009863318375903011,0.1620030609473548,-22.875441376150626,12.685247099707652,14.251208171577964,99.42801633441437
4540,-0.030191340183985605,0.03057087112076883,0.16481892142309,8.576469523716803,5.8195313418853996,-5.1789124297282925,99.45493192742619
4560,0.05363480930561031,-0.053385365854326676,0.24440517163512399,14.469801162727883,11.193288823221183,7.934936671580021,99.46575828670888
4580,0.03660307588326791,0.027389281787505326,0.1537100119587039,11.600312967364589,10.95219001178957,1.2876764957311186,99.46864214413145
4600,0.011263153958839457,-0.09359910631026544,0.21900285262008895,17.58145147252076,2.5807088830485014,-17.431459225574233,99.46392951557429
4620,-0.08768225654217116,-0.04345730932345606,0.11564085183122808,-8.97602812649256,-3.440533427594432,8.423798739708475,99.4725223997624
4640,-0.00806024071407406,0.05067139334825557,0.22244683686960062,-13.467142428107838,15.8918872365311,17.838749422585742,99.45644480356553
4660,-0.037948455579570536,-0.025599094614735463,0.23627994449508874,-4.088783965598338,-5.560358748667089,11.89659251555248,99.4293362893831
4680,-0.03320941879603659,0.01004220822898735,0.30568112894026217,-16.523471511380496,-1.9890588152370055,4.56232269165848,99.46219013215574
4700,0.037115939006104125,0.023247818881001553,0.18626179327821654,-5.57081010048391,6.599020414001252,-6.760725498581887,99.44445280746783
4720,0.02492158498672281,0.08018685991561703,0.23189322300628243,-3.942459326269512,-1.9235388673355391,-12.151205436796852,99.46628084776607
4740,-0.02785453100322042,-0.04775776948596052,0.13866305895101821,-12.380564271980283,-16.169226265571076,-10.43729316311331,99.43735711968915
4760,-0.013926955482824549,-0.020195154551732136,0.1499389137815377,4.711019883273339,-5.908745638911632,-15.132852613780138,99.49010360751127
4780,0.0065939103156656236,0.03813347266659388,0.20893923994254848,13.817051601861944,-9.536386500825348,-13.695696478619,99.4223550526019
4800,-0.03132908630099654,-0.02910277816206291,0.14487185474421765,-4.137164980949074,-6.447687344913098,-6.256827487065092,99.43284060928782
4820,0.026900728971236895,0.0269448434125067,0.14482467097547483,-14.88118268388158,13.06439642752494,-7.725695454117639,99.4490511178232
4840,-0.06273657160316633,0.12345521010333421,0.08632652955091942,11.35544796055451,-13.066587751925015,4.7935016449178285,99.43845404715991
4860,-0.022404481011900523,-0.02264944095462454,0.18172435874817108,2.3232717574074266,6.724520822764411,0.9972466823970356,99.4485852211874
4880,0.049642076653191196,-0.04521743973553661,0.15801440568262137,-2.037629023748957,6.159061567261057,-10.58430512729738,99.45072061132244
4900,-0.05636859210121568,-0.07463264547961576,0.19283542125365916,11.819773724832846,0.8927429982690586,-4.737524302814932,99.46959581930726
4920,0.02195326363104044,0.05614127618236841,0.19207812597037263,7.208676012956765,-14.182719386870602,7.635151191264699,99.44872094788154
4940,0.035463429791010345,0.025517892555692152,0.20217917716998382,2.6838483956584263,-1.1845323353698245,6.684569854456914,99.41660208060271
4960,0.07703050566215519,-0.04168704389750744,0.19989570224685685,-7.038738164765273,5.908720547034301,10.931468068219509,99.47587602507696
4980,-0.01646509415658281,0.045098688701712006,0.2918568248740595,1.9004527416997177,-16.95805888346823,1.7857880037901426,99.4683642082817
5000,-0.020029797929459595,-0.014194026499549733,0.12534759630270448,-15.875574813223555,-13.601125202886326,-4.388897625537708,99.48855626854537
5020,-0.04115978239779955,-0.051759681345201314,0.09533791693888821,2.411708958066461,10.145920722582645,4.447408514424165,99.41688574948455
5040,0.039120869088222134,-0.05147932702028303,0.24264705638956438,-8.420023250032258,-6.946174907935386,-2.142833638319886,99.43255047738742
5060,-0.0008773213566918103,0.09047013796623961,0.14156522941817093,17.971234768073884,4.963517608160498,7.1862984720378655,99.46640793288674
5080,-0.07747143182754154,-0.07990451740924609,0.1876582999579143,-8.177945502010761,11.261410628526892,19.528308351852637,99.45737174677465
5100,0.01346708387548022,0.04750824126111177,0.20537727491663138,15.080823695323769,-15.584243680012712,-9.170813563033635,99.44759359455864
5120,-0.034069962790210566,0.0075780406341341925,0.19726351932120376,2.7354441602226705,1.2018797567911137,22.389674916255714,99.44189776423053
5140,-0.04665716190743898,-0.005732109943483833,0.14233904431468627,-8.58068676354977,16.47054668944096,-8.720633528874801,99.46303605069359
5160,0.09397430204891677,-0.02582045255770047,0.18501321124175096,-1.4420639269925901,-1.9152326812967373,6.191505483441335,99.44513207084346
5180,-0.11113287052135977,-0.030183440001110392,0.10267805053146146,11.578786970640088,14.92254142457301,10.565091932264497,99.46929250993412
5200,-0.036385431741627915,0.03171034746613428,0.17960648992397762,6.173546290110714,-7.134872881867414,-14.445332115999413,99.47574590919032
5220,-0.05296959469097471,0.03002692052015662,0.21078196190560458,10.857249357116322,10.21289864468605,-0.47266009975137646,99.45148908751541
5240,-0.027599107644939253,0.007627763505314234,0.2572718572833226,-3.8931526250866346,7.954324364279913,-6.271056925098733,99.50001952238202
5260,0.0036963887462177687,0.019813421108264968,0.1997883192632628,-2.533855301795222,11.959322908634315,16.012800824793423,99.44901835749909
5280,0.02442767009580803,-0.04389973569066473,0.16053458219372668,7.682657317939247,14.073702178648858,-8.183235881519245,99.4843673725693
5300,-0.04302187929769665,-0.08068360021435922,0.1766826293272178,0.44450169300108383,-25.13854597961763,9.283361051558915,99.44455886747052
5320,0.002220541658639541,0.005042168078814618,0.22041712091353285,0.23016878676188268,-36.81727046764031,5.06133374159205,99.44471564565909
5340,-0.048037731564906025,0.028776179897769344,0.23439289407550987,10.158868034873315,-8.78599767806994,-20.633042079923545,99.470492020273
5360,-0.013347117082438084,-0.0017238414819494199,0.10722801536873931,3.4986875594042433,14.926192289354706,0.034613085605021666,99.44140373167525
5380,0.08794026729491124,0.05142398004116662,0.12240013269108513,1.8517660045171662,-6.343082349659843,-13.73084589531937,99.45208675859193
5400,-0.008721439826168685,0.03451981255376617,0.21161620445136006,4.67279581042355,2.5876156135468236,7.058548825440646,99.4660319166272
5420,0.08600205183426834,-0.0483255265992641,0.1975660603855701,12.12496261667306,27.125925420412027,2.9658614883715213,99.40666857647602
5440,0.10241935443114532,-0.02959982251378497,0.3140055085071111,0.7510858101018278,-2.5384938560732357,-7.785658113800297,99.4669528454142
5460,0.0639046737554675,0.05564434542647774,0.2498445442111896,4.286391003411178,9.653891168431828,-10.512548417860662,99.42877336297217
5480,0.0009087237840014324,0.004121038464057492,0.27570228763938387,-3.623289706402801,0.8073259537582658,-6.478725263236477,99.43427093898961
5500,0.0358636441292195,-0.0621820513353247,0.2615406577572783,7.687234030897377,-7.07244461878287,-0.9128936840064441,99.44806007546401
5520,0.031273956454978935,-0.05200043344255907,0.15450649109279474,15.276381325825904,-6.544810844789012,2.6020731559912997,99.4765718441604
5540,0.04403099549692977,-0.02959643372580814,0.22716280669845046,2.5717071996200325,10.008885428661493,1.2937162532448767,99.43612267012884
5560,0.05809882751872292,0.07546738130841572,0.19812765100518603,-8.73700359001471,8.17980790664058,-0.7718651886708969,99.44215031029265
5580,-0.06303779534752672,0.02693985836601754,0.17052309021390916,-22.496272967879865,3.4187052477586963,-9.801457630756149,99.4635679524581
5600,0.03718447499963052,0.014626832831028997,0.2667403239423277,19.642602952411817,17.803259560900816,3.202976417941124,99.46226826230466
5620,0.0268823730602902,0.032452287182416245,0.21677542780152856,-6.0339326778412214,-17.43825029718408,-8.595361071845534,99.43367344868541
5640,0.003600827509265508,-0.013938929305541876,0.2502624421004437,6.928422949331107,-3.6507149737728093,-3.109778134857077,99.45804093328934
5660,-0.02980536121071667,-0.03271766142777008,0.16910738405551667,2.1362801152763504,-5.542363327799344,7.005519270686856,99.45664693416371
5680,0.034177837603399805,-0.028712617823057653,0.159492329302019,13.145203018608418,9.94704581576498,22.523712206970902,99.40072368878081
5700,-0.07460462228081764,0.06468763331118732,0.22934433872803622,8.794917536644215,2.4805618185159046,0.6076458949504479,99.4812564349197
5720,0.0678682188446111,-0.02024199185733366,0.1761953907009577,11.469882078245131,-5.48510910322704,-25.503030640285687,99.44364926253536
5740,0.009318671115418469,-0.018568914229355634,0.1299523791119421,-7.503190846139182,5.779572714438448,8.233454318706945,99.46367171381893
5760,-0.01439616685898975,0.04206875411037869,0.10621531412031932,-8.24847396301372,-1.0049995287210043,-3.8910763162618647,99.46953247160627
5780,-0.023518170714415757,0.01675278230072764,0.2233623717208839,12.616044540788053,14.198886067947374,-18.22614034597681,99.45069923683225
5800,0.0051463581889359495,-0.05588496648760924,0.17898698545646588,-19.571042535840125,14.43425650119404,-26.597039262929833,99.43702604550121
5820,0.02685384555411214,0.03551533667458889,0.14166715703078603,6.149505363038551,-3.762890033446812,-1.4970020581644727,99.42533651393428
5840,-0.017087511846378915,0.0425575573471998,0.23617721087371735,-1.5208915736706299,7.2395199139904225,9.855455783191221,99.45064895537698
5860,-0.046513790720978186,0.08864454119104442,0.23665970621790197,-9.729220614537152,-1.7553751376486522,-16.79351720892049,99.43222325752483
5880,-0.09167752938853713,-0.016271885077729902,0.18148846838932453,0.5595619303857884,-8.356786689598142,-0.1294464410188877,99.43848592472246
5900,-0.00839292617461025,-0.010934869504042578,0.2404624830556568,5.871531030676315,-0.4104355344374055,-0.6600837612173964,99.45104321847963
5920,-0.041352533902033785,0.07193054169888168,0.32253764275540014,-13.462768704720254,0.3551077097961505,-2.2911611089612154,99.43320188460906
5940,-0.11488419773893635,-0.02339542978076095,0.12518943950660147,1.1385466241833515,-19.76394751795149,-4.363317570545863,99.45617636747036
5960,0.0015691803122089476,-0.18366273973115302,0.1908876421729568,4.303984552437667,4.44816405005202,9.302150890778009,99.47090179134632
5980,0.007777223145429757,0.03217118356135222,0.2723714957463266,-4.858830762670818,-24.079125926217156,-1.9124913120913034,99.43777224504367
6000,0.04191576514727589,0.03810094774904683,0.20522566831951794,-2.881189759501659,7.378586538519679,-38.05287005414556,99.46648856008943
6020,-0.008497891769459557,-0.0033338558787841797,0.16892185173086166,-7.311193320150744,20.694903166402135,-20.899529522943034,99.46013109320857
6040,0.009619425906945898,0.05393868476598768,0.234421006413056,2.395711671309751,-6.841461712293951,15.160637215671468,99.45887363361108
6060,-0.003056018669117871,-0.015577880643992625,0.23549277767843663,8.241225854894676,-9.647699190302692,5.769072926622374,99.4469096851351
6080,0.09027353054445512,-0.024699840004181853,0.1665404700129627,11.267453098150426,-1.6085015395773494,1.9628314570659642,99.44211337805739
6100,-0.005425764100105777,0.026497210960943113,0.24327871271912607,48.804380288098116,-6.5843232577093325,4.754456796368724,99.44037325873698
6120,0.03786844494164604,0.024365966248427434,0.29197418577313683,25.645780092845474,5.479745833346405,22.67913784361868,99.4497987852206
6140,-0.011504024855709762,0.043803579570540506,0.21898834407960646,-4.758890120958956,23.60438334594175,8.91235217324629,99.46175941186418
6160,-0.04173007998642235,-0.0976249888291186,0.152801560363825,5.374074085234911,-16.772075392743798,8.841116594216377,99.45119409950489
6180,-0.051520861676619394,0.013758367689189956,0.17524019788735193,6.457054606587715,12.812826196937465,9.601540732933785,99.455574462011
6200,-0.05454121880659238,0.05662577892284984,0.21122971002030974,3.5239462794095733,-5.16049033690266,6.464504968704254,99.45580346530178
6220,0.13418208603685952,-0.028382496164633786,0.2791853597501752,-2.772939434696824,4.417363292321259,-4.102122306968919,99.46127794354831
6240,-0.06980039146646869,0.01938720613438243,0.18730424837633994,7.343641650689788,9.388104350405063,7.672640873615707,99.44720098895696
6260,0.02101318646915049,0.007501379645722545,0.14299344687835955,-7.929289933630324,-7.110446728911245,3.7182428570615436,99.4791330391015
6280,0.02971220622301501,0.02133588137460277,0.14188502190915303,6.067681460643332,-5.218141419735239,-0.8309075780137896,99.45494353459623
6300,-0.04013047173435244,-0.04156426325055618,0.20611460468106677,-27.390956037857517,10.74406263171573,-0.5342476312490271,99.42737334677861
6320,0.04292798907389702,0.026507854870252697,0.22590760816347977,7.21340854954296,5.715032899299681,18.46019258409854,99.47843452973471
6340,0.019661479859367864,0.05292082736377185,0.21606327079606735,0.24339240417078473,2.8343386610321795,3.116134665750616,99.44436546868322
6360,-0.038486493877424026,-0.0631688452519166,0.2372278658616049,5.21803212629167,-33.66042001833799,14.68933890741182,99.45864976546014
6380,-0.015067876634155555,0.017639344658309172,0.14276320593279032,-11.61230279547673,-4.456763885769503,13.917944871237715,99.46672245981327
6400,-0.020627817260023006,0.04446703137458852,0.24629300796455947,-20.869095891075343,-3.842150172813653,22.580475598245418,99.45710109613424
6420,0.01113875057873067,0.03948601841525241,0.2232674526714974,-12.273237082357028,-3.122385025256905,-0.4209811416911313,99.45307992627501
6440,-0.05612054078425625,0.07822715088395588,0.18907574341018754,2.790024480350489,2.6306670642758085,6.984862935014028,99.45780309742267
6460,-0.030322552546857753,-0.04468691743881477,0.21706523166487537,10.45929482005484,8.780348471579936,-1.6404217848620717,99.44141453919298
6480,-0.018841307473203617,0.03863942034869593,0.15197401594540952,18.993710025711895,13.902396492183817,-25.584030444602025,99.48026619371893
6500,-0.025062199294074956,0.06054532502704089,0.2675265604702216,16.265685136904107,-3.5944689006767345,-16.816051008421013,99.43610754948934
6520,0.015367512608208048,-0.014074102989225921,0.1905662196962491,-7.2053780494705055,4.1335386535741385,11.958482957936527,99.47050242232466
6540,-0.021105985999037936,0.0520434128321878,0.15616243142107675,-10.8152677760259,5.600599717398499,-7.513520633387616,99.4607859909075
6560,-0.02397910561254854,0.019312466840036263,0.23338195911375617,-16.927939855658767,1.781052815902397,24.446964252987506,99.44669364053007
6580,-0.05425263689857068,0.02953196536062119,0.2145877011728149,16.528919894872985,20.23502733221467,9.322909462270694,99.465936878662
6600,-0.03040685839291962,0.015238655162808704,0.2167143539350675,-5.15636576840491,6.201199681831307,-24.806501232864022,99.45331725293869
6620,0.1361668696176421,0.10546262232563518,0.10726046928452122,29.683090095123475,10.546633815926109,15.792817992777476,99.44440643111913
6640,-0.03218408580479578,-0.02431943408309448,0.10761680471387355,-9.875955418819466,-14.704326095544431,5.98003376767452,99.43297378150085
6660,0.057558705885795675,-0.053141196035073904,0.16705120428717318,-37.038157661457305,-5.06286384702304,-12.828165295741773,99.45276522948988
6680,-0.006864381037843788,-0.10345078416610323,0.23931961368374718,1.7389157871574499,18.152379692949904,-16.759432894981792,99.40518478672347
6700,-0.000924622478604081,0.021026790265872355,0.23190500784606088,10.82661453341435,-11.147543877476759,21.289142153021462,99.42966566005994
6720,-0.09993103187246107,0.03581997241040195,0.10154688934462164,-10.160316700029117,-14.08704048629686,0.2034399806888295,99.46767943397421
6740,0.07305744672869484,-0.03740597337986379,0.19267801291404746,13.875432813178502,-10.313349991489854,-30.934964477088446,99.41496388200282
6760,-0.015165466399800735,-0.06783289717931511,0.16712295823398587,-19.818647122250134,15.450177109660954,22.802961411454213,99.45653551369655
6780,0.0642795733820067,-0.051188220810902754,0.13606919072576992,-3.7521936356953134,1.7296542684580034,1.1019790359393349,99.47075780147816
6800,0.0384081287450205,-0.09882691693630302,0.2056297254081674,1.8909515889053954,-4.200916803101551,-2.622224157276833,99.42610854497578
6820,0.0038031616744907655,0.034201194466626714,0.24430035114203874,-23.82582093493831,0.3971387572330566,11.350225957907229,99.43172042729499
6840,-0.025628655523214295,0.05928082030043433,0.20280975326682266,-8.226615642813416,-34.98663401122117,24.860233501789565,99.43940828336144
6860,-0.015246245566790046,0.0021571765138641624,0.2778736809571013,0.8118096047862473,15.208200738058672,-8.60957679592012,99.43351958895022
6880,-0.05648662317579815,0.0044840702146435015,0.17776998121234697,-10.125198589656549,-7.210014419943229,34.450375912441544,99.44598693656091
6900,-0.13045922553498066,0.035793161514871684,0.18914955780787185,-4.6771454184634065,5.642818504629366,11.108869913253876,99.43252758790017
6920,0.012946649627860768,0.06559796905312584,0.16551212733600437,-11.292472902460691,-5.740491232626672,0.3201811212494673,99.43428755028977
6940,0.07276207828437158,-0.0312868329507161,0.1437614104446071,-19.796159763979958,13.844478804743801,-4.70940568057228,99.44091745214327
6960,0.08773954251982614,-0.04098104254600464,0.1898746604316664,14.720521580438955,-2.183206672606765,17.90716045594648,99.45034053354014
6980,-0.030809750747456933,0.030666863230797155,0.1585467091096645,4.2657123908359695,-18.582360143072695,7.093910468081246,99.44852476168167
7000,-0.024688534629688157,0.012872068295177362,0.18368824121753313,13.45252803406581,3.4050296366551436,-12.598529991493903,99.42567518739078
7020,0.020407988676531458,-0.07717246072857616,0.19073285709987212,7.3512299697979575,5.971065724935799,-7.2494343191796755,99.47911720994249
7040,-0.04708023532612324,-0.003688505488403266,0.12551817714709435,1.4240902347138884,1.6526139000451923,-16.781790077181835,99.43867095030683
7060,0.025679987733500376,0.00883786314120547,0.16039798754094478,14.308612010078104,28.787124079507613,3.0805417088206597,99.42948640223813
7080,0.027543647301421753,0.008435268450354234,0.22564040619398504,9.81157294614475,-15.67875746477171,5.831283530226052,99.44427984156502
7100,-0.06638814733141947,-0.08323424396993107,0.24173944435456954,1.043571719318436,8.813585235349752,-10.450771075018334,99.48542372527879
7120,0.018071452394408407,-0.009351573026638292,0.21420438138208334,12.814379028781357,8.312144345897346,-1.8601439541638793,99.46368729029108
7140,-0.053171389345472414,-0.015622014321505853,0.1468825936749309,-10.02172730169666,-14.186155110102598,-4.048352749348455,99.42582274466116
7160,0.02525025709552846,-0.0046035169634234,0.09783756506294204,1.4155542574414688,-19.60355159622567,-17.973480627315713,99.45022587247786
7180,-0.031234441361294375,0.018286304882022278,0.2461798308233223,8.2706563987991,8.78604490365283,-14.686789095794952,99.4819136204689
7200,-0.05935674498895149,-0.010124439121383418,0.25733493439881366,-0.07579583390977009,-2.72112876241161,8.178572298578494,99.45812103701036
7220,0.10795761980391966,-0.10608690640463062,0.27421688304167213,-16.094485589050212,-1.8278170883643554,-1.8910868696458807,99.46501894757604
7240,-0.021779028353737642,-0.08411818948912425,0.22111416567990166,-2.442185449631716,7.416635948700639,0.17350828530334547,99.44553408392224
7260,0.0522753812332594,0.01228609583484393,0.24106822109553017,-19.072077602029545,2.571226617605249,14.602224225938343,99.42825501416436
7280,0.08957809353211223,-0.13678039432626712,0.17109639005688243,-16.136347035764068,5.732594353274331,16.96122792078396,99.46790110069172
7300,-0.04987566522514414,0.04384365311944725,0.28385305621649337,6.190298136126103,-2.748264077124481,11.101403148450352,99.4629521746963
7320,-0.07989281431032838,0.0017002968282766057,0.16162953481371883,6.423316664188784,-27.314461139579056,-10.849511176811317,99.44249335212318
7340,-0.002434529303442987,0.03950784768779267,0.1452964598824748,-15.09197952091963,-3.6370689676833967,10.961146781316943,99.41262442002738
7360,0.03343808287700264,0.01659154581800774,0.15635889003497747,-7.9550383282030905,-18.188257135023385,-2.8949443326090556,99.47447347696094
7380,-0.011739727510658353,-0.035305947720953614,0.2198222870889731,8.190920949073458,4.280779895636779,10.169932843059474,99.42908097703622
7400,0.0056081151769235464,0.07279559930642102,0.1796121791960198,-12.025353567083801,-12.168320800884615,0.37529131008794636,99.46548538723856
7420,0.09672083376722526,0.0732897628073476,0.20597618197190842,-1.0225112683632573,-1.9051147962250672,4.476756846385891,99.45563944933637
7440,0.009352752272515549,0.05102435503194541,0.13092500781630695,15.758768567651881,0.9934948232676712,-16.404739404898777,99.49409495425171
7460,-0.017154175990734176,-0.05519814399486614,0.2643843019205462,-0.1649710379209795,4.33741560218272,-4.330958748717102,99.45016204222205
7480,-0.04885400445938939,-0.03911742564969124,0.17282912175443962,17.50849280252327,-6.422422301120624,0.16791309548640138,99.46712747924845
7500,0.04052123787929011,0.0377934325295161,0.20791064728866102,-14.889276628519532,-4.184417283272948,12.01883157005999,99.44761306231545
7520,0.07555680223980378,0.032937789017123346,0.1855180282136975,-10.948077139612733,17.160680741335945,4.271048048857142,99.44614362185463
7540,-0.04415787160222175,0.06757401206937079,0.24919411403400674,-0.8478857417525416,-17.255460759929104,-20.471879131093598,99.41348830121322
7560,-0.06627618041323913,0.008505743338735218,0.20884507063282187,-14.158993456205419,14.943393338970619,-5.939400701278048,99.4470468869565
7580,-0.04346459688348599,-0.008061743218629671,0.22795395586271547,-5.740461084216358,-11.873426990382061,-23.731639404966153,99.440118760313
7600,-0.017651669139906512,-0.01920769861409477,0.22423003579748965,1.6076299087642183,0.7148390530537826,17.36938021484178,99.4946930967118
7620,-0.02003581034357374,0.0038398358423728136,0.2617806918271694,-2.4746995954626256,20.248991617187823,17.85377785441154,99.43294224906903
7640,0.009614575434070613,-0.024948586281959256,0.17771303037597141,-9.421570552555384,-6.101006217645203,-6.699809632561847,99.45454713679864
7660,-0.046150209103507825,0.04330123299590977,0.11300210779872502,13.918844935644987,7.921497591392655,0.48899064862029507,99.41072768276297
7680,0.03186487693577399,-0.015078626656739556,0.19068423513810068,-20.10903528023739,1.1695347681458332,5.881031427194582,99.44010135367054
7700,-0.04880186169936104,-0.01654303890235169,0.19350337392348096,-27.223275759171834,8.207240770792364,9.62933822417877,99.44653311534559
7720,0.04267978474126503,-0.029836305424358795,0.23429285838154254,-22.52782554455025,6.073363905309413,1.058307024459684,99.44600149262945
7740,0.06305500269036053,0.10022622135069657,0.2081356571301487,11.080698131071669,15.007058844234557,-1.1440814003633237,99.42729852112458
7760,-0.011138005592867796,-0.01929542795325031,0.18664414145927766,9.092744079727332,-3.9415766340820784,1.1821186082884754,99.44946382990034
7780,0.005104451468550771,-0.08689080295035781,0.20204523734015326,-15.577635479340561,6.575848982229983,-6.97098299880719,99.47747416190606
7800,0.05285753337940605,-0.018982582387234704,0.2616096370898935,-11.709010312332337,-16.121324161182173,2.467276709310708,99.4412754310163
7820,-0.09709714117772739,-0.03239944800363915,0.17902818718141666,-4.232774030233636,-24.58409834556801,-3.0447196330914554,99.46144079977029
7840,-0.01820144644504879,-0.04131565830723394,0.2536724368937812,8.052298139934722,-3.2586218651344447,-12.575321302059265,99.44733230614587
7860,-0.022607128220690716,-0.04745283686539709,0.12613280378110203,-18.908609223464534,18.997222696608233,19.295560131782572,99.47244376824797
7880,0.06266865242962405,-0.05382245881865563,0.1939207574159994,24.318254617896255,24.082861720322377,6.871131562458129,99.44592891251759
7900,-0.01090511259574989,-0.022843201207995587,0.21522736147591462,9.633224419703954,-30.089909020793293,6.604062776303726,99.45402350602885
7920,0.012154584921787332,0.05984657388113793,0.10831401227893056,-23.82812204866862,21.896390879002855,-25.361004910890436,99.435984044863
7940,0.020278495462671402,-0.07691562082552678,0.19269080266864408,-3.9108553277878815,-26.804760044940423,-20.567439962588676,99.4537552362233
7960,-0.0020768505044410665,0.027952949814618763,0.22157941017893082,2.5114679901783363,-17.150883758455375,0.6442015347776155,99.44081378523866
7980,0.012413199081778542,0.04263225534491817,0.2525347484358182,-0.27811731396224315,15.569524084669187,11.103996353400039,99.44991975290746
