timestamp_ms,acc_x,acc_y,acc_z,gyro_x,gyro_y,gyro_z,baro_m
0,-0.05237355289229182,0.06614550264049017,0.9902320206276957,-12.898039561668998,-15.271663409239036,1.5350049750917352,100.01054655884877
20,0.07508500734668438,0.026660075084838253,0.9686658516507679,9.721795424707805,6.386909663620452,3.037362998361198,100.00060119310577
40,0.03141214396729683,0.032805737975472725,1.0332105591474467,-15.533752526006896,16.49594494639321,-23.686696078862152,99.95062085820538
60,0.026446711221452274,-0.10980548120181091,1.0161230193712227,-8.392817716300828,-7.133147704009854,23.705529417596594,99.99853075604736
80,-0.052438311054708045,-0.019095844392228983,1.0369815478699047,7.130827242954269,5.5112712170123,23.04007720053357,100.00956528032248
100,-0.05044859249449336,0.013144127478732346,1.06189734445674,17.552027429370046,8.26360347280908,-10.047661862923407,99.97194717667948
120,0.017910963483417097,-0.03483244847679753,1.008227539490191,7.0838967482991055,-20.472252002531945,-1.0193440183327254,99.98147398769856
140,0.06515185571673844,-0.04648072256349568,1.1402145351254838,-1.0986943468943886,-19.86124999936022,-2.898751389876345,99.98020160159376
160,-0.06045903470539913,-0.02305116531677235,1.0252388866918325,-12.968904203771285,-1.637472844186386,0.23095890943021405,99.95814328117545
180,-0.02710426998486018,0.09049567512819895,1.0476436794029813,-10.184832479969113,-10.732042057730144,7.026785858787724,100.01521067873571
200,-0.034321762764172654,-0.020627054853711906,1.0121383357769402,-5.640970772516777,8.3723477837607,1.1465252665787817,99.96420619483705
220,0.01288165205638508,-0.007302688959705038,0.9709225353033542,29.08949831147658,-24.692736598133273,-8.817982715465698,99.98819366714439
240,0.10457907243180456,0.0319762831243214,0.954396563378676,0.8033836188094907,-21.385831149618674,-0.6847985577599982,100.02605948445525
260,-0.06350129104966304,-0.01765447674575055,1.0073278519299822,20.849572654036606,31.01581353264384,-6.327431404566696,100.00778328859768
280,-0.12662421658840128,0.0025109455962974104,1.0418345646560228,0.7608978112409318,2.886559513371547,11.778789092475819,100.02785138740488
300,0.1056206812250051,-0.03911441981307596,1.061600648143728,-2.7824099266645543,-18.251006176004843,8.940748103259477,99.96682800022266
320,-0.04832498042264807,-0.09902276900102044,0.9661123520742997,8.115981607844613,-0.167846420722596,-9.87000171444476,99.98201045325476
340,0.07362549694806549,0.04125857774139278,1.0111530034159222,17.379775360269164,-19.414401478945873,19.350981270156957,100.02743425741735
360,0.06770581906206745,-0.0322037456092684,0.9652515253181134,1.7051391209770776,5.6569672905508614,3.5040038722596556,99.99752746159967
380,0.08058065870064152,0.005922334699223556,0.9941211626778654,-6.440655607637133,10.43383580423904,-7.388289031461628,99.99770969895354
400,0.0002536690308122986,0.043273479346490784,1.0056758593575121,0.530641934974083,13.730679181962255,3.875037258253249,100.0061385916123
420,-0.02384882698813857,-0.021013098259923195,0.9676593676627803,20.654874886775218,16.00317962996985,-5.802110764555555,100.00158637846293
440,0.02494386084864961,0.006614515345981573,1.0044457498272978,1.8993741769461292,5.456121556084231,2.27681644910602,100.03246428586455
460,0.007812987609139866,-0.0011226423216705885,1.026098368774331,-12.261116556837894,-7.839295296527099,-16.66693395756243,99.97819240271272
480,-0.06608668071304963,-0.01955246811513539,1.0154431138849749,-6.126254511679077,3.814768016173815,-8.403655900431838,100.02049107769002
500,0.05105499162236635,-0.07603322768677638,0.9383494805446274,-2.7713744645475034,3.5950294658512254,28.45821021490375,100.01139239454106
520,0.021477646708964133,-0.061426016217296035,1.01078644725316,2.593016018356292,3.279450931230449,-11.46251351668538,100.00050197217568
540,-0.04013440722189742,0.02874157714854827,1.058136149718062,26.585387943305356,1.8035278973728794,-6.598317058359805,100.0103076135038
560,0.08701321676866262,-0.037263029051558816,0.9915414862514708,16.101260556947764,14.34231611356671,-2.372186475690102,100.01811960694266
580,0.02400053120667521,-0.01163068486951883,0.9433421320268449,0.8803404996364286,-3.4677483584131004,-2.638510024487949,99.99760161717656
600,-0.014852731572122036,-0.020812705206797563,1.030037817381716,-7.95687361581345,-1.185342460317674,-26.581300847341428,100.03990688718851
620,0.08883631194932341,0.03669821870715744,1.0105458626742005,7.295112172396835,-5.558672830690577,23.006384958735254,100.03684170269418
640,0.010069419604344917,-0.06725866301609809,0.9821961717308155,-8.045639909162468,3.2323543666233716,21.899760252523656,100.03211464963474
660,-0.014971454253703066,-0.04708032405984435,1.0196772020660323,3.0563995653961493,-10.431219723433173,-7.486918662821319,99.98826898583627
680,-0.022532139361483565,0.01138686986652017,1.067482200447289,-17.314976912720347,-21.765247005291926,-19.63432199432851,100.02364384398524
700,-0.03752478777813052,0.12171821310714336,1.0281140951586945,-19.842314421013977,-19.863692750026882,-9.005202105818045,99.96722659771189
720,0.08976823025338537,0.02800075997136798,1.0242673944214404,-14.651751951324986,15.171692732307054,10.823230841266309,100.01076911894091
740,-0.03368282166970823,0.09220835474444092,1.0052644919394158,1.6382911692564524,10.068649534699421,0.877347442944092,99.9952995266349
760,-0.049032426318928464,-0.03166268792832274,1.0754672551564468,16.347828672119693,9.085578224046749,2.203944890360386,100.00552004414128
780,0.03004626510152443,0.042999900852089795,0.9736794841801486,-12.464552459128932,12.553284352876474,12.245585656214335,100.0287664692611
800,-0.05929633776952246,0.028567670239676046,1.0470180618595866,-29.628807810103716,7.065098563746166,-9.91256583838714,99.96576063816039
820,-0.009218343259120415,0.03513566949907795,0.9822385307649146,-2.161841985999893,24.624065078911293,23.925145228625112,100.01096034794845
840,-0.05498146438692986,-0.00940637776524534,1.0178415641251475,-1.219744697755321,30.61923232346625,-6.8384773189121475,99.99688929440016
860,-0.0015351980604597498,0.05132264448322266,1.0384570225247933,1.2978104666354624,1.1822018425249252,10.477481859569593,100.04960919055317
880,-0.06329540472620152,-0.0991940315658893,0.9727369979441609,-7.750322929659921,5.153705309246931,0.015186209112305213,100.01518991949678
900,-0.042077673386158525,0.010427667288841758,0.94315501593228,-19.80387721420983,-6.717197882601749,-2.1267506226492063,99.99412833528123
920,0.00161669883401315,-0.06448940300964222,1.0300147387753813,-1.8536994274579286,8.846414111601316,5.671637645732847,99.9932994887855
940,-0.00904123229401792,0.024849640094510766,0.9923167171764986,-1.3219277050322467,-19.496892369260053,21.165197627688876,99.97396754607225
960,0.02297444421871493,0.038295743205947815,0.958740827353985,6.1848535634052215,17.956960159653796,11.795837393860246,99.99965664524127
980,0.06723461102777033,-0.045983156378429806,0.9614221956056453,-1.2902150604007026,-15.841798557158159,-15.982061385247404,100.00160392441605
1000,0.06975945523420923,0.05368441574319771,1.0503205453842401,7.522317723063928,0.09771226894026402,8.002767611645547,99.98655729686782
1020,-0.04807395683262891,0.04272996884959359,0.9521253018276761,2.5862337984251464,-10.035315747650113,-2.857364343753913,100.02628746567703
1040,-0.0952652345581088,0.018903197366945734,0.9368795555914787,-11.358131888175224,-3.4009634080389586,24.30931069188032,100.02337233247367
1060,0.11912720365088232,0.005312559519104,1.0596798208045133,1.9756749707309478,13.958729670172438,9.314062335349938,99.99271059595287
1080,-0.045884080834715096,0.009349168339629028,0.8746790708769684,-6.4256495366485415,-9.254195428730732,1.688084128742579,99.97941642487308
1100,0.0016912241925618656,0.009226425917312119,0.9543179061097391,12.569030179032518,-6.760469893641773,-11.997908737955946,99.95826224984538
1120,-0.04204808922292577,0.009198115170913899,0.9768786347759728,-5.9811849735870215,7.621981181350659,-10.577556882870907,100.00712505325059
1140,0.010862456742635994,-0.053939436656939566,0.9769705836712974,-9.400427255770971,0.16435107210173772,2.7061270187089486,99.99662089209632
1160,-0.09450343179444493,0.11200534567588623,1.0585511549956315,-19.255597566452863,-8.08709169250424,9.249540126207538,100.02650978567425
1180,0.03309036272242609,-0.04314080631057109,1.041421883721371,4.972100957218578,24.44283986234353,-16.454589887394015,99.95745617416232
1200,-0.07701495344198457,0.07514361862655888,0.9213240471578408,21.485895164785788,8.263696081079555,3.8797768402399244,99.96958123349188
1220,-0.05681092412005188,-0.12212403947636047,0.9583189287368581,-12.131119965775916,-12.153849467050332,-17.9539498680037,99.99137678701878
1240,-0.06027579432204022,0.009635543758625678,1.0089530898077768,-7.0207828825006695,9.130289552364442,1.147350954380149,100.00852795774902
1260,0.020040200291338423,0.016479987281234613,0.9810411970906758,2.5590970543560934,13.780433301549316,-23.93202444061727,99.97424709328726
1280,-0.04964497704085335,-0.04455835817416109,1.0141321233015048,-21.981786071360094,5.138689543997797,-5.766432855225448,100.0390734256714
1300,-0.052129579972712996,0.05326851258854535,1.0763437768696669,15.589143482830814,1.508195068621305,-1.6384286414866915,100.03012118512459
1320,-0.01569823923387714,0.06631288428510466,1.0201440794490493,14.749126761178399,13.294128488142972,-15.12123798901705,99.99401113614289
1340,-0.032770376686998164,-0.01869116918866345,1.0162757726415983,-5.2331535645812,7.408230954508309,-6.907307658717774,99.97212860794322
1360,0.06606491086894069,0.02388056594363712,1.0201076171457886,-10.949188925192232,0.9958997553485401,2.879977925371798,99.97301235385461
1380,-0.09765156200384656,0.061466478197454155,1.064796657335637,5.4022415784824345,4.637734424678981,10.281706969995115,100.00930893541022
1400,0.002103699729897549,0.0018602898282455125,1.0624284524313932,5.041349899931774,2.6715811177797884,-1.9555965472409529,99.99496044568971
1420,-0.02432435425711937,0.009640203125916074,1.0202278468932764,7.7552729988886995,10.675951259475577,19.668928728839372,100.00597253985887
1440,-0.027631505780870192,-0.04734877182186201,0.9208116119782307,-12.83788548544776,-2.1798024104391915,-12.628549757693449,99.99159569769172
1460,0.04484046180223908,-0.021758728310115903,1.0645765566385836,-9.834495238217848,-8.756351008127687,6.432603812454424,99.99037345713658
1480,0.023695786639262167,-0.03549531774344237,0.9857253677196013,-14.3025995403037,1.6005008554193023,-3.396958603957861,99.99954439639441
1500,0.04622348575994739,0.010217662722475606,0.8995846073103495,15.98776670546815,22.713005309931347,1.657069622755896,99.99843216743578
1520,0.03582603274811575,0.036145852338181586,0.8783989500467658,9.203625767662547,5.618683940228482,-7.404805609101884,99.99060064930016
1540,0.05022653763580359,-0.004564459666071361,1.056691175121303,-7.398216605768663,4.448899961341628,7.06789443079221,100.00408645004207
1560,0.06241501804936467,0.015335821366389214,0.979369555366096,-3.844022005818304,-5.041964033098879,16.762390011984095,99.99221528266483
1580,-0.031068648197272588,-0.042857491071262,0.9604969097995859,-15.49083682654493,-5.370750210142733,-8.190873000128125,100.00039641256862
1600,-0.03232151653520681,0.058319930671072655,1.0586968981712044,8.120396586559249,-2.4651510428427112,19.41385588538655,100.00237400588654
1620,-0.06553879105714742,0.024387697240531754,0.9537684541866067,9.411137342172369,-1.2545226547403052,19.479369438807378,99.99818422658029
1640,-0.05775809990574715,-0.0069433386596945,0.9796868735862336,5.775284092629837,-10.138548240186179,6.622554008287396,100.01096015467108
1660,-0.05696198753596359,-0.033001915332503594,1.0548358403108993,-6.215511305234074,-4.905633720792949,12.62943859588965,100.01765250251252
1680,-0.041937090546987174,0.04514847507412306,1.003097399231494,16.950192677656847,7.171443471133012,-25.195545566543515,100.00448670498818
1700,-0.038768590470863264,0.0037139280159474946,1.031136289212795,-7.324410917791026,7.853272332682915,7.353843507461777,100.00884583292095
1720,-0.007538121850394192,0.008971442110387438,1.0840793302382137,10.838358481058005,-28.48546383098128,-11.237516333079885,99.98964025569693
1740,-0.04205906705073832,0.01568090974638971,1.041024297318501,8.610708359994105,-15.121208002887645,-2.2962643392262545,100.0295796651617
1760,0.02271496055418284,0.051806942806971935,1.05342144594574,-3.6238817615929633,-13.86010515322769,9.90846077416803,99.9807752725015
1780,0.009426572205978657,0.017704076307740062,1.0456613032378306,-5.5580264744384795,8.445144534686953,9.349995382956738,100.01199731829134
1800,-0.003545668585383915,0.0713018952715854,1.029515174000727,5.623602842392042,-18.75727929717259,-2.3559488200329946,100.02983985225228
1820,0.07759914521007394,-0.0393460529252846,1.0318774325764313,-14.50570664778408,-18.78367100656465,-9.253325958566641,99.9496198810191
1840,0.02613351520048073,0.001120449509101605,1.0468348166973176,5.260379891657991,12.384711013299613,10.886948090801482,99.98778771347502
1860,0.06542124188626647,0.053453364475499934,1.0198100717718426,-15.088204606859708,-6.361183173848131,14.41642595866099,100.02103823205084
1880,-0.012972553425807918,0.0636691824802456,1.0463267037136244,22.75419704169515,-0.37480634764295623,15.07336473222715,100.00074916755442
1900,-0.002327053063531092,0.028852186330832825,0.9969129620639664,21.489435437902138,-4.693883175725053,17.526041974341034,99.98359604058277
1920,0.000873240895947825,-0.0654945979757151,1.0168568125736874,5.5354074810477405,9.246625929129726,-4.850225280739237,100.00388570093793
1940,0.05588154750016871,-0.021323960933306758,0.9562018326985597,-5.459188665674268,-6.949365929979736,2.3374267842919143,100.00380004180033
1960,-0.06434122298134469,0.08621391330752495,1.0475266580642641,5.290893139734793,-3.016856670632341,-15.215972775668671,99.97639629321243
1980,-0.004379206627978736,-0.09628928955498961,0.972461861222712,7.222190859798637,-11.914440851782409,-12.367644047402383,99.99641085603143
2000,0.0695061605924457,0.022381666593430487,1.0187564985272293,-30.058785839827117,1.9674067243339168,6.219282960852805,99.99608579951983
2020,-0.019488479208688583,0.0020799512530737248,0.9945401318090776,5.821208548092366,19.37619543048743,-23.64809092029799,100.01038868069801
2040,-0.054799354272222135,-0.001568543703216797,0.974899802591804,-8.641395355977762,14.3507927862736,-18.08934396212607,100.01063508769171
2060,-0.02268837396845358,-0.03126604878599401,1.0029206395026535,2.5013587571721,-9.718122084098361,-7.352802474480325,99.96570207519026
2080,0.01955971059281026,-0.053996553844178785,1.0074518448951157,14.05663702857013,-18.437858603989106,-6.101080539816417,99.97877587036834
2100,-0.027634544109404992,0.1362490871960533,1.0238866365675776,6.885602620281252,-21.531919710868763,-9.476901780574355,99.98365477194072
2120,-0.015886306148260584,0.04589477561792976,1.0103124784750366,10.886567749749368,5.446550659134592,-15.908395768068857,100.01719450591041
2140,0.08753538367700181,0.0008886505541020293,1.0370427402695903,-3.752513311529278,7.603894578688354,-22.727477272308484,100.01167174168727
2160,0.041124080683226344,-0.027766072185756052,1.0534111487657911,10.922931449412147,-6.375612585804834,13.282029702203914,99.99335424739091
2180,-0.017423569181970938,0.015788489507659074,1.0330566397810432,-11.476386572912428,14.052672545200071,-0.5516298747803733,99.99983044945141
2200,-0.0030771532860560664,-0.08428376138676887,1.086143946438728,-15.712328070383194,-3.1533694469988856,-7.32575996574358,99.96998955785592
2220,0.07472722744059537,-0.007066366680991056,1.0599228986148375,1.8076187843214955,-7.612111445627638,23.400523823276295,100.01652041529164
2240,0.008374007590984235,-0.004900099790426977,0.990347067225842,-1.1509286022159242,-6.883626331401107,7.6948220228313,99.99541133726017
2260,0.0909687487107757,-0.08573851239202943,1.0806738491298156,-1.8519657889897982,9.604888714337083,-12.146834028350598,100.005415309573
2280,-0.039604589826150505,0.05235573439784058,0.9390165200061411,5.680279948547066,8.45414204371373,-0.9510907460441399,99.9653518026214
2300,-0.061555768189984775,-0.08223327457975964,1.0308646697938704,-3.0784007592588676,7.64194025048762,-1.339406438298846,99.95043123880018
2320,-0.043278511815171714,-0.0372174235668492,1.0185102712650145,24.922711253232166,14.934692956119381,-1.755069139183143,100.01039052757046
2340,0.04002399743178152,0.020992431197286915,0.9999434566813096,0.7468223082537162,13.63954538706261,0.01831969812668281,100.03082307651916
2360,0.028326590439374095,-0.03188233821150432,0.9919059983492262,-10.163370642356186,-4.890028546056413,-11.031066997257998,100.00443928280525
2380,0.0072697983450528,-0.06905590663249421,1.046964302708757,11.234248299297384,-0.33091399216336315,7.603991336161307,100.0305171629346
2400,0.030228988740927987,0.02953341884910159,1.0141205726980853,0.28100253397382424,-32.43654132210958,-9.34444161295897,99.97418264559948
2420,0.0460968303824682,-0.031474486705171535,0.9133713336235505,31.027119840993706,-8.379076555503799,3.8005330786374696,99.99240797191163
2440,-0.003985589896481132,0.010298910424250561,0.9879339017093783,3.074506700969245,7.9799349477808885,-18.75767841607708,99.97302816295444
2460,-0.12036163331835761,-0.020180384130471907,1.0290984793074798,6.8206458380634345,-13.308462037958527,-0.9771391902274329,99.99187065440084
2480,0.04454443835557831,0.005089110509908067,1.0176766649975375,0.24928050911879027,18.64473759059683,11.781224578393468,99.98839073463171
2500,0.008820870585452322,-0.01803416933577433,1.0314730134730097,12.354560837746977,12.354061822850616,-7.281286618084367,99.96638149540381
2520,0.01949885189148359,-0.033127806238694595,1.0238187239199161,-7.163187654315493,-14.954798571183016,-7.635172830495799,99.99048964833459
2540,0.06469771921264884,0.1401803291488509,0.9556336581602747,-4.271908041137051,3.05655739313194,-24.16099116488584,100.01239857070067
2560,-0.06722630073196305,-0.015891178126210607,1.060820275404486,22.705842436960424,-5.9478461976147905,-13.08260300920326,100.02825302504375
2580,-0.0709896614635081,-0.021166808251228506,0.8770464767831674,-5.162584479101612,12.080571135871367,-19.56192543782675,100.00982822219179
2600,-0.03226678100702548,-0.005142052286844029,1.016892514741804,6.788564093505491,7.321409390291232,20.02804763366013,99.99774199597682
2620,-0.02828582661449803,0.08827017881532243,0.9878424365443818,20.13344366412698,4.631922477493497,4.537664990498833,100.01898086525588
2640,0.053897307504988036,-0.003832368429092261,1.0357792002551407,8.725786977716389,-6.599051324329511,-13.935118273406722,99.98818470275586
2660,-0.08578369803974065,0.006720820085628002,0.8732602431917718,9.585516582231833,-7.00002222678369,-12.267660775366345,99.96960944600251
2680,-0.015189686994834448,0.0755735244024154,0.9351491097839524,-8.383698281042031,-7.4199014543126465,-15.248634559494036,99.98341469291537
2700,0.015033404556344623,0.04660064136529646,1.008375320320544,-0.49439110784563434,-4.345351293164673,3.6338976588295013,99.99048874931191
2720,0.01669112714086741,0.07998468667768287,1.0571739393104749,-2.6159107976730387,8.034964677295587,-5.019139237747624,99.9794632661288
2740,-0.0036861615725617054,0.05628250610609192,1.0614440646408592,22.59793960598906,0.029883198568264928,2.485987471462038,99.99367894591903
2760,0.04914892813268068,-0.034389503336833126,0.9570062861776185,-3.0799945843924355,3.594797002426687,26.89408127306033,100.00804638436809
2780,0.012240880963391695,0.03260242055553317,0.9363680449048025,6.98452950557777,16.076215333390394,5.361621882238666,100.0012357994469
2800,-0.028409213268182007,-0.0928202693807395,1.0052766921499288,8.22351025215239,7.231028028172875,5.384992817311651,99.98917524984152
2820,-0.00610743688682351,-0.02017629048923863,1.0005554418659937,-2.1676985327254172,-8.861057151256135,4.575477420379789,100.03172552031742
2840,-0.007937466998981525,0.09747108444131643,1.0117822782935846,-9.045458459896032,9.978948619267626,4.821366796540201,100.01280254431559
2860,-0.013700950218350142,-0.007456093417714711,0.9549739617403351,22.744185800847383,-13.507364914981252,20.20483720922806,100.00413476969061
2880,0.01077316494353632,0.019885685368196782,0.9960223166886555,-16.830445246192344,4.190432780255618,11.812899343456904,100.01866143378125
2900,0.07210610182740354,0.010672345240642232,1.058693678915321,-12.506477241257624,8.617230267143917,7.612697773056315,100.03857265525744
2920,0.012425620419692382,0.08675207104091766,0.9291082581610551,-28.390704687346414,-6.233539794437506,-10.152612626627352,99.99615460890895
2940,-0.03131417622653856,0.05450326400026772,1.0267374533420779,-1.420989372582338,2.015488768886618,-6.481428290247452,99.96548259694458
2960,0.0073659415194461675,-0.0183881088125737,1.0385981980166115,4.6295524279574165,-8.940510412474724,17.559866622487675,99.99922855713221
2980,-0.04006156157802174,-0.028601121176662237,1.0139682161410086,-3.4292023228265522,10.133992590230637,-0.2218509478139871,100.03586036822043
3000,1.9974096934576124,1.981551290543718,4.275692784836797,335.2219268443286,355.1347115410834,337.8307183122901,99.9848819919583
3020,1.9502119166704228,1.9681084762720298,4.339532109140949,352.6027848608782,323.88503155212175,330.4627270996186,99.46256875297648
3040,2.044669555464384,1.9480177099766727,4.256383894582336,341.6546205092877,333.43050612021176,333.4054913533934,99.46757817919308
3060,2.002327512232726,2.062567081985995,4.255035497337785,331.54798349910124,333.48142809676244,346.2965751956787,99.47256987792524
3080,2.0647990125250235,2.028729109655014,4.362616279424741,345.5291204283331,335.4064303706559,344.04048012636275,99.4336853420878
3100,0.01068499914306621,-0.026851063497577106,1.037296167041662,337.66668390367226,343.86541799683357,325.0280860214084,99.4346192731106
3120,0.040112445177462736,0.09446592511798751,0.09659403829711939,323.714824881065,347.0694967867541,336.341707992916,99.45232338605713
3140,0.01435863551919233,0.09470868634987521,0.16275274422546607,334.7991035697942,317.40617334402793,352.060903645873,99.4210596327021
3160,-0.012682410662241234,-0.02198453004907752,0.26609323532055135,-1.242711268496834,-20.931502510566393,26.57297863033307,99.45166617270498
3180,-0.012333337818168187,0.010994258593175111,0.28409632996417605,15.230148667233466,-2.2034864524987947,8.894740727682116,99.47616571494206
3200,-0.04657025858937037,0.11264881310101489,0.22067378915829228,-0.8554191169569072,2.7951813143101623,-4.043985863653092,99.47008693174253
3220,-0.06429022922642874,0.0652884958767199,0.10102073958360731,-11.045255128643207,1.633199513230958,-20.76954029871606,99.45981527049514
3240,0.03500094213648457,-0.0055014302564834645,0.19723648310976308,-1.0322376241078342,-18.21180821491796,1.0335015950379327,99.44443755057527
3260,0.03301205641268241,0.10973766921390343,0.1670667057822492,-9.103802339430477,1.5022434419089432,-7.047387722155193,99.4685517093388
3280,-0.07806480615543311,-0.026477230700236595,0.19706345589569732,0.3241188653551697,4.847689763371168,-5.71527502182565,99.45611904127158
3300,0.007384259893126178,-0.022875818133308985,0.17359077710192305,11.097661006910743,12.921424549144024,0.1921736056811875,99.42910556765192
3320,-0.08613732555039365,-0.08223135648447946,0.16784541307549442,9.035900973668534,11.196473231042338,14.847049647708953,99.48884021776423
3340,0.020917128118374588,-0.062343683235318054,0.11580519831112916,-20.531535129377993,-19.72806495623646,-0.2141919306736274,99.42573256534091
3360,-0.0661556601203681,-0.0007299639054707413,0.16736141217599587,-1.2514933842222178,-6.129148833875231,-0.8319267807909801,99.46278935759761
3380,-0.07670298549147012,0.0682076229816735,0.14068000456342744,-2.8300449558759255,-16.348973657520716,-8.31321524602803,99.47919684354487
3400,0.009857765611799052,0.04726547467142682,0.2112263115733098,1.3824206610260648,4.995538367553646,-18.1403635386395,99.42920629837185
3420,0.005623705559020061,-0.05878637524220986,0.18664868939125706,13.007526609066442,-3.3213690091035204,3.623617462585572,99.4532781827931
3440,-0.0023005788615974155,0.0015220205904720545,0.2735642366159361,2.8075421042500883,1.688579913870576,-12.305905836507218,99.4847105004783
3460,-0.08721723521451319,-0.039492307286702326,0.29050586545330576,-6.680094719915612,-8.919760247893983,-14.763668640663555,99.45190095955171
3480,-0.03179521019002067,-0.002334467088246419,0.19797036999529022,24.21739394962175,2.9234355394618907,-3.332583802473563,99.44089975117204
3500,0.024190119031891805,0.05588555747469834,0.23022583596011034,32.502255456221064,-12.213169147705365,2.158606035385582,99.45447746909241
3520,-0.11166962355560468,0.045692748717120424,0.23378308150202548,-6.809859814680827,-8.5467356456064,6.224541034304659,99.45826305424946
3540,0.025236319010215082,0.0068638358348731944,0.19281077978588926,11.39419632340017,-3.7240497837044497,14.93160646510564,99.4571584073885
3560,0.04905128748449428,0.0017774511314027444,0.18240977641399833,-3.520806250982441,15.237360629147144,13.468752589140275,99.44911415212266
3580,-0.03847057159459411,-0.05162027591910212,0.195631307092726,0.4736847291281396,-11.116787495722306,-10.937608391563394,99.42354482026857
3600,-0.003129035299930036,0.08980414739454863,0.16366207644295938,-0.7016404449882719,7.779899960480616,-14.993818291935309,99.44155326633876
3620,0.029310659004794366,-0.06421462053547385,0.1788734518896705,-2.665639882061957,-3.15007958548701,-8.10169713463616,99.45710758491185
3640,-0.11423066266773395,0.055399181801567034,0.17650542077332332,1.7375776051054217,30.58698921266054,8.686280457397809,99.4630779141179
3660,0.1123239639824115,-0.05261763988081303,0.24199135572120628,-7.766330178842146,0.1729821838607038,15.923503410721462,99.45439905036261
3680,-0.072921187991532,-0.047392526172065186,0.19637796800434626,7.091252969143168,10.86425383177569,-9.897745266491603,99.48302579680075
3700,-0.018248758996079303,-0.01280027184744784,0.1722553537793685,-12.81464051847265,24.225690293553093,11.1201441117148,99.48317991618362
3720,0.01638954477398528,0.10322722014804397,0.18648952717054457,-4.913066889193029,-2.930292590843244,-2.62823021630353,99.43919407947247
3740,-0.06119769883581805,-0.07987474086851994,0.21796575131057339,9.030795418540146,3.609168944705958,-4.607847108775891,99.45043543857386
3760,0.058477707137748705,0.008417882059075683,0.21514363186375232,7.334217709007838,-3.7146519112739655,-15.342802899618242,99.44529404689017
3780,-0.0363901641357418,0.09036925645142715,0.21614725454777917,1.334542491897615,-17.544486447422422,8.432868257978392,99.440366559359
3800,-0.0021055975641869886,0.061175974638374944,0.2199206302257959,15.888140345448896,8.2283334323682,12.774752996939782,99.4287980200083
3820,-0.004249400964598449,-0.024845064794936103,0.27396105870077386,2.1456341629102273,-5.494176134493273,-19.547587910560008,99.44817626253763
3840,0.07038659956816799,0.013647303789309685,0.06822405570959011,3.516396983196498,13.899014590136355,-10.199069970160767,99.44168321151056
3860,-0.003682191741342117,0.036025534572940554,0.18123873107183253,5.830954705361712,-19.872032941278256,-12.234764595008292,99.44467970939903
3880,0.0693904750169721,0.003089494414804375,0.19449276737530527,-15.710573635065455,0.8086295689088225,-12.261914120856023,99.46339911733736
3900,-0.00595107443321251,0.03820698286453257,0.1383341391101339,-16.234959457815616,-11.105621681770117,8.958019162020188,99.43268166234077
3920,0.06923546425174186,0.022606484873305674,0.17791341003581326,-9.551608927718913,-2.3087496409444346,26.619120194963585,99.48166907560677
3940,-0.004523969789455601,0.01976627136640771,0.2627437633418484,1.0899861528108896,11.381138431364455,-5.451981273267405,99.43955606997632
3960,-0.036236993106897826,0.02212743334169834,0.19640246055481275,10.650915010678464,-8.40594922310553,11.189496840686303,99.42495906209493
3980,0.0716914215360859,0.004104203609215863,0.12000540574769644,-2.1132169299607653,-19.994472109364423,7.554129734433349,99.42849160729286
4000,-0.07868247994602873,-0.026291098726755554,0.21037777301995356,10.228995148975205,-9.152189586835846,-8.064008045116843,99.48087120696547
4019,-0.08413895856022494,-0.010627911716224028,0.24429437178508434,2.7500876770391,-18.499935513238512,3.1993721134938973,99.43638336939553
4040,0.007517195633320062,-0.16068936961839347,0.17768139459546126,-2.0379227497240255,-21.94329044905412,-9.8853748973544,99.47458394223567
4059,-0.028496887844221587,-0.06408272055252118,0.2533847215608469,4.749762046664135,-5.850430208040434,27.442707225931002,99.4641950249641
4080,-0.010659566454332714,0.032402704792954914,0.2307506356083886,2.355002587385065,-10.786916556816344,-9.972228074845487,99.44276031130643
4100,0.007041400478971203,-0.019475180331684164,0.25472112818668147,12.850218247860871,2.309143633291872,20.337765812932098,99.44341262499627
4120,-0.0011517491295347728,0.016523587804942,0.19265069403854848,9.185713189802524,-11.401847143994786,-21.362745272123565,99.41233295465064
4140,-0.0398054482401546,0.1143708646415939,0.33688256470840183,3.589612222654136,-1.0841763057200235,16.1001935829203,99.46243020035004
4160,-0.06037859503851674,0.054091836333887394,0.11931718823564513,-7.7392369413049344,-16.96897451728992,-1.3165768588254765,99.42994796552232
4180,0.04875749301622861,-0.07350672761971894,0.14892096162017915,-18.202126992738297,21.79030699289351,-15.28468616485426,99.43655024294308
4200,0.010771188937915456,-0.030569684514609136,0.16926495157641444,32.792763558734414,-5.9519500986124605,18.15660855840754,99.46983680652141
4220,-0.04220340472258356,-0.028547250508063678,0.09257314025131398,9.779258684681594,2.2797569886392215,23.26545082458821,99.48896846907918
4240,-0.07987001273215168,-0.009719769644728878,0.22032891675145022,-11.529253532597641,-13.137912073520067,-5.474725310970965,99.45428612573548
4260,-0.04802565124540004,0.03453780943815898,0.17585388967393367,20.209756342933986,8.661116106926398,-17.106592190657683,99.45315451828276
4280,-0.016811998253696236,0.028917191780016085,0.21561899152736386,0.24954500303625482,-9.295225163511354,-0.6732963092958895,99.43192771431319
4300,0.07860020221133683,-0.0005186453254314804,0.2209995265704308,-10.679095364748916,13.59865042626365,13.454324286901876,99.43220725568116
4320,0.05656998865310309,0.00046032020192950264,0.22173118521082633,5.0735182986511695,9.290876444015769,-17.192707683243267,99.46207267287635
4340,-0.05459224393814519,-0.0553854312759583,0.16685949554763163,23.885979713253093,-11.126479511310075,15.230955301059822,99.44315515566612
4360,0.05286651635146879,0.016975846762549148,0.21224059846017787,21.714372646991375,6.509918540441573,8.346358163685428,99.45652828848819
4380,-0.09993122075583523,-0.03400209261958084,0.20135961859230805,2.810918054463605,20.27105743079028,-3.7810700694628627,99.44740422631648
4400,0.09816155705882797,0.06085184199345835,0.23757693253734527,23.45204106569722,7.7686157270432155,9.806180528320816,99.46878676557318
4420,0.06025683563485325,0.04746850692382481,0.13662460385648767,12.533729031299693,9.420853527893742,-8.896054103731919,99.44142933410284
4440,0.01776218924184555,0.0715144710413672,0.1762655424819916,-14.22343363543941,-16.442561531319555,1.2502878607092796,99.38838134949451
4460,0.028285180543277846,-0.025056962061817248,0.26619883023776303,14.477887830675854,-3.1765782985077853,-12.430622175433431,99.44018293409576
4480,-0.01849719736557835,-0.0461355703176158,0.19886745549434187,0.3661852183741794,10.595893972205062,-9.451252103911461,99.45487066352841
4500,0.010590012004490066,-0.029108849495492445,0.22681551170256764,1.034667548549585,3.248329734557137,2.1833778023819894,99.45890210508921
4520,-0.04094630475340408,-0.027126559581312683,0.19325329736985292,-0.4487416461208974,4.447598052084309,4.023671060238385,99.4399925240529
4540,-0.07553477308482978,0.0008400125129426439,0.26634914030370177,8.16766151661638,-9.494093425926867,-8.772751185310025,99.42920129673679
4560,-0.005688158734729605,0.014685228416148128,0.2682955192880847,-13.989318965178818,-13.708686721167199,3.5893051337180735,99.44287080006332
4580,-0.0026357857573201388,0.00901166707348544,0.20199145289349088,-3.17179556568315,-10.593866392360043,-6.200798527846189,99.44872146618853
4600,0.05880484964798524,-0.018672517730395268,0.10712810722057534,19.73445075645612,0.6266349298475884,-0.5657669941540754,99.43074985655706
4620,-0.04651152193758006,0.023780104053739235,0.21303384904058006,-0.48404876781444794,-30.474006744538016,-4.21331358284338,99.44461855683878
4640,-0.08437771848053355,-0.04685424839616499,0.2031417387233091,-10.525711301433224,18.453686240751768,2.959011351759483,99.47234852057136
4660,-0.07504308176177774,-0.03158643845402166,0.15863800776345027,-0.5160613628227032,9.674036081687683,-8.210099447495484,99.46899429349858
4680,0.052327700928367415,-0.09383739021565572,0.22220428455252644,-8.036900142477208,-0.5666774698449244,2.3053446217103795,99.4655035117488
4700,0.09678155508741636,-0.01628553794832481,0.16704224129290635,-4.768502212926883,3.5174993955942897,14.598706847395427,99.45785193094478
4720,0.08720446056610565,-0.013643788294240783,0.21928835080284856,-11.94858432557816,4.6400329741138995,1.1805333841201286,99.47800950779143
4740,0.05169193403768724,-0.02952250313669645,0.17814365113514058,-11.049242731489027,24.029336539282262,-23.116251258115998,99.45868980904052
4760,0.0039564261229465955,-0.04719470573239396,0.22645493304454317,-10.930369543820351,20.49131876437405,9.431169678548212,99.46222736552551
4780,-0.07840125716168855,-0.023947327419404363,0.2249143791253905,-13.831739103147758,-14.599728797714738,-11.408525203525667,99.45291774616594
4800,0.024731710072097582,0.0831507417190093,0.18201744719985505,6.884516535043931,16.683753864974232,4.55655140157759,99.44668617752008
4820,0.012913986746743926,-0.035525918455051445,0.3197933026545093,1.7278546397959347,-9.260062653102281,-16.877918140952715,99.45250142584696
4840,0.022189197960449422,-0.0223763513773055,0.15989313124964025,-18.587555710569063,-4.271715900939949,-7.374863569240011,99.43747875887108
4860,0.14868226801712822,0.03543510330785264,0.12474341229255044,-3.43397059585505,-5.871489507458631,-21.507703327699573,99.47504096192166
4880,0.0357122181603589,-0.08092341919415955,0.21985468195965566,-12.875300652100655,-15.917142391076545,4.753545033199547,99.45828078478175
4900,-0.0014833855733351797,-0.03227859800659231,0.19827265829527393,7.26283197908765,19.31439424622019,5.183576815216694,99.47449191094312
4920,-0.0035227299338631032,-0.09562154697867907,0.27238742370321883,-5.990146759544703,-12.398775120450365,5.973323709492641,99.44657273340306
4940,-0.08342957449641546,0.030072410445968256,0.22902438810440695,-2.013230441850178,1.0051883669396697,9.915417700932771,99.44148274311684
4960,-0.0912869402354068,0.005988124935577806,0.18211020671285932,-18.114634873170047,-11.760931524167685,13.238183838807377,99.47226431975383
4980,-0.010464041500888092,0.004821194053691866,0.18272892580818015,7.237073338356455,15.544014949253437,-7.5504575487160395,99.41989693304349
5000,0.004189971273314867,-0.04577287336401125,0.30698215934161743,0.4524321418154569,19.758921649489324,14.385806044006102,99.43212178631069
5020,-0.04973560988130779,0.020341490458925263,0.15424527151221662,9.209742071210771,3.729143304929364,13.14715609421703,99.45179579547116
5040,-0.1399167284500042,-0.02754997588908897,0.19971468193416583,9.010383402633241,-8.641804008275324,10.121779478257745,99.46755661000506
5060,0.029616380353819832,-0.05794656729678576,0.28474240587085614,1.7287143317855547,-3.3228085906004807,6.893976429189271,99.45125335495824
5080,0.023814888048434717,0.09312301908271935,0.22532593187919137,10.101859229233828,-10.054747771780592,0.6897344777573345,99.43748517574406
5100,-0.03826693606419603,-0.011977133526239693,0.23531378569649836,-12.765268526961318,-11.44664361739624,-2.6954074935820573,99.4157320866345
5120,0.09080344862393755,0.012154690428589557,0.14732574944290766,-17.01586607847152,12.305435463704526,-5.019705296780289,99.40567522672058
5140,-0.07252774647894167,-0.04755147356567276,0.17811253793072057,-7.724947331210591,-3.5902001716222727,-7.336044823519476,99.43242343943768
5160,0.022380753880778845,0.038284324053835465,0.24264365987429104,13.208035150500685,-15.94384311139874,-9.6312101852192,99.41631090129607
5180,0.04001429567296572,0.038132949115447984,0.15379579304956453,-2.8966511585192833,7.214492245111242,-11.031175077007555,99.43096816892097
5200,0.02997325397489649,-0.04728194885001256,0.27516974228194035,14.229637101087182,5.345746415711101,-13.074900599584184,99.44967956123317
5220,0.02905165997542258,0.07716487370586957,0.1922038478552127,4.2815552070302605,33.572312408260245,-28.070861492749582,99.42550172502824
5240,0.04194241783348303,0.11798555899660189,0.24545259755136153,11.978099711464182,-0.524732436646344,-4.081316018284381,99.46110715549129
5260,0.03169084027072721,0.09904506269564509,0.14451527024163477,0.07319728649306449,12.617202319134472,-2.6894732409477378,99.45696054943899
5280,0.0025943746115191487,0.04605085238035622,0.2427164838104633,-10.711461343293724,-7.872364020647198,18.263887741412333,99.42483956303468
5300,0.023489350608008098,0.03191435300876634,0.2667878269619836,-8.0467858635029,-5.857056928510994,-0.3718799559127109,99.44375060992778
5320,0.03368163146773956,0.05287169943954088,0.2106406842263101,7.3114237321628135,-5.771405398988336,-5.013687604421253,99.4679959679526
5340,8.656900251193285e-05,-0.05783744776408505,0.17353047787677137,-11.395056543218708,-9.894893036832528,-14.709220655651032,99.4283927836121
5360,0.0069837923737620855,0.05270693397145354,0.2576420698179384,-5.310258219272198,-2.173210234966455,-5.602566959495316,99.4684893488878
5380,-0.021386640889018926,0.019150358740599352,0.22813018536109395,-3.6908739566538094,-19.836799901058885,11.018244287352607,99.45286431816555
5400,0.04539124785684074,0.04448819794474454,0.25876673819560403,-8.244103241781833,-4.731775462984937,-3.8712373597468206,99.47204123861685
5420,0.02321673834636505,-0.02586089803201394,0.21513756106099713,-3.363587362689332,-22.239374844239357,-0.3644034448267818,99.42037129134145
5440,0.050238339830074245,0.046326466459604775,0.13289177976893796,1.07037504463076,-0.6325111884661526,-8.409651194118991,99.43919596464136
5460,-0.04814116578838445,-0.039640786634633024,0.18386656840316887,-15.734904694941413,13.780247971014653,-12.88847600903928,99.42152392480067
5480,-0.03093273144144267,-0.038807195491806036,0.21451715578782057,1.4646583933413047,-31.343987728888933,-1.3766933477621794,99.44502342252893
5500,-0.00907927684302708,-0.03024172600043328,0.2755000726988286,11.248916121729508,-9.031935466669962,-19.833290778000393,99.46983721444752
5520,-0.06312999488460933,-0.029437315960364807,0.256655135051387,-2.9617260764629627,4.948406426629093,-12.26685342388772,99.41603997035361
5540,-0.030917032682420898,-0.0849693939515584,0.12273063633516511,-11.845238637564481,10.998915130432858,32.3328508635792,99.45086835262171
5560,0.011758500337997165,-0.03673573173985684,0.17725107308019544,-20.53503154560545,9.391430871358232,-0.45986778933648637,99.42890891073992
5580,0.01923498584279613,0.04597753218869675,0.144016988340248,15.824879116641988,18.106688670805475,3.4628784925638554,99.48079627695067
5600,0.03995707921262264,0.10413598912414908,0.2726253123619036,0.5758763231424795,2.843640687692552,-15.243674342302524,99.4880676798442
5620,-0.068353638387854,0.07009602029542507,0.25463599081278154,1.0458483159845846,-3.693249946561873,15.719469817485608,99.43977230785072
5640,-0.005928659431255717,-0.06647174402135331,0.20005336447182145,-17.012315240024954,-1.4948637493196237,-2.5053376662155165,99.43016680101827
5660,-0.07730978891763456,-0.03607726514470773,0.2733578469336411,11.45486017453294,-16.67040478942522,0.6414382150438764,99.47804685686418
5680,0.03531641129504109,-0.013707105964009503,0.23805968304360503,-2.0135338696616722,-20.092828323620893,13.173573292488484,99.45722699173206
5700,-0.04193990155359625,-0.03158133664847145,0.2333224809134071,-0.6651188359774601,18.287911325567617,4.098492381061599,99.41616644538338
5720,-0.015609175007128646,-0.03780479558187487,0.19658950867513914,6.624277846427058,9.197351378517462,7.276016715150726,99.4576654201905
5740,0.05618443460615918,-0.03569082559723932,0.28896126103130954,2.9586390160170106,-14.090160346516939,-5.028135843471146,99.42874835250961
5760,-0.007895181455966046,0.01998618032997139,0.1687746084202334,-17.010732257860823,2.380781815062245,6.30047264453148,99.46181323959154
5780,-0.0016165935798479532,-0.04983363155033838,0.2458766454120912,3.3502750536858916,-32.465734140521306,5.03527870862087,99.4723969176226
5800,-0.04254489027174646,-0.058091447088267,0.20226755143950015,-17.988395574709628,-5.974064539307356,-17.56681688085438,99.43881756636361
5820,0.05615367118196336,0.09923307692494929,0.12872354560386257,3.5129423785693885,-27.62852408209683,1.4892275888593263,99.44270443868957
5840,0.04347264338183339,-0.07035131059932336,0.17087377454717118,-4.049497391673898,-17.509044716797334,4.795219137710388,99.44888813565603
5860,0.004399520208499565,0.00176876587082851,0.10103867366616084,11.8831036140713,0.5929871718801245,6.2654909510186885,99.4504705759274
5880,0.030061044281726786,0.04040470003647809,0.16018227213827047,25.958103257010023,-5.669056746610359,2.137035673110194,99.42673075617621
5900,0.06861035625228465,0.05671510135025745,0.21850422057827554,-1.0238259228257685,-11.990819780020304,5.792245143442297,99.46217242339235
5920,0.117994312819587,-0.030677683470703623,0.07454574692943097,12.850500824213569,15.353213271694798,-19.46693034843333,99.47484409109356
5940,-0.04028244049050938,0.04256531864070667,0.18182619410485976,1.5305024417190887,26.503734390253342,15.145770755763088,99.47576903948651
5960,-0.030217580741848063,0.050243526657421295,0.1955248883229635,10.960885339905433,1.462204561312621,17.51730912315575,99.4363176854079
5980,-0.08070270695594557,0.05330011698838702,0.21079947727524992,-0.9635140778009135,12.013650829456761,14.934271567839161,99.42177240704922
6000,0.05249374889589762,0.01917090888871508,0.1672596475649889,-6.503731033009155,15.973783006256426,10.054108595784108,99.4554561621709
6020,-0.009969005899510365,0.043495415062594724,0.154353535877233,5.583458889850299,-8.4566890980054,20.861462364076942,99.47487233593496
6040,-0.059341073987414575,-0.03306716050450389,0.08503000728803344,-11.313819357863814,15.855317113392548,-0.5905616582317755,99.45520321342728
6060,-0.017975885703811003,-0.010473686597908836,0.26263391381129547,-1.328226563361239,-0.3278829128992923,13.626299024493242,99.4347688639348
6080,-0.016226362027273327,0.03683558048739447,0.2338630433794732,9.789063279361832,-7.532034990883735,8.826987922181338,99.47638366952313
6100,0.012854226373309855,0.017165422768607146,0.19933811433789686,3.192226108909355,8.626668854904443,11.255815215553792,99.44041264778485
6120,-0.06855025753251785,0.004761192843461644,0.28706421799474635,-9.912415261229434,4.153941168184567,9.814985070108108,99.44910406945077
6140,-0.018811223465900542,0.00364617358118241,0.1882821284311799,-1.767468321505944,-15.12186504988966,0.21716140005639287,99.4587605953563
6160,-0.017398418151638177,-0.05307008947787768,0.22160018867165263,-0.7650943317597776,-10.068840418603124,-15.894337025516599,99.4401391789068
6180,-0.02782159963794166,0.039475547092731315,0.21174601060764414,-5.614804588829434,-7.367779022273984,-15.478060104331739,99.44197417390917
6200,-0.015795787850347878,-0.020577784641886573,0.21315199122313527,17.265034126196966,-10.801021638994861,-3.98543563231045,99.44031348804418
6220,-0.006372542048061006,0.03553072847041666,0.13622644266418654,0.8183750543687249,-2.233810539534537,-8.667335633856712,99.42831271729268
6240,-0.009556168367471203,-0.07595866036783645,0.24589525444424323,-7.7804116212786685,10.685107323405436,-2.437547241747281,99.43618697064824
6260,-0.030492152592181427,-0.030738595834857274,0.20438035318215303,4.604068370815371,7.8216568510502675,-14.294077311767245,99.47231945006101
6280,-0.0017086062698257725,-0.019401717047515966,0.2262815206692291,9.029146128817192,13.643236495772953,26.989264787807073,99.44090653548187
6300,-0.08059783498664036,0.07086553295206223,0.26529056295896003,-2.821902979171624,11.924333755653127,-0.12272895193813399,99.49335774098515
6320,0.014919870535278183,0.0063291663522282845,0.2806105658865782,16.02880400169237,-4.577845437889933,-7.962180158783852,99.47811577619498
6340,0.024577080042434994,0.06464637895282685,0.16255892747019135,-5.745685584614239,7.066433433676134,-6.142160145000986,99.45661640040184
6360,0.02302215274975264,0.097010568107889,0.20687978603384005,5.870001203563814,-6.4172201192735585,-9.898656802836207,99.43720123532633
6380,0.030750397438832445,0.07934906482494875,0.18869817597430286,-13.565346338893502,-14.743985280105711,-6.967546025123447,99.466442503218
6400,0.046702798501338835,0.09222284404845627,0.14803674149687557,2.664759577098223,15.256763761956396,-5.077110215474642,99.4215632645476
6420,-0.092672433303396,0.010370911021011855,0.13772667123022442,-2.704355622805131,-0.6175797485323531,16.387300312697427,99.44655564696153
6440,0.008087169297063315,0.020090470036059387,0.21211082637837736,-12.53460414164142,6.754185896788266,3.9262655355248235,99.44034434919008
6460,-0.046146745609208256,-0.029113630234501548,0.239062271924183,2.9176789601020823,-9.09857326304564,18.11664735891263,99.45261735555835
6480,0.041705752224594446,0.045304675792944386,0.18321565040065463,13.729660573052413,7.594231429190497,-18.02989863864155,99.45416940387221
6500,-0.06687338922856624,0.052813610767488396,0.2629146888312362,15.045405786669068,-6.2880802330548775,10.708669053970063,99.43756533313646
6520,-0.02995781044620165,0.07300806044148021,0.18292151422314454,-13.71057496437587,-12.405845117060013,-1.7001525107665079,99.43299001436576
6540,-0.0059496567186673,-0.033734155368779155,0.24991038885368674,2.515339671227241,4.092403862542043,-9.660459200072605,99.44714749398231
6560,0.029406100286537947,0.005735821707017152,0.15912382780934864,10.841965329290256,-1.1698015384470508,12.045526895855978,99.45502591125246
6580,0.022618661907740957,-0.05701484659598874,0.09350981189574453,24.748628370730557,9.268129155066253,-6.685342965984464,99.42935985692543
6600,-0.020625439060282493,-0.036461807781233806,0.25520213814116255,7.472580483272117,-10.920142121065881,13.276376544781545,99.44926660894538
6620,0.05925413897992067,0.04767119254205256,0.1464465354316241,-20.03523298001222,-16.12859636284822,-6.725836091274277,99.46243110317876
6640,-0.04941872779043341,0.013347969218947984,0.22062259723595606,18.49024661945046,5.754788431288098,2.644939250138541,99.48322161917181
6660,0.08717543032180967,0.018664055998176516,0.13843319566107593,-11.209676141278331,4.442961651609769,14.232506336081089,99.44986103138446
6680,0.05093424331742033,-0.022643984209723213,0.15499426566540303,18.860710651431166,8.260058487032712,3.60059840644305,99.4524379542709
6700,0.0475299869981544,-0.0058325689002486514,0.24321006222624583,21.872398769833644,18.299414795926133,6.5328725237854215,99.48551530332472
6720,0.0981163406770687,0.07409530181840389,0.26702329559052185,-8.818191069938155,0.7488290299149392,-7.958552247621688,99.42263603113886
6740,0.027401628260811297,0.008464506662063217,0.2116058483761825,21.364232130256745,-13.709062403745232,-2.1321484637665824,99.45032650978958
6760,0.07148964703522359,0.011652727121776668,0.17487171614641514,10.888224408624815,2.347951919739906,0.7422935655848364,99.47484610635081
6780,0.011362755553563286,0.0002469796411209198,0.31546641655178437,-12.718642822348038,11.268770523466731,12.268897812589726,99.44727482519401
6800,-0.08879287543503511,0.03945714931527668,0.2475245399885706,7.0316187229008555,13.389947071097392,8.266221462258727,99.446286639282
6820,0.019133258574707584,-0.0775741265812106,0.2701714747584415,-8.913984887816717,-3.5280876043324243,3.5251493221789527,99.47032340615596
6840,-0.03545830237401707,-0.07397648313935322,0.25771253657179616,-4.016914377759507,-3.1986843047532076,-2.3826618012665564,99.44020648300204
6860,-0.01893609770113802,0.04013234910028801,0.2855206799111446,-14.757383860117677,-0.6745685207187586,11.702623867696532,99.4530186924291
6880,-0.09585043766205846,0.03801414712413676,0.25624067708750187,0.4327877107706781,-17.977104919408795,3.169164055235113,99.46891250679452
6900,-0.04386323633756997,0.06385609977207585,0.12974247753350787,2.1251470652690583,-5.8542704463990844,2.146256183375845,99.42407029381386
6920,0.07229128540013649,-0.0853749927814437,0.2342847003147877,-1.992611300798655,-19.49561639005726,0.5498348154606159,99.44350144271576
6940,0.03313939045065051,-0.019119543704844415,0.19694448412361273,-5.391958486791984,9.281185014302173,-22.52952817714476,99.4217118782392
6960,-0.043112266226281226,-0.005851719312859095,0.20633337805106364,-13.782123768135836,-8.472432275916269,-12.956594995386403,99.4215731163014
6980,-0.030018989497639516,-0.012825367255708998,0.2234168445993771,13.572476121020713,9.210023673318446,2.314555765683916,99.46850740389904
7000,0.04962926970295942,-0.0708220546609632,0.21368565800499972,-9.38089953551226,17.991201899929113,0.3316680155679108,99.44607500874277
7020,-0.003623630092019268,-0.038499375644593214,0.20140163772772327,4.143387484306866,16.990620693843432,5.919091339404126,99.4352930389189
7040,0.014035209885083706,0.0010412970090842874,0.18306861358249543,-10.298080319854408,2.887289084633627,0.333567114876931,99.46177809274386
7060,0.02484725141911168,-0.014790533411100634,0.22724767349546646,5.288163127721721,14.893174188375287,11.908275952569435,99.42425412718131
7080,-0.024523047091354912,0.06820537577477996,0.14245187764964035,-11.431064178150136,16.01786561765973,-5.326741051589861,99.44533742837528
7100,-0.007007595821894733,-0.008690342512473253,0.22558327146697174,-23.41243005895279,-6.447601419616705,6.156707701886166,99.42741676953126
7120,0.05097941490994841,0.0913378387828815,0.21992119040474106,-2.1516192377043994,-7.225291327888776,21.597030578562,99.44091559604901
7140,-0.0017571201331472207,0.08390780895932556,0.20042098803698255,7.905097101698582,8.342633814606463,7.0553291565860885,99.45489467012968
7160,0.011819455727007521,0.01489817647307889,0.20964253578184527,5.84010850282173,13.270200484056726,43.06420953797132,99.45186794428926
7180,0.008099328759453453,0.02656687470912284,0.1272890806980825,9.005247971593546,-3.0395832241284975,-13.059090933842512,99.48386858579465
7200,0.09507567459217604,-0.03204706329062575,0.20530364417204258,-15.21082855900249,-2.907410112127825,1.5374004626005573,99.43326084198169
7220,0.07795951886140959,0.01791935379970273,0.3670579745098624,13.608445493506807,-8.282519567392022,-2.9343184616896965,99.45968955426915
7240,-0.007062938483185147,-0.016821652339362583,0.23990448952650842,-17.802927174363504,8.005248777461198,-16.259994082383347,99.42243522846503
7260,0.044995753569010546,-0.004202814761927788,0.23412389967560052,-0.8979882545084754,-0.9818627037812893,-9.522500241989455,99.4740861216184
7280,0.024311474251734452,0.0022510616023224796,0.3220509448937363,-11.653123634739968,10.273810688311753,15.543703764212555,99.46242362321085
7300,0.032472748078165435,0.02955273520243636,0.22691880684193738,2.787109844208424,19.163965451501742,10.643835341072531,99.46832853118136
7320,-0.0008441569003894205,-0.056660995162321016,0.15651717518317398,-7.9435126347907055,-6.123766762324714,-7.564016340606035,99.44785417322821
7340,0.004950800813360118,-0.0467377933306674,0.2340683114171741,-6.722957182120893,-15.477294680501906,1.2605833992283917,99.45799043590067
7360,-0.02681459494479237,-0.07935954314206396,0.24373028148679787,7.3061383695080915,-7.667077549423022,-4.5661616433374,99.44654257868031
7380,0.039722223100367465,-0.0431071982611849,0.07854255283298571,4.298894378106695,1.067319708226778,1.322844621572841,99.43854011159384
7400,-0.012696227858254923,-0.07049253117612633,0.13728488070061157,1.530496429098465,3.350067108842973,-0.4059866667114933,99.42708684957934
7420,-0.061553732108458686,0.014004098982247276,0.14875108079996235,-12.412422194908821,-0.11746682683106953,-6.9686430473846706,99.42839146195779
7440,-0.04105701811898154,0.08678443174653112,0.22421384227969082,-26.561795087919783,-8.533259626140177,-0.42039735404725564,99.45483694185972
7460,-0.11022529335372067,-0.01184184064026364,0.14435555610691875,-12.27326030432732,9.156402510381396,9.235476872857038,99.46463904129746
7480,-0.0009054798719674546,0.014502511790629164,0.14228344145790456,-9.403978663366305,-10.129868081719733,-3.498870015246067,99.48151467111245
7500,0.10651537222953628,0.060117981659111176,0.18668042896947898,-21.996921841236404,-7.130576078639745,-3.6564799538409805,99.44003199635956
7520,-0.03135425040758313,-0.02985283880307072,0.12078587005740964,-6.149202096710244,6.187764448212738,12.379252101334416,99.46988248957476
7540,-0.02341077967771486,0.01710208273478157,0.12219624784294923,-1.9514008563089944,-8.441193826674523,-6.600348460896132,99.42937361931534
7560,0.0650479830027511,0.05855302485959466,0.22545091070906118,6.510029630714923,-5.759027585985573,-6.462547706737337,99.47921392015992
7580,0.03465882991692098,0.0567141620331303,0.17734450818919612,6.9428291882406485,-4.238297521473944,4.9474177627303035,99.44630951914534
7600,0.013098906076790907,-0.0006996257026263008,0.19433981411697213,-24.64747568982006,-3.2566053679949336,9.93045242368219,99.43988649703591
7620,0.004692462270364562,0.011721804909934526,0.16876283946042867,0.50367780991123,4.436889419559417,2.7148319902345603,99.48855344206882
7640,0.06801217842956947,-0.006404942307399034,0.1904519971019425,13.255712679845306,12.567239327191317,-0.010557119748107354,99.46235850114024
7660,-0.09495711422902013,-0.02516546499535103,0.23445597334507845,4.964969149204052,-4.506723316066754,-26.46524267355042,99.45327702625981
7680,0.03010925502727247,0.073053878889807,0.1874918114773468,7.595137006512195,-1.8654221586525752,8.382903586488531,99.4677270546491
7700,0.10587772425593694,0.06293261931037615,0.2341735398796031,4.087472485763216,17.356170589781442,-30.471239941752856,99.44313156772014
7720,-0.03780457140745252,-0.025061567083666164,0.2641731671890592,-12.598501600959427,-6.035674673047382,12.652185723124738,99.4481019988351
7740,-0.061266658460376926,-0.005063799221121533,0.17644805793300827,-6.799596983672633,2.2142939082245663,-0.1450100254238203,99.4576451643979
7760,-0.07891558288097233,-0.019904421165496393,0.14201389784767945,-15.2814695327568,-5.608302829845938,12.077203652311173,99.48998118456613
7780,-0.07537229371819198,-0.06546343067427633,0.240835607114635,-10.094568859321395,-0.7584741873405505,6.726677387239663,99.47202863640034
7800,0.03688997417579434,0.0023547246988407673,0.15707238131450219,2.5400355889160044,4.495115328654496,-2.025162432826486,99.45466780329838
7820,0.057373512873991776,-0.05968168661191675,0.2588799453669261,11.15620724758502,-3.1370943589103426,-6.386001522108652,99.44728899637464
7840,0.00436836292669192,-0.002621160288483857,0.07779069886507745,-2.11638794929964,-13.465318900445364,0.36208956847625234,99.46181813126087
7860,-0.019625556860789616,0.005347680492680505,0.1804232321455038,-7.666656392014257,-2.80136639584625,11.585627672339143,99.44843780518204
7880,-0.023108367015862306,-0.06906313260330176,0.21817983876046482,-7.140436847269185,7.54032764346586,-10.777954111051361,99.44575166917575
7900,-0.05144456866647147,0.10471148314188035,0.23340273326337702,-4.385773184091995,5.249270647316932,-21.12544911173589,99.43330585351491
7920,0.004820159712716088,-0.06251682497400904,0.21442953200304166,8.55535099580639,14.523738161038697,9.185453040354195,99.46218680659507
7940,0.0068205587119346866,-0.06650707410456454,0.13759749891645215,-11.625228679967094,2.791649788647293,3.468576585524454,99.43426596565587
7960,-0.10461055745780884,0.08488398362288271,0.2764096286086976,-2.3873699370544235,-7.041294234619337,22.902328683230998,99.44303816421473
7980,0.022308202396855194,-0.008791002166900467,0.21874019684942206,-1.783734930688944,-10.364471299499991,3.9247286424399075,99.46742611332823
