timestamp_ms,acc_x,acc_y,acc_z,gyro_x,gyro_y,gyro_z,baro_m
0,0.045257299501632674,0.09863033205899083,1.007059823436111,0.16368234273660198,-0.7525711062443774,2.989889771287446,100.01388155775409
20,0.06335744467450333,-0.07907803992739397,1.01894231891806,0.5950161634525386,14.191988908107454,16.85921234804632,100.0148898284492
40,-0.01526318120114398,-0.01220869755573015,1.029217310965261,0.06146120738762482,-3.2938298013071226,5.410894223402906,99.99278035256303
60,0.01955633130309939,-0.039128742606879104,1.058738777790845,-12.734104881818151,3.2424714304093216,-12.008702105181913,99.97270313410479
80,0.01259868422913469,-0.07254946031253491,0.970255690147971,6.049559653361925,-4.197045275351566,5.960797257034724,100.00820955764001
100,-0.019261612079111912,0.018415689525374212,0.900425658681253,-5.673283678923062,-0.9507550430536962,15.829900838031751,99.98470337435444
120,0.01906326795438062,0.05445694951464473,1.015452892701284,4.172675004868492,-0.9277039286932569,-0.595057213955123,99.96740892398037
140,0.017731861649318503,0.020169957039054828,1.017023840904161,0.7782681432828663,-24.308635448877926,4.847049816881741,99.99862117103788
160,-0.07115028500060248,0.04342857299231501,1.11908126105715,5.334915399400536,11.774143015657238,12.694734705653596,99.99304413718811
180,0.011141606921217734,0.02805761006544021,0.9742935534753637,-22.35252596806125,10.67429537262529,3.928839815149882,100.01711348212682
200,0.14441419708606135,0.08553271484725043,0.9701359924839028,-5.576467587726677,6.7377961430715025,15.30784463669606,100.01421774215613
220,0.07559147279035627,0.002994717926266941,0.9953802981706844,8.590582630596032,5.920764199422848,7.22741499441028,99.9866793223446
240,0.023280853980905656,0.12263896643116211,1.0339704331742212,-5.162672450546605,11.994174306465897,11.104914210620581,99.99540529878422
260,0.022067633537515705,-0.0739885991528531,1.0578489371566009,-8.614043268473381,-9.306292504935737,-1.3869311486697642,100.00100084353822
280,0.014270787420730303,-0.02845194928855926,1.0541689294082377,-19.70117072291968,19.590768369065643,-2.6399320162872106,99.98686891376177
300,-0.007296025671358493,0.00817258096765669,1.0052004741805094,-12.362308177036379,-7.753474283412512,-8.310395540864508,99.9859005136904
320,-0.03807379827133753,0.04296578052363166,1.0288856177338443,1.8638251526625642,-3.965759641209412,-7.999568383357589,100.01430442940065
340,-0.05352950216493945,0.001652903682995489,1.031538183699051,17.04115231629242,-17.3933288818559,14.10733690194116,100.00474257366011
360,-0.04398526878490816,-0.03230310055310004,0.9636698568190263,22.180145166507398,21.47494043638794,-20.489976837401198,100.00184375661901
380,0.021409101157647683,0.0644932682048471,1.0281083882503321,-15.335491151148243,-0.7787745348977688,7.749337624115411,100.00603771620197
400,-0.02646634202121543,0.07410507316176843,1.0547809380667867,-12.37086774861309,11.05042116084659,-3.6900475016727103,99.99858144565083
420,-0.028559774071381716,-0.06876143408878992,1.0553062912829076,11.156692746412155,-0.9765950905414943,24.155407255588322,100.00424012257805
440,-0.019769704691641774,-0.051993775878724446,0.9417825915028872,-4.306021113690978,0.08936277762621757,-5.868181926028402,99.98362379843559
460,0.015435380188244002,-0.006952802584057007,1.0088957323475547,4.881103068585336,14.90751380800754,-2.0222680865834963,99.98682099822805
480,0.05290118993633552,0.08980505621866702,1.0102669639021256,-4.919893645432832,7.564205045369107,5.97312003188294,99.99122859059206
500,0.0033923611185968936,-0.031244753164245888,0.9090812688118994,-7.78081237976924,-15.551947695894246,1.5798320060482476,99.98430767098128
520,0.07786159007655424,0.05649203768606551,0.9602682859282308,-12.96863456276354,-7.935925024271031,-5.555356042709548,99.98595377474795
540,0.02488717010141434,-0.020406588918422938,1.030814491214139,9.042082428622617,-4.070174532288502,-0.8759419226700332,99.97504053614611
560,-0.006892328392167782,0.0153270244340462,0.9917682087173058,-8.733341365467824,-6.363563024353764,19.126552234782523,99.97440283929505
580,-0.05562533874643375,0.01188001477923733,0.9986594654260915,-0.7020849554980999,-14.798521255714455,-0.3031721019158804,99.96872517697729
600,-0.07421536505259133,-0.01480689142160132,1.0291970006722526,-10.307471078180331,-2.871797544283866,-4.472449736799183,100.00234642279196
620,-0.06882271225103402,0.07476389734390365,0.9820224763797011,-1.108816492946054,22.53454731463131,13.977387999252723,100.04238499830015
640,0.02781376665348172,-0.05022263463827046,1.0545225869691055,-0.6939894279179464,7.440709721814127,-8.610549519780204,99.98201226542857
660,-0.05193182178572717,0.03845443488125692,1.0043294621952177,-20.827742629153818,8.750550374281351,5.129184872705688,100.0327687152369
680,0.04615988814029518,-0.006284496895916213,0.9984828943196163,25.436110998278366,13.629517415468863,-13.538854883953505,99.98713954662787
700,0.056773991475077994,-0.03033127296603005,0.9805012897718094,9.944373541475382,-14.223984223855414,-11.943807179206292,99.99790503058455
720,-0.03459407180283397,0.06595561942788404,0.9113855158418316,12.039014604295819,-31.59901256258025,1.3331535754343373,100.05424851852666
740,0.023670625255107238,-0.035860206991161436,0.975285074022581,-10.130395118551379,5.216320691052504,-13.772674176962223,99.96438658408792
760,-0.019067749374587703,-0.022247151638864263,0.9909932120871554,-11.494152107492178,-30.243289706297606,-27.245204643613377,100.00010043217843
780,0.027165354620888277,-0.03266864375146596,0.938721705374856,-1.4785856086168465,-5.541241568522896,-14.04484614098019,100.01114671102529
800,0.049500561677914945,0.055054250948857644,0.9373899749595099,4.108961759538858,1.7121174779868156,1.8998154487664374,99.96612120369414
820,0.04634444900527653,0.08961524241728819,0.9731150702997008,-0.052686889764358064,9.091138254736716,-6.0541384605625375,99.9924037098553
840,-0.005427894728368023,0.023241637827743453,1.0264247823904151,-7.992361214022625,-11.021298237218758,-15.239732549754265,100.0038984324009
860,-0.031874945265959416,0.0815255358519965,1.004889983955819,4.122980836392777,-19.785318345705967,24.987610677205048,99.99153899996706
880,0.007064707562589383,-0.04834046278862936,0.9462313868221841,18.00681429407999,24.867723787602124,8.304020509844456,100.01541730186312
900,-0.02157064497371575,0.04707449988904619,0.9789166789545717,-8.586005317410667,-16.198089309997407,-20.245699331245447,100.0090236153171
920,0.08118319277871422,-0.022500174562784962,0.9872322125971169,11.37548418965686,-7.08758554248508,6.678823025770261,99.98490498315664
940,0.01701382443532645,0.05251465243542411,0.9696985991143888,-7.74478672176447,6.4538409846094265,-10.860471892423542,99.98669053659461
960,0.04087952944247189,0.06312695155328761,0.9994852408440972,-16.75518610054662,-27.162870127030157,-9.380979451679966,99.97029213858971
980,0.05351683112840649,0.013491536749922269,0.8938364580482294,-9.171682474930874,-0.3465137362233387,-4.917676547770661,100.00696722638993
1000,-0.0658998661246976,0.008245774492354863,0.9814619248078941,4.450850024350048,10.453390696890425,11.73820170439574,99.98974708774647
1020,-0.015905400017461907,-0.03779531580824548,1.0375823592318092,-5.855209733304751,0.05345099705861686,-6.37421691457889,99.99153578076312
1040,0.05427729300274205,0.1047125346550675,1.0862198266445275,22.629855413309244,8.07343873376681,-9.401794332969818,100.02662297984007
1060,0.04186201604646672,-0.028166260878164047,0.9756125962549101,27.23716168980433,-9.096925384569834,-2.0841802251711963,100.03106088461996
1080,-0.02471092673281322,-0.11559073479753378,1.022670012516977,-7.731686359056201,-2.5613217966868125,17.410156391389812,99.99934482225225
1100,0.012100192251054397,0.11003864707077274,0.9575575623762344,-12.465883236636266,-1.1232258234193442,-0.9773135209105974,99.98252884017613
1120,0.02818412471130541,-0.0017457166451032198,0.9071063218774171,-7.433402408871547,1.1530342947730061,-11.761211624080339,99.99925050604325
1140,-0.020227400998514496,0.046804313958724204,1.0673005794076769,-8.515193565480526,9.335257778905008,-1.4234739023025125,99.98623986411589
1160,-0.033460093302889564,0.04052254244665398,0.949391148032211,-26.801283349166596,25.910729333731688,-1.507118160498615,99.9752818445118
1180,-0.0093987398754308,0.04002225996889296,0.9950305451902297,-7.930269897151131,-13.336180479662442,-9.462273467717365,100.00773279255272
1200,0.024146144396462555,-0.0277029879736392,0.9868451689263876,17.834543785248844,-4.121778983882956,-2.554255075216898,99.97123951946885
1220,0.03244104969154628,0.03939555763961617,0.9545236639143,-0.784991181471091,-28.19164262566322,10.826497668270974,100.0103957266837
1240,0.004270176616443915,-0.008756761002284586,0.9198006724637429,6.818895831823687,3.592059016171859,-0.04034745434693576,100.01875979228848
1260,-0.0014756601428047153,-0.03737470491852723,0.9945639905516276,-27.51980388135155,5.431373130378809,-5.811915520609308,100.02778725562602
1280,0.042775256187899416,-0.005047313779367568,1.034189208709716,12.92850607023971,-13.52688317978151,-16.96028695339077,99.99158281617267
1300,-0.01844743735812212,0.07420263732444501,1.058134195097214,8.88886301729017,7.68616453188268,-4.620048903003425,99.98852010780317
1320,0.051522493987958023,0.012567428521138086,1.0490636317615245,-12.872778411090177,14.293954639517182,-12.634211386050808,100.01725069926492
1340,-0.014598883323236018,0.005770500757648203,0.9083816457864042,14.793273401517435,23.813619001673604,8.499183402586535,100.00239205447585
1360,-0.05059188932201961,0.024738001567967613,1.0222849200601603,9.728869842611608,-21.509864498039377,-3.3460099942331,99.99386303973212
1380,0.051766969227537,-0.008448458285978396,1.0268549306429748,18.30357691777789,-1.9493322385284206,-2.214479467269854,100.01163340628818
1400,0.025967549251386748,0.04089613724503824,0.9288996949188285,-7.178939124169847,-0.03059604485575581,9.091625611627043,100.00426981183224
1420,0.03116308421155403,0.01362485107739233,1.016697739535299,-28.53850490157584,-10.986145578868095,-15.244383937281047,99.95336305908654
1440,0.04452556544303416,0.003935846191337859,0.8541014903843611,17.138580929478195,-9.636934711859851,-7.930406170920563,100.01518703317966
1460,0.09347306221790244,0.02043256569028923,0.9670370099028005,-10.235477216951175,-12.063983915403284,-8.304062715446626,99.99380890825223
1480,0.0024604423419954343,0.0003908877288555211,1.049604576065008,16.063921273098423,13.121849853238864,6.397205186554446,99.99548622858583
1500,-0.04222245034803867,-0.05834500638198861,0.9648218887536419,-24.70070116681903,0.7537022572803265,-6.891930488378472,100.01094071693055
1520,0.04387221562483655,0.07338191008005479,0.9797258322983725,2.5901511980312577,3.331608363033536,-5.407839271069399,99.98062311345747
1540,0.04259937434716346,0.0064179120024433324,1.0392538913032583,8.972926891815789,30.613934131022543,8.476099248940464,100.02784187878368
1560,-0.020011406535678795,0.003584241821543969,1.0330610735223664,-10.301909102028318,2.557933020519605,6.903405694041437,100.01622172610978
1580,0.0054093442629596766,0.03325853027219048,1.0695586110067878,-6.753114438668196,-16.926733033471933,-5.921738810554359,100.00806110187673
1600,0.01313795386444123,0.003934538939930066,0.9646902275903403,11.573111484377286,20.86288608194172,-13.023563599938512,100.00372763563897
1620,-0.02650093171346017,0.03418262597247947,0.9897207694614955,10.390656700266684,-5.3926266390428905,22.02298024003517,100.01284708851189
1640,-0.0556228310502376,-0.0018124430439431139,0.9266298985407752,1.8348501876792902,-11.472993822570075,14.370901348483958,99.9855135998916
1660,0.058774546754044116,-0.014077147876603297,0.9504916837513341,11.273030759907682,7.479490380764105,-4.911232014498658,100.01177581499115
1680,0.015760549681188455,-0.08855989578384171,1.019599854091003,17.14559617728431,12.345565980918122,1.1129040923943563,99.98481660206632
1700,0.04344337879408146,0.032150556608121626,0.9449895522316648,-25.081972328676777,-0.7351085432140607,6.403744166860918,99.99199760632176
1720,-0.010467864297616272,-0.09737117232486478,1.0040301988779419,-11.875397430369436,17.566622115396342,-13.653643360161407,100.02290681715984
1740,-0.026970663924331752,-0.03751712138716291,1.1023085214069444,2.971400103654085,-3.4585196772473483,1.9987006857176506,99.97055278660028
1760,0.02196050204657348,-0.020991812184445877,0.9934917297667611,8.342643806412344,8.708193295581188,27.58411545502807,100.02009047192834
1780,0.0016922950572915538,-0.051513391471570115,1.092159876830187,13.63525020907602,4.864044070346333,-7.901046457102048,100.01770581328019
1800,0.020579862199598634,0.041042085764371454,1.0788263293633142,-0.7941342013332675,3.081306140765741,23.115987353074644,99.9846857996048
1820,0.009867854987391329,0.03395882722523718,0.9890846326484088,29.02379871610625,-0.6351119425949339,-5.144839926897308,99.9964011464825
1840,-0.017287609818889948,0.04290600402291809,1.019665112861478,3.0647279438941704,-10.617928638548907,-2.5409833016503707,99.99195958557439
1860,0.03988459405860739,0.07532208742894392,1.0208339799857797,-7.706845002255478,3.7012132919862637,-8.912971395397374,99.97999759896527
1880,-0.012572025981071608,-0.05177070587125933,0.9900028279117137,19.208763028663412,5.78767545249693,3.777204593682302,100.00904285356646
1900,-0.07683404093961534,-0.06273514489139355,1.0459904659196746,15.29356557177114,-31.20336583959108,-9.088760640881421,100.00215869647072
1920,-0.03940197576042398,0.04366895217021337,0.963572216891648,6.442470329831998,7.015641699264638,12.484215617897041,99.97827823323372
1940,0.001338731310267027,-0.03980139004886435,0.9795590263862013,21.20462847007963,10.390692456123887,1.5794014651954473,99.98636884921984
1960,-0.004664327494454504,-0.04845323553384971,1.0088482095322082,1.934586022490841,-9.160569813430161,12.013297844763255,100.0241797387435
1980,0.019963532181963665,0.028933978022817327,1.019688138838007,9.198312490982136,2.4250893132905684,26.482555044456994,100.0311854575126
2000,-0.04040793679848895,0.023049744058020183,0.9907455406432996,4.252504191277618,-9.713237241001783,11.319159117790763,100.02963004463905
2020,-0.034676801410951384,0.11000178343364529,0.905370916155225,-9.918581638738512,9.063644244151492,-9.471561620034123,99.99738523652825
2040,-0.036239674830991477,-0.10255022296006244,1.0032041174639625,7.142993281571812,5.464779972006586,6.368902175737789,100.00486585119124
2060,-0.005898061335811489,-0.01960494267416616,1.0034307765612211,3.468760033208242,-4.769718689759212,-9.171742362757254,99.99630786275537
2080,-0.006392305772858296,0.027444591083266835,0.9688446662266529,0.9266568040516769,10.287247312622762,20.703592567303488,99.96375159557145
2100,0.024407139013662395,-0.07503653342039501,1.01846618365028,-17.851310841590873,13.571514871850612,-2.825248577283171,99.99697234750721
2120,0.010707601505687654,-0.08273117606133493,1.0853954692463526,-6.193213291063183,25.189745281268472,20.878561098513696,99.99516334379332
2140,0.06614621167042399,0.06339552040387712,1.0122143368854648,-13.38848612811567,-7.8534470169456165,5.478502466599628,100.0113557500797
2160,-0.007983942642986937,-0.0671302028155165,1.0518961358243515,-10.452360840435666,1.993926029804689,1.1979072419243884,99.9854183053266
2180,0.0028378582428881865,-0.1375601891603887,1.0248303832272172,19.567993664742374,-9.244094218319853,11.1409701647348,100.02417076423387
2200,-0.08163491711243226,-0.03942320359526544,1.0528425268071462,-12.980447632931337,-2.068948308168608,10.918552558266422,100.02290927342827
2220,-0.10283236405325161,0.01702453494436963,0.9645530858489013,1.3096833317185474,1.3623837045221308,5.2550515392623165,99.97302205366864
2240,-0.006905076830269797,-0.02996799477085639,0.9823560332684677,7.214067183587877,-7.396518831036516,-10.025412885397282,99.99902516152358
2260,-0.05109289329875852,0.037075705294013016,0.9713009966580417,-22.851828696540753,1.7502937693901657,13.788954252754753,100.00382713864414
2280,0.00831907821740682,-0.08967381373699657,1.0203212308004475,5.183245839069453,-23.712405044685234,-6.083870697708377,99.97358245168859
2300,0.0011273078529966142,0.010147744084207521,0.9922296287202255,19.242175220925443,1.204777312773918,-0.9801703287014221,99.9833592735505
2320,0.019123076183173462,-0.02556640330015011,1.0879221173474578,1.90143887621109,-17.170084125733368,14.793027392781838,99.99027578818716
2340,-0.029570110154737775,0.001632140852687109,1.052017369029675,-10.945406018259455,-5.460310890323212,25.126923962793576,100.02475904199797
2360,-0.012812875204635803,-0.00027312183743434537,1.0641208425006317,10.690120792287791,7.357479769480863,-8.476319903307331,100.01352765967671
2380,-0.011049007494413177,0.04969385818732199,0.9541751714450589,17.410661927442092,0.957608634422162,11.289373696888104,100.02038331121673
2400,-0.03781155682370086,-0.041186277044283064,1.047773527781727,-5.333711242018787,-3.148956634253326,-1.4790546750965718,99.99259507037813
2420,0.09339255143521052,0.016940744470994525,0.9403162280786157,5.945642163787914,-18.497233919609126,5.416255898621333,100.00145505028065
2440,-0.05105210924411148,-0.020053878091306945,0.9408988279974008,8.410551196918645,-14.525373904472346,15.376629885707278,99.9904310374072
2460,0.04477638516189925,0.0076752815426167536,0.9022605024074951,-0.5371119995938345,9.311710033512345,5.892653417777845,99.96310928504218
2480,-0.05253053654468344,0.04915950374923206,1.0796503010581828,-9.421922286215814,28.17602430001613,7.888618013262629,99.97091064255204
2500,-0.001089768461638415,0.025867122887026195,1.0373856005167366,1.3896965427506653,2.89784731117438,-15.12976451789969,100.0175462224551
2520,0.0020171907220082248,0.0016642194013945597,1.090539157934884,4.7738159322184135,2.4101095319793373,-9.927259455499767,99.56677009510533
2540,0.028623070688212245,0.025173840940287545,0.9747779842622091,0.7320034884143074,-1.2831681201139764,10.639420633109637,99.51900674090868
2560,0.015280599431836715,-0.0926196462428176,1.0732205223139553,-11.51321384215605,22.861191177824093,1.4418881572531614,99.53071036911136
2580,-0.10032660877384779,0.07691898536420036,1.0182853076375404,2.728124740160236,11.935968841004733,14.020467547714905,99.532219632768
2600,0.11132210662341241,0.010449473674239177,1.020014796415037,-10.301620531289046,19.032020080557118,14.57222772018639,99.57717140370042
2620,-0.142182237022124,-0.03317729354508761,0.43403548111650236,51.6457356140318,86.53604216722812,80.30115327300162,99.5820403378154
2640,0.0546382030438316,-0.08388888773217612,0.3111932319264383,86.93816597483982,83.74425059832592,95.82109333462647,99.53906717397993
2660,0.0006142882193657418,-0.021881596523388544,0.31167239524198825,88.55303247862744,82.3162966466628,76.58713779678624,99.56795825629357
2680,0.012975521504835962,0.020895117640019983,0.3842053788354725,70.29355358583604,85.29741281203553,78.13450249234516,99.5529351327404
2700,-0.035247309554631026,0.08608949024075738,0.37353059204243666,92.36010058100632,70.9274780283767,72.05256001786931,99.55647868208784
2720,0.10244997191636607,0.05345929927853928,0.35748503928173686,76.81735319732606,61.81053619158175,96.72541481794619,99.54584485958473
2740,-0.007053187119810753,-0.0008838217807505343,0.4369769248257381,62.6528359510809,83.47078082231897,91.10160504383134,99.55125046612056
2760,0.010598847806669665,0.03884208162930068,0.34991948032008013,87.73022214339677,87.71865407413851,71.95517564910708,99.55066173697786
2780,0.03585344698598161,-0.060668181486808706,0.3439507159579394,89.84536548109897,95.44460594213261,71.07080394215124,99.53561077668438
2800,0.061298294512414364,0.04980968955735001,0.3973579927536597,71.43813638239062,70.30494667128274,52.03608650481816,99.57778910810217
2820,-0.054844980723250995,-0.01367107836621332,0.35948340372308946,117.45277060862415,77.51951313621498,95.81746226369205,99.52670026545661
2840,0.026212361599264728,0.02385741238530252,0.3157112639642136,79.46438518692774,80.8649899188886,75.86949099339878,99.60886303753699
2860,-0.04528765318315084,-0.052501577135296865,0.349959075341254,83.5107503178195,58.320563760674254,69.42706050090055,99.57425051664852
2880,-0.0064270497937414135,0.04008280325706084,0.32186167732885207,83.62988254413308,70.91224711763657,49.28993381994744,99.53937575532146
2900,-0.05083269670551124,-0.01653945645806788,0.36064059089038103,55.87917309393911,74.25815359844655,70.10869670703516,99.52164604530783
2920,0.053518805398227315,0.08601650113982767,0.36784500556318545,76.46795853694458,85.8920126015372,81.0875965059874,99.59636404969562
2940,-0.06628170668582561,-0.04461616416673595,0.400923511684805,71.4172230102734,87.88499940126036,75.41698777811517,99.54255664071844
2960,-0.035355763696236775,0.0032143672325126403,0.39538368934666834,90.49853353919706,71.18596736742708,82.46585774908165,99.58718485547755
2980,0.04285503457988826,-0.02292746403383461,0.2767178508287091,94.91537117798664,102.62053646983654,90.29718353944497,99.58405251201188
3000,0.009337761678503786,0.024253476597076204,0.3243026167554913,80.45173051595435,67.73670287070547,69.06716957549096,99.6113961067553
3020,-0.003028223299904935,-0.0815296857000171,0.3140995365064204,76.52841493338863,90.23106228426582,80.5179622114415,99.56187081764065
3040,0.036565820084562516,0.016312704246356235,0.27991502376533467,90.73167556346414,71.01753090660598,96.68128182929986,99.55081950663558
3060,-0.017743477580456714,0.004610018030093252,0.28323445166448263,84.31906387999976,67.61272125473431,66.07953037250826,99.54151985861958
3080,0.00897693139700453,0.0070373112893037555,0.4411886325632529,82.44064739097765,61.23025745184199,83.13306331621384,99.50494489009579
3100,-0.05388206799705725,-0.0012735271560903266,0.3034542184721635,79.50960209197191,101.04674521613282,77.03837651652945,99.54618170106707
3120,-0.0006603850427765371,-0.046715363540308696,0.30911789655940985,92.1416058546665,89.31947568376034,87.14973908485914,99.53883865309265
3140,-0.09654493344311083,-0.04586276609981127,0.4012013015777349,92.93122875315763,59.0583717372612,72.624439762861,99.56759145775197
3160,-0.045901236111931504,0.0027361885258917512,0.3156350936314056,67.6324839216411,79.10580550596987,83.8532960143921,99.55218911055536
3180,-0.03248846987429332,-0.032796355979299745,0.3091782461850556,100.59191751510318,91.58386658700327,80.13932174467762,99.52586774865287
3200,-0.0005648156794404798,-0.002619062007085697,0.33846819333709266,72.60167368038863,79.24313809594396,71.24401200257849,99.53562927468637
3220,-0.06692265344276728,0.002951850538603657,0.41264572583625697,68.98694675945079,92.63417051280422,66.24423671302895,99.57101707429395
3240,-0.006189625890382155,0.03733016315234895,0.3231366597323342,77.70646490137442,81.31087589690927,71.69870528627125,99.54586539175735
3260,-0.07062416590642133,0.04493532893819227,0.3683180650667756,81.3972893727869,71.73212923723358,75.01513178770324,99.53014565729994
3280,-0.09031975792250635,0.09013940321758644,0.39915649988854507,89.7842403825467,53.663652242933026,83.00538690299518,99.55239551328133
3300,-0.04456828482793197,0.0042586621626761875,0.30929843586068406,72.99355619148761,99.30234650212586,64.2020129555494,99.5162429565114
3320,0.03590580535941126,-0.06506145622378692,0.3763023727333177,69.24307986285078,78.18542277534681,76.16699519748262,99.53822411702166
3340,0.02477228792930476,-0.007056693030553153,0.4421829456484102,90.99953377822966,60.96219041110207,72.19461580755029,99.545424628515
3360,0.03263129368078524,0.022738148908295022,0.42390030221798825,80.97172989254838,83.28003339553531,90.8062856500048,99.56763654317004
3380,-0.039570697150225535,-0.0726392067728898,0.39432617532027375,85.76213516990012,91.74562330432799,83.74025091920417,99.58565846276065
3400,0.015923925840974726,0.059799403383952524,0.27053251689064167,77.5299518720232,89.89578207699597,81.5676910566724,99.51723381262072
3420,-0.03263188836871696,0.0010633295315771794,0.3574162285327525,86.33218633734305,113.05954446699201,90.21111229267493,99.52180667816894
3440,-0.014915486018385408,-0.028476421232236634,0.2574296309199993,62.855176544137876,73.70378075523932,71.69254158350206,99.52446272189026
3460,0.09823890434408672,0.034184078870970906,0.3134107621181061,68.77610467384183,80.36171147246944,62.242548423746385,99.566019759568
3480,0.03574243354563752,-0.019977611314010928,0.32571890211977667,80.22293753494743,71.77765863511644,85.40535821076402,99.54966570518991
3500,0.033378714826898345,-0.07847024820120313,0.39865408315137735,72.01382847324248,68.27369006644828,89.63678903623136,99.57919203155335
3520,-0.027379388569599507,-0.04562544811465616,0.3669841724088581,82.78955653817957,99.31872026150666,91.11825658129754,99.54128718241601
3540,0.027962161079431943,-0.038526246863791525,0.38268267731991895,65.9822262238137,66.7323617196358,75.19233856012778,99.51552773693143
3560,0.08621322914971656,-0.05868475304544062,0.36978560581495323,84.39180372272965,79.50912240310633,82.42043279832973,99.51206275241861
3580,0.042840523812283204,-0.02175631321768845,0.3542765027412797,100.70289166028151,56.82122113011475,86.44044234958973,99.54070395016042
3600,0.07316426262148722,-0.05906581726587306,0.23507227826348492,89.32837913880317,76.44718309595748,103.62704969659352,99.56338470360588
3620,-0.0192299416771844,-0.06526664996152544,0.31784560570819953,60.67130114004968,72.2368336556279,80.81585095012706,99.58533256080457
3640,-0.011152827744801613,-0.002003948228999268,0.3204355089552044,96.63989584182902,80.20111993156556,82.39305190685607,99.55351370318138
3660,0.060782726181111905,0.05480787689680514,0.37126428532669903,81.98974183990795,65.40675475114503,81.42403790567934,99.54760133583649
3680,-0.03102033988049993,0.019376844279861777,0.25781029280865325,87.66091298165978,70.72756721085167,77.97548392684742,99.54082951324163
3700,0.06795935585855292,-0.11036851679682443,0.31942236164602006,81.2082295910217,78.51995962569138,81.15236803075287,99.57475434184282
3720,-0.005340304140409254,-0.030926315915843824,0.44565055742853815,83.46830894250765,91.88483849559775,91.03457301884708,99.56833045952614
3740,0.00895468705743935,-0.07257887478936383,0.3003178377738044,69.51947471484576,81.75484059066193,76.60669642559593,99.55605130566472
3760,0.03250839430625793,0.061256063961165154,0.3843247799001053,73.56712629004369,71.7103229457794,76.10021986508197,99.5241254208291
3780,0.0656540481856562,-0.0384664293058535,0.3123122332767422,73.38852717862393,74.62804803307247,87.91691148918537,99.54476124733797
3800,0.0407062821911908,-0.043957016468155384,0.3894585042377422,80.91734440894582,98.96113462931973,81.92133349123547,99.51649621252032
3820,0.046115525188170386,-0.03595543174085945,0.2670276153465726,77.84654847310274,84.67882586197736,84.8874198564281,99.52069730947662
3840,0.03647460260732766,0.019640743654695085,0.3774686524223533,84.17456098238458,70.79589252794379,77.40672028587912,99.54550367259141
3860,-0.049486409734009716,-0.01636353795146139,0.3152204598220583,83.57226726326445,100.65323880896541,76.53146030396071,99.55295275436714
3880,0.02714068559353421,0.019041695485970875,0.42241067643320673,91.32559239965563,84.67279540034728,73.75315537441826,99.56318390331619
3900,-0.04067217464432656,-0.006007663612962115,0.38002871323920995,68.89329963259485,99.79417099813442,75.4815762119064,99.5379917753843
3920,0.04622426884289563,0.10826147831939832,0.41278410342248656,83.38626965090691,93.08529019809504,90.51629555438026,99.54155722294891
3940,-0.010491482361445177,-0.06954519191022004,0.25426887592004077,88.5510927408274,88.95466239879958,80.91788373079012,99.57557263059252
3960,0.012283983325277482,0.00037219989837061377,0.38098456086831667,77.25077625513583,81.33071319921034,66.25925719591328,99.53654548474515
3980,-0.012493925076536998,-0.0892988616873585,0.35185808613232594,84.23004130930522,91.93552576752323,74.96996778262375,99.5208722638911
4000,0.03688731418371183,-0.04363537851395655,0.3817887415523674,58.23014271568225,85.59920769061799,80.41165135120275,99.54300487638719
4019,0.013281380255050268,0.048141332445542334,0.418707185417016,93.35026415573681,85.37988868002786,66.5424292473065,99.5324857348144
4040,-0.027526140829906832,-0.014283237383084993,0.3503232051060578,84.7423858952685,73.96025562050625,61.4073088457512,99.50617859446164
4059,-0.08787536115361629,-0.03663291401055829,0.3943924340240836,75.50625110831558,63.03959554282021,88.30181720052799,99.5365173567284
4080,0.09148565130952674,0.03983552924504888,0.2806311908280253,82.01637249074751,77.18870714023261,79.07907176994401,99.54415797740427
4100,-0.09285575779075855,-0.07650886377093588,0.3457166091133161,81.2213062190675,81.1805162454901,67.60635862925642,99.54031828343201
4120,0.055144051044950695,0.06377299461095612,0.3455469017668688,72.32471698069722,70.28635000187622,87.04416679711646,99.52971979480022
4140,0.07493229217117114,0.027661918243830453,0.31927847204969356,80.5750030445689,84.97095228324244,61.63493506411632,99.55460778844267
4160,0.06690136171203408,-0.0442612182018933,0.4585591246347627,64.12458233773903,84.03505995527125,82.40541810158446,99.55927141917003
4180,-0.05652821078472073,0.0005537789914019885,0.360394702845276,74.88902541387627,67.43401257026002,72.76588927742233,99.52410989019656
4200,0.016404295795059875,0.1509510135557152,0.34443731890073714,74.79005407792353,97.87629040996863,94.43518369345512,99.57357336862658
4220,-0.06678916253490123,-0.03415827475700179,0.35860434249422046,65.88043767407324,101.93057533120175,73.77897775362887,99.54577535916488
4240,-0.05234481576067134,0.023765608703183227,0.4227495343221816,88.94456841638527,92.71382040622277,82.3157429617518,99.57939015266693
4260,-0.019007977275821014,0.05091862582948784,0.39104419486901787,71.07678337274666,86.69678824945908,100.40982050769524,99.57868723494337
4280,-0.04502134219995422,0.0821973211630432,0.29652363845269303,84.5030101933149,78.32331808033251,77.54260094927257,99.56337069552244
4300,0.04590189668026917,0.01775260251549186,0.36309274223497423,92.85465736289274,99.07397263174147,71.89268327127066,99.5885778241513
4320,-0.014492402972921004,0.03206831785611409,0.3379807446683936,82.769654872803,62.66594650921106,101.53562998409545,99.51658093845032
4340,0.028426260290834084,0.001690558807053869,0.33723198333101084,50.88646166415559,76.04780972808638,95.86748682541564,99.57295986110718
4360,0.057177766723543355,-0.05265428536741001,0.2915990965286807,89.62418290818881,75.37059468953778,73.67738936905407,99.55110493222438
4380,0.10556029311511564,-0.04664721941359151,0.4328304283041483,59.53533249278105,68.76025747757984,86.28064562929117,99.51054420252922
4400,0.06563485083250566,-0.047121107742944465,0.44854707494656726,74.64874446731412,78.46388296298574,62.04784071710546,99.5508624329107
4420,0.02713201163713358,0.08532973086239809,0.27555748694512905,99.45623617442153,90.5707980545999,88.36899131113823,99.54402164733092
4440,-0.028333219080686697,0.002486569732397337,0.32462564279879874,80.21015094074811,71.67034618319828,77.8214751307602,99.56247903991361
4460,-0.06389005278435654,0.11851016707217535,0.465258638070798,74.32940491659357,88.14032114718904,79.49059646094585,99.58024420954204
4480,0.04317475725298456,-0.02381986583394878,0.3768775191104255,79.4213666615417,76.72070905470524,90.1166008061218,99.59227095100432
4500,-0.0751400696702164,0.04674682046066942,0.44341021827353305,58.5580560970144,76.61438871005792,103.16741715189461,99.5496004942442
4520,-0.04135394338577742,-0.047047177504195764,0.3156596073662906,83.9037591719994,73.29238401276113,89.65842160591212,99.56415905309963
4540,0.05641957317536486,0.028858334195908164,0.3544398443409096,85.54709160781054,61.75357945867657,100.2046848941832,99.55270500306533
4560,-0.09736573042496614,0.012733371930155543,0.29032768427724065,73.25196546421968,81.1733471688638,95.76131032203622,99.54878585603221
4580,-0.043763550564844905,-0.0211197203381222,0.45094805119156833,74.96962983494028,106.17501858298812,79.03196334370611,99.56602976090922
4600,-0.07660409538379621,-0.0542585730125892,0.3674421138844688,87.28304783000468,50.00903397518039,80.41865862055975,99.54897811850844
4620,0.013509232100502519,0.027115644734975148,0.3457968770741786,80.32598849728402,68.15211013893152,97.56723680016898,99.52774163310073
4640,0.044773391717383336,-0.04492856746239995,0.29383693766862484,57.735235986839065,69.53132260615808,87.9447525130845,99.53300580781708
4660,-0.012455966055396997,-0.024317841764779684,0.44157140480137314,105.83637171615428,85.45036979261008,58.98740519349707,99.54775302101591
4680,0.06145260948397111,-0.11756339803289989,0.2995321795346325,77.44321207954036,100.5423565261486,74.2701006016227,99.5342578878163
4700,0.016772788665147403,0.0735883270933415,0.32161053949965357,94.75395931001925,77.62704954623975,98.46437536063416,99.55069706465825
4720,0.0057149304169813,0.0861422464467556,0.39024781492020555,90.99475318373513,81.67756380526845,76.9435965477521,99.53904826882993
4740,0.0642808153138229,0.0021831483288760104,0.31529149036533843,76.24268305984195,96.78340235735979,94.47298205174262,99.52705164724763
4760,0.06818403511290626,-0.0007115908660899068,0.27836579908639414,78.81524380273052,73.86559224152377,81.87382950594751,99.54553773811666
4780,0.022814534266119714,-0.0742255689056549,0.29461805639135,86.48525746875733,72.56440936477188,61.4434742670596,99.5481113457667
4800,0.015608350696896658,0.1000094858616643,0.35892637014266837,78.14006470088692,82.37687939956032,73.75726639217031,99.54250223127339
4820,-0.02350875572737847,0.017235359811255842,0.37432932340659064,81.25942967688533,76.78473649259783,94.84789532864195,99.55806542581723
4840,0.01665375003281766,0.005561883144977939,0.26815707066682404,67.25673072760073,70.44831747139165,78.1439336532252,99.5681780022241
4860,-0.00018510273922298364,0.032264339141415375,0.46111998760113126,72.73589300902651,105.01030678643755,87.68664945061697,99.5787855547313
4880,0.04130965021834007,-0.09176497841283726,0.29096878226648376,66.62178600312512,86.91260343470327,79.67309549347566,99.52646727032709
4900,-0.08929814201895761,-0.016586648377962622,0.35764022572160364,99.80163900183895,88.88623971663631,76.96046694543683,99.56533345887593
4920,0.029525036059648586,0.09636525441608698,0.2998275488453132,77.43769485282115,79.74524455792937,74.92433312242274,99.5227805502558
4940,-0.007847620926815776,-0.023996927523081954,0.3456796651384044,74.44472108384795,85.21557277087123,83.44631299713626,99.54039882133974
4960,-0.024591034227739946,-0.0642329265853045,0.36065711873301187,69.51273153526951,76.81185097650788,101.28709535028882,99.52645308542591
4980,0.012793269957435538,0.003738204470278834,0.31895258035075297,68.24150793917622,80.56263716316748,42.88914769075771,99.58779226241104
5000,-0.0008906193333298711,0.047768980184133544,0.31931589189135073,101.75617397520016,79.18714985136877,89.33430684521663,99.55002344867906
5020,-0.004507435990777995,-0.005256744016646375,0.2766663852807394,79.94215669314296,68.25686425675815,87.78600090465775,99.51007404165745
5040,-0.022609846628127622,-0.015450724693987887,0.4012739910272875,95.11933045896669,98.73660068297438,88.10127606835961,99.56711539938078
5060,0.015248240489518875,0.04437644287358547,0.3456907390459686,82.45530505051441,63.83145439638511,73.5563785149283,99.5437228642446
5080,-0.09901537758961554,0.09311423576348891,0.473771262362642,96.6599098479711,56.4274343972517,75.2443350707745,99.54399040372282
5100,-0.009924398573087669,0.09635629768975601,0.4109782560513847,62.28548875869449,51.09273741176605,80.30454050577603,99.56377389108533
5120,-0.044834361576799535,-0.015582509840080498,0.4107742546447093,66.88919819821793,85.57545401937449,71.8977605619178,99.56829046031812
5140,-0.022399733988059382,-0.02669140110901594,0.4402320876039152,88.20693776131418,98.14989526719268,86.94412300003684,99.55102841412834
5160,0.012450387034807883,-0.03667843034541081,0.3194916343920879,82.55771710581804,68.01106466867473,72.73268554397416,99.5670809389688
5180,-0.029670550773589505,-0.07085652454954097,0.3631779380509305,89.04950683877485,78.2371782011205,84.0048860525536,99.53323051035406
5200,0.0014206691799866452,-0.007273432418733562,0.2756368952486978,82.04998249043906,86.04498112512475,73.14335674838209,99.5522497716069
5220,0.042198462101733614,0.06759895787992688,0.46904470656856073,77.9735361796306,70.5061911628237,89.05029956330449,99.52308066117378
5240,0.010125828906519477,0.02325211526831835,0.3901666085564318,92.57566251709962,77.62325571028434,76.27963891411632,99.55842896340887
5260,0.10286104478019716,0.04310569030441847,0.3210045882069904,94.45378411293092,82.23968094504804,94.37807828529355,99.52000971633652
5280,-0.0507603426671451,-0.019264641570586282,0.3251079785885057,81.41702974891497,80.55224036532981,73.29765091648461,99.54826440383326
5300,0.03275150089519434,-0.0179475220327323,0.3445143816954922,85.28407382029461,34.412273023041266,90.56455121861917,99.55937529285261
5320,-0.03974922700832062,-0.013318784261474521,0.4539679573352331,64.10525944945026,75.83091952673601,59.54497247742441,99.54920955759981
5340,0.08124576227281394,0.03105916611938893,0.4376000734718383,75.68297835820852,87.27203189757526,69.51243442423429,99.54457381166402
5360,0.05473799063244549,0.005607998137924917,0.4614871260291078,96.0805913563907,83.12353557118274,96.4382124071505,99.56538869919824
5380,-0.019469815289806562,-0.012897149934473504,0.4048062748139617,94.16315158655749,97.52545095991651,73.82620502081554,99.5391866700057
5400,0.012442993931012659,0.09617877070680753,0.2891895643320512,112.7133010701908,77.29512238037798,69.76271738229148,99.56231348062977
5420,-0.0835593691762063,-0.058071816992819894,0.40597502115868317,77.9890370528042,70.68794935149525,61.22959650917008,99.54456948310373
5440,-0.01523646101133109,-0.017242276415132082,0.4081616843386835,83.16163920700797,86.87107632292836,71.12063826784542,99.55991854287424
5460,0.06022462363584256,0.04414603409784141,0.3547252853530146,100.18809997275372,83.36463991179309,78.08055306286796,99.56027513543607
5480,-0.09125901006163156,-0.04529134078607721,0.3049361626666069,90.93592714279558,102.67832527000638,83.44210455569757,99.52121152091938
5500,-0.03375782989963209,-0.03255854774642664,0.2921099056122588,76.59236250625536,56.77341909729108,89.6037770918316,99.57226487684098
5520,-0.08611900340269718,-0.00980334383320322,0.35977000236281276,52.03976927114115,87.249645129511,96.77298200898454,99.56601569703211
5540,0.061390734903983,0.028060273564131967,0.3391109086043059,84.04120959804794,87.189388219094,66.48520650952037,99.55419944376635
5560,0.06477360465374486,-0.1037140364236302,0.4727395964782054,88.43836559434975,66.19710251743852,70.6366686539911,99.56647237659823
5580,0.06313910228569505,0.0031747743049926475,0.32711364677532695,93.34182424165533,80.34065421334822,64.31598419960882,99.52123111862153
5600,-0.015552778084624028,-0.08642164871423678,0.3724810559512474,71.10070449649264,75.30891485977546,67.79721038389414,99.53956780328782
5620,-0.025411582948993778,-0.030092169915692885,0.2419195679990997,72.8610647543704,98.64869703854939,70.22585983885058,99.56310182499288
5640,-0.05504873567479423,0.028035267636463225,0.35191988923904793,69.42045756707755,60.49156862535281,81.78630724273435,99.6030983562894
5660,-0.04091317015732558,0.028898082827201122,0.3717269822214053,86.37500202600081,93.95105848091916,70.63940855592057,99.55901944969735
5680,0.0009708991870780849,0.06782111308235002,0.25743993045248925,67.82506863830613,85.48413495840737,89.22390580035979,99.55572048104804
5700,-0.008963614639297532,-0.038051442391434036,0.34347621907168513,72.52838606349685,109.31617278678652,73.4191845645146,99.52291145556283
5720,-0.02848930020273238,-0.007088629111988687,0.3400049726509904,64.8774840112615,73.69134443563689,77.27432746400471,99.55197541367897
5740,0.002881949207304872,0.023546298889738554,0.356484512260978,82.75678812477929,82.9439056923025,90.49747721770704,99.53207843535566
5760,0.03914712646041588,0.07077028736098928,0.3004828608445421,76.28207794224288,87.2837870503852,60.87800430569095,99.57481405079317
5780,0.02139342012040209,0.05257910342526304,0.3735164198332306,94.07540046661862,95.96169018073985,73.86210951683546,99.53279907509108
5800,0.02326380208519927,-0.04353490242289167,0.26145026192297616,80.09195643040128,78.72231896820217,91.16340295856409,99.51801512395198
5820,-0.002532290012002634,-0.07817969670204866,0.341504075121094,101.07071465631284,64.71214722257682,104.51518446282651,99.60481634843607
5840,0.03802159088108199,-0.04738785206729593,0.40640419269642303,51.53036772969625,91.75517419752515,77.55576521916306,99.52898122484599
5860,-0.02803913656077881,-0.024966178764958255,0.36944269573388056,79.63650990293716,84.27450390287248,75.0667191931557,99.56046326980099
5880,-0.09630754875030685,0.09897421838501602,0.35323216206860536,94.60144970428402,75.61822105720057,68.42836870666979,99.54020228462487
5900,-0.0007282659503416963,0.008829439751975709,0.40887356205409847,76.17211047030719,82.67868510643426,79.94028707328813,99.5763017770956
5920,0.0037694144337483675,-0.023835272754729606,0.2996523862259624,103.63693146583233,84.80950672315747,85.32123195145596,99.5656334294583
5940,0.022171214838042106,0.019405915113309732,0.2884547948527998,79.48853954846751,84.62989284945603,74.55357742879184,99.54805617882941
5960,0.002800586808739561,0.06786171321077619,0.3926885551947854,76.16502451550878,57.85852789549848,75.74065863828558,99.58451747859355
5980,-0.10209775509995239,-0.01243625461995122,0.3354322792479746,59.246736325630735,87.54094129711314,75.36613449386813,99.56060690725108
6000,-0.11411129327959697,0.07253600638815165,0.35204641299556566,67.73090056355268,56.186833119692224,78.14340022444745,99.51965058778322
6020,0.03903845468437579,-0.02398075807786361,0.420209676348832,87.62006427613562,82.99298578465992,89.52769147079387,99.56022683773196
6040,0.01388886104211727,0.06748187452232636,0.38672895446625477,72.88302402832343,61.93344726518086,59.960803418210105,99.53988445384589
6060,-0.03204755228963365,-0.10097255077048353,0.29707659860180535,86.91914826187399,72.0734696931714,82.38209170257866,99.53629308884969
6080,0.016458006080284297,-0.025523714209009642,0.2586779593241811,95.84189606256272,74.34816588906679,66.32063264983948,99.59150711917697
6100,-0.06854162767996567,-0.03328566465704324,0.3331441427475373,100.65380353339822,79.50092429232565,81.29472538050048,99.56198293391482
6120,0.013312430975126022,0.03397703128210027,0.33614876538877214,101.12512897004495,71.32754633865356,55.86774128382203,99.5244663797286
6140,0.0822231784360723,-0.00742440608852073,0.3584671964729387,76.54260523322189,73.68208230767888,61.57170126390828,99.56719715193499
6160,0.019870182531240482,0.018355541178331373,0.41478839368634873,79.79447093514362,78.41377467735077,66.21824182738919,99.5689615259062
6180,0.002206299400595301,0.009475863738637924,0.3310909128369153,85.45329759344867,81.88323272904462,73.13298717061649,99.55892919967104
6200,0.0662576980825058,-0.03581205303213627,0.3166688898094925,63.66528923914568,93.72458051267208,66.68515285650025,99.54056315430938
6220,-0.021105769958171507,-0.010319044478454352,0.33811843405814157,70.20165470622484,80.97266183275318,59.299935906038215,99.57054777774178
6240,-0.023659145365622202,0.05992945538594268,0.33703487088759615,68.64757136345992,59.00057984297551,64.94857962000737,99.53293105068263
6260,0.02652577165279294,-0.04256165228848175,0.2383288152808024,77.91975442692046,70.36573953108106,70.1726010500205,99.53255287101283
6280,-0.03342987155579976,0.12136301935361425,0.36480971647020694,77.72874477994871,83.28553678697156,74.24317224371636,99.54820197603783
6300,-0.007525891201806411,0.04191304235603193,0.3423949869199789,78.32809084225774,73.62208517374262,75.22921848229598,99.5434967154039
6320,0.03232258585405811,-0.03809149823932492,0.3406199893548664,76.80737019956415,93.39710258393278,78.16889371898321,99.49518817455227
6340,0.04420657730653273,-0.042118084613937505,0.30454031870043,90.95687246184288,74.21073529274776,80.44509046616659,99.57146924694811
6360,0.021155791520100817,0.02234345100066899,0.30629647677741006,87.05843138045552,81.17888678068378,90.19158946886826,99.55515522505233
6380,-0.00040723105498085914,-0.07820696868652915,0.36099724881364753,93.271641245173,91.13679891450612,82.33790825164753,99.53831798843089
6400,-0.02731254599071216,-0.05996815538751158,0.31401008927358875,76.43668801016379,91.40986408198346,78.70551377314366,99.57192757250783
6420,-0.07511182421056878,0.0520412452996096,0.3498875557889008,111.10169989074367,83.76860831097264,82.71306740302721,99.52850326239384
6440,0.02976869822818433,0.09351171326043536,0.3293606843940607,75.31247779273346,85.51771219937929,62.45887361881065,99.54955700097885
6460,-0.06840960300388697,0.004541934671349892,0.35494608913465997,82.17509210654433,106.62571152179237,87.01869181491075,99.57545126205298
6480,-0.0560350910540362,-0.06276162974037547,0.37708932302624076,79.84546503188052,79.31584064737852,71.45632019091187,99.54209153329322
6500,-0.038539166893050036,-0.06733856734622226,0.398561161684489,82.82694384009564,75.05916520446354,95.24084096595439,99.54825576885939
6520,-0.04905669221772013,0.024327737466910096,0.3834718642836164,60.691834319610095,89.28250301362766,100.81453980218812,99.60068788588157
6540,0.02178601866025848,-0.010205302352184016,0.34898467422752966,67.97164470459822,84.14384920077596,97.46873524240038,99.52443537692096
6560,0.023544862484595117,0.05711393591382994,0.3437897811896597,78.19789294905573,65.9397047536572,86.75436223878995,99.55709826734919
6580,-0.02966952321504858,0.04979643961757546,0.3049508317117474,77.85639352372884,72.94804205838791,82.15226876564367,99.52104956676634
6600,-0.014598856218289736,0.04178242187553592,0.3673756227363867,62.25780390346172,69.8845018717369,84.73288095819758,99.54962512879473
6620,-0.014199772496080619,0.02399287428324172,0.43376251065158944,71.36608475388488,93.68147195682423,66.95027595699995,99.56164575692594
6640,0.1339004763850168,0.07074277704956498,0.3545566224837421,78.94790022256714,89.30492785708628,85.6541006568802,99.57609646262718
6660,0.09143006846291177,-0.01441411750555622,0.3525930383205666,74.70563001697705,89.92397094930602,76.42532246552263,99.55835799652482
6680,-0.05549999085463195,-0.01137932296427304,0.3388530078238146,102.86311702444496,45.61322735384434,90.45365538891994,99.57279212887889
6700,-0.07088788293842875,-0.0664300338128491,0.3682074904801188,77.90493340348823,82.51228507463998,78.02417149455283,99.56558369285344
6720,-0.003855509239503554,0.08318123848517643,0.3079967508590819,86.86138742271659,74.59334531924257,82.77163032147553,99.53236340124063
6740,-0.03570201685523743,0.0012124567412514034,0.33506614844827537,91.73915151975373,90.7319392304517,63.39181340199959,99.52762384388969
6760,-0.08919909069615296,0.0027962992230159698,0.33634384890743235,85.23788664085279,87.06012552656287,74.48581514316017,99.57128307274509
6780,-0.0023189246861664713,-0.0017031639811788228,0.3526552748748115,70.44248106460545,75.89564167346276,70.08374683694932,99.573238652259
6800,-0.16100254197035532,-0.10644352473804691,0.34090343207112345,84.62979920379321,105.10275052966176,111.31512284818443,99.58562614837491
6820,-0.08641545989033775,0.041772954469036845,0.3617222922377051,76.02398734759227,97.57956684734648,84.61159766963351,99.54414106791995
6840,-0.0527162845854274,0.08144067326931452,0.3122967050911102,63.671290007202614,90.6108877446876,73.33769965119157,99.53458688119953
6860,-0.04685284344737625,-0.02346476863185328,0.4629934145480793,66.6644832263408,80.3977115107095,67.61280259701462,99.51758264292675
6880,-0.03447371830108558,0.04173840029141871,0.37920956879489237,85.18204462685179,90.55182805908706,65.62338249802012,99.57323406263133
6900,-0.02991222601504677,-0.08048227399423397,0.30170696783401924,50.69557933109307,65.80158491387886,53.11551959331403,99.53163397133436
6920,-0.03438253926564406,-0.018462540523905786,0.28688318746075087,99.6853098996847,70.68513448482982,87.80401674109633,99.55181276441695
6940,-0.0082259115604073,0.07505590745176877,0.3827794340067866,84.37494630557941,84.47623460654916,87.80075323019439,99.54340540745555
6960,0.05272698109371228,3.568686968524393e-05,0.3218094534111667,74.8441482548391,83.60374493770337,88.54074418712256,99.56391830736705
6980,-0.11285617270411029,0.055021509325094246,0.36659113947377886,70.6397763118167,84.25473238829426,81.20072548122751,99.55118331538742
7000,-0.08355773702881414,-0.01167513397740582,0.3870782137324299,80.79991721019401,73.16802065147625,81.21067496058446,99.54783880097318
7020,-0.017479263302949355,-0.02881772299719317,0.2887609682987894,98.52805085250345,89.74609431178973,56.49095303049889,99.53404282282547
7040,0.009612558514594128,-0.08861048050992469,0.4054613168899126,78.97049583482396,92.85117471514263,54.49450666881153,99.59396183263111
7060,0.007846563952369736,0.07267079928806242,0.37474242316622103,86.90320293205308,62.854693985096674,57.49730356215953,99.58335568666978
7080,-0.03429092101031453,-0.05658577623323213,0.4184599838211215,79.84363723807441,77.18637236563355,75.93778558604029,99.56954726299149
7100,-0.00041450819498178393,-0.10628461257672304,0.32492318366368556,83.60315322080992,98.78227818096508,90.30678425766732,99.5636630897777
7120,0.018873443591220767,0.05249870101369602,0.3174102987473215,96.9483523243565,87.46688439845985,79.66907053082515,99.53313097172366
7140,-0.018877972260813055,0.01822139884928474,0.3700506661132356,95.35739788969225,83.55905467799472,62.24874167478487,99.5592981780374
7160,0.10435357905501488,0.028243019525408156,0.33378537403966946,93.46955354379703,75.31520265978402,85.967310980262,99.53931758477445
7180,-0.03530023104014044,0.024927592719533896,0.4174151028965698,84.53638701074834,62.369994178214526,92.89039552091671,99.55766505198896
7200,0.04529196190535627,0.023112222811142558,0.3360095530628223,87.30203493395076,98.0605026680835,100.87130959474742,99.5440842088979
7220,0.03667806417261062,-0.006596229303445196,0.32875737712213293,69.8801158839518,71.88164259538644,83.39675589155463,99.5543625467166
7240,-0.06557756015496019,0.020271286850180092,0.3968723384665078,95.84288678848337,71.50659499799534,67.71822241041448,99.58308941576134
7260,0.013135376145798594,-0.04800920846105061,0.37766728580775744,61.187083025362206,89.61064076388524,70.34872415925636,99.61118777999751
7280,0.02203145827144416,-0.013317094739103483,0.32741237805135803,95.95820766257242,64.0340992184653,96.91684802119855,99.54811486637742
7300,0.0021503518255311556,-0.031855156056595446,0.308695757473998,103.2958112142079,93.61996684345618,98.99937819570434,99.55933522987586
7320,-0.011518632717488512,-0.037449013260961866,0.3296744614488937,93.25869996906454,100.96639617982174,65.97170907559442,99.52299608062903
7340,-0.03969788961352316,-0.14654108489350579,0.3228737476878007,72.91838730964233,70.55144729454955,84.56906725085989,99.53096872092047
7360,-0.028928006323303182,-0.024433354317273157,0.32919120878754926,95.94124789758821,89.73316624990133,88.92144541596085,99.56022123826772
7380,-0.02294432031289916,-0.06472671953288993,0.33684756167712804,81.71852441361709,95.54244533475816,99.10687368767773,99.56955614459437
7400,-0.01677961627741081,-0.04796482844940299,0.4072621953315551,79.71845132161063,77.32948251690495,66.19675322172554,99.54153678703055
7420,0.0037694219496695186,0.025002685659879776,0.3536766041343803,67.684475659701,73.09595491139196,85.60847065123517,99.55350386701515
7440,0.08297958395144434,0.02510184387221739,0.26567263332796626,95.4013942813288,75.83154068467024,70.28488867123504,99.57505768593083
7460,0.0521248537038604,0.03988352239970028,0.34919155401369545,91.48156558140863,70.70126720404097,80.61808401243916,99.51478829454254
7480,0.07208956616943964,0.0659740861927921,0.37464145359672035,85.17714041095846,91.00972080130735,90.26265495750215,99.55674110468306
7500,-0.025334737937313324,-0.022256798393909528,0.34506324654088055,79.0738413621531,67.6880523392782,86.17555503171265,99.56205356560727
7520,0.07440651253585777,-0.04035538089284559,0.35065465791163336,59.85156288630488,73.91532662303649,93.44035359313503,99.52096527035563
7540,0.027083218047550095,0.02699536819925093,0.39677394984586983,53.255986413653325,73.96711378629783,77.82965878802455,99.56353835047852
7560,0.07421070351356059,0.054364169162402366,0.36832366770425695,82.3718977305773,59.41934033920623,69.66565415396848,99.53678354644866
7580,0.030521207606789436,-0.03287963131920753,0.2874371662118244,91.14885858658702,104.97334110369151,99.4953234675335,99.57161171551155
7600,0.04598606592274891,0.02472714210251876,0.30662571465705746,80.26655923803077,82.10692381879589,88.45710731917941,99.51929468544115
7620,0.03282137126802673,0.10326164844669111,0.36644093418568385,105.30856025028937,78.575106509257,99.75542126006394,99.5825427670526
7640,0.014621684846545573,0.01506092976118624,0.36481183234898873,80.40965469733304,79.81822597805001,72.24784850741543,99.54541940047211
7660,-0.07128643705968173,0.07016058543079631,0.27742012643936426,78.72666314986961,84.66223448155442,71.97066067286192,99.58922483151692
7680,0.1276085371305494,-0.0799769872689646,0.4233038015072069,92.84026675183166,97.28405303579598,93.04572465653916,99.57455329137153
7700,-0.05737625534535256,0.006803616289681416,0.2864809637682227,80.40532937712747,72.00618373152,84.67704136757997,99.55796733203981
7720,0.0558624606932826,-0.0626352191033756,0.4348178245543206,62.07240887852014,107.25929187488774,65.17882373689376,99.57734526751327
7740,-0.08844845589003375,-0.024782364546361554,0.2920841615126152,81.10267565479027,81.9477487859544,92.34724875546542,99.53745643333764
7760,0.011971887134807825,-0.0931344583735705,0.3342522741103271,88.74273821153838,86.90281561871417,72.90458179818009,99.5632087288895
7780,-0.011852628851413605,-0.09428780625445513,0.38518490836224173,78.00111323069478,75.72688974697525,76.01121297343333,99.55043651329366
7800,0.024149356486890046,-0.012722882116049026,0.3183538084424029,66.78572069058518,72.57800719461778,99.83430817591417,99.58101467512842
7820,-0.004111977679280925,-0.10803059586505764,0.3421926588772639,90.84901011960964,80.93997645348612,79.73690254132403,99.50685920832511
7840,-0.04259886456180162,-0.04815275223343714,0.38719850937839484,78.07135366453193,89.19853414730953,69.56077736678472,99.52164308553982
7860,-0.007778832731516608,0.10137693669358279,0.278902208173186,73.3009047511163,68.50884981897049,97.54058106363081,99.52246599522863
7880,0.023307931884718695,0.03270427651183204,0.3471464971304344,69.77612467151994,75.94386081246815,91.25636721606097,99.55045086046697
7900,0.09814303049684409,0.01798452482397565,0.44601747540681386,96.27962826496382,86.7487935961438,69.80327692721433,99.51790107870794
7920,-0.03313627269461982,-0.01818679681649386,0.3819701947952507,82.31986851713117,72.98801306655122,67.79080401819844,99.5418732907424
7940,0.036006976433585546,0.04791994457357583,0.2340602351047893,74.37099820622376,70.70115616286338,88.18372269629774,99.56234494433465
7960,0.0505184213680305,0.04393242540916203,0.4311905325253399,104.70694377488974,61.12541162435524,94.36265592680472,99.54575729934382
7980,-0.025839580137805043,0.01900969961467764,0.3879782361495064,71.41504226955972,90.12235789946719,89.31380379062483,99.56019774546114
