timestamp_ms,acc_x,acc_y,acc_z,gyro_x,gyro_y,gyro_z,baro_m
0,-0.06640642663667046,0.0230475621460253,0.9983341801119798,-12.26078767149538,-1.4467651643005817,-17.097222054768235,99.98848431638294
20,0.0008521236743128018,-0.0016433824666508227,1.0224518452022429,-4.768204553978098,-0.6141506334342941,17.84180663367797,100.00987547091823
40,-0.08676444495604779,0.0346399688990179,0.9062235972581627,17.83370580648993,6.793002576775451,6.656260553395564,100.00259983294238
60,-0.03144612149965372,-0.07979422678928515,1.02377936694431,3.6365611179217554,5.165284744070158,-3.3873104010331994,100.02106112786542
80,-0.10709368338873662,-0.02448581767172646,0.9756645300762553,-13.550047373134639,20.53230460702312,3.528111420964356,100.0138736586516
100,0.032442483360513204,0.1079432539170286,1.0477358666064425,-25.606937475013577,-6.919861650070654,5.3993610569745565,100.04721350757073
120,-0.07000065808719458,-0.08847344756192414,0.9673849288612271,-8.512844974365137,-13.725172015982992,-20.52054967944028,99.96264935008196
140,0.030923675314161694,-0.004542807195622335,0.8998571645666655,8.385138383198868,-23.941163217264716,9.332895295202855,99.959826373255
160,0.044989102799306235,0.04720675538366798,0.9611283552146299,-25.257523215926682,-15.659563436134253,1.120734869178845,99.98735001046184
180,0.06592824473207948,0.001893597680756463,0.9850288725773209,0.9026418862699759,-3.2122699925591185,4.975329433199676,99.99812270365715
200,-0.002328146676699279,-0.03223238862831143,1.0978839078948601,4.8847621653616535,-0.38887452211996393,7.323061556234999,100.00571843220628
220,0.017138569366514957,-0.02252104606326215,0.9898093961785517,9.42240372097954,-4.453148264098392,-14.78996429730483,100.01422272208093
240,-0.03662199644185355,0.03572764019120966,1.129028519985043,-6.554498096664505,-19.990354597311686,1.792252910632242,99.97960915163253
260,0.011862370936341998,-0.004332138837261148,0.9790925937554191,-2.2878636434291897,6.634783441565707,-13.29229263510646,100.00455440867037
280,0.05749800941457424,0.06687106145315445,1.0066825267921788,11.211647392275545,-10.29827722044673,-11.209482063635821,99.96047135222175
300,0.04218154782545902,-0.003869588122112089,0.9574224809824476,-9.796550335657338,-8.869821431729466,-0.5753825734211722,100.00949634868259
320,0.004953660547018964,-0.0008097748133422885,1.0149463148567572,8.979425608994553,5.468904890600543,-0.8053966701065849,99.99574999270226
340,0.013767497631819932,0.013667501813603709,1.0587335535295883,23.06604565025296,5.387438636743352,14.869946098190528,100.01160704156386
360,0.0027482111141800057,-0.05365448510717791,1.0069499010428853,-4.947767201963794,-7.321079037750872,-5.921494934916112,99.99446030802001
380,-0.012441085610194193,-0.027432725393726612,1.0747415626835046,13.032790843373558,21.299503674897867,-3.6869919718430437,99.95187788192088
400,0.030193453872866267,-0.01383575485777029,0.8873861238903725,-4.688825926313161,0.8892293535804412,2.2671295651708228,100.02712732676217
420,0.03621425252538286,0.023729712369180016,0.9287484685914709,-5.242450526329314,-17.468876455011696,-15.23729659728109,100.02387008985632
440,-0.029556213987496128,0.052251493356492706,0.9964924091427517,12.117606136835796,4.817504033883825,-3.3886777161358816,100.02266162739163
460,-0.05275844977026592,-0.005385484283481728,0.9645936567721369,3.865968655567496,-6.102486304802847,-2.792844645872135,99.97734343850269
480,-0.02821934792712992,0.04047755942114573,0.9551556906605506,15.058108398146556,21.10457536633516,-6.242242857921369,100.00411617232218
500,-0.006695111375780516,-0.050032392433629294,0.9930072407396886,4.537673112306229,-5.766408328829229,20.926694700040784,99.99540764869185
520,-0.04834873194915852,0.009293320090770553,0.9678831423989376,-14.449902986544998,-19.762820074715467,9.103904180212403,100.01716031797977
540,-0.00804322579345626,-0.041937215473321375,1.031378775754466,-0.07593233809670821,-3.236754804721901,2.7231121009452126,99.9946212942475
560,0.014236849073061445,-0.014563229366824746,1.0552706433712196,2.374255201967968,-4.452615874592687,-2.066766057678258,99.95570523476262
580,0.06336019877544917,0.07760678464896413,1.1222219023851003,-3.4440987319324696,-3.0181526550181816,15.019109107333211,99.99468344260866
600,0.009225664408725487,0.031569850681312565,1.0299745634356143,-12.645761227405526,6.949258595493177,-1.0956620680493887,100.01639109332505
620,-0.06909240081271725,0.04402427251030905,1.0327603888087757,2.201700894475214,-1.3216098300734107,-10.363522356167103,100.01157781297033
640,0.05357912879095025,-0.012264987801018841,1.0699021768922348,-21.149265825061693,-21.881157681590096,10.577698472592953,100.02564157058849
660,-0.07757196261596547,0.011735710900431089,0.9430611121958113,14.619598504079882,-4.763859361715128,-9.885378683809416,99.99310567643549
680,0.0398751616161114,0.009139462788371659,1.1170953237704224,-18.477116846026647,7.784804229448123,-11.06147615894683,99.95631961410562
700,-0.04818090730959301,0.028703431009168334,1.0352334688912335,-18.024343962784954,-2.5070366424519577,5.00284789189519,99.96924874788739
720,-0.0036448595417180804,-0.03568927512361763,1.0303757938088682,-5.326174861075137,6.602726231061027,-19.15049540508248,100.01143372055733
740,-0.047546489615903846,-0.11741234895500635,1.0764986245892911,-14.215243187554389,5.070826385064094,-14.96011198958773,99.97984397422623
760,-0.07217031937004774,-0.02870274847920228,1.1174004876338124,-9.49046189040463,-3.0790671455944167,2.0686672643785875,100.0085094105736
780,0.008572854696440155,-0.031237653617899853,1.1034568754282656,17.286172596522366,-8.396144709600756,-1.5168482618521977,99.99084812147223
800,-0.004810937509568223,-0.051433565112900086,1.059996627616669,-17.113272380324652,-18.05240298122708,4.927979994025993,100.00999647114706
820,0.009270749437097096,0.03216080407507107,1.0183486274182456,0.11166409734886296,10.297666275507403,2.7602657390250793,99.99425383772511
840,-0.012049928155496957,-0.002522912161100692,0.9807769656858827,3.9352853770206027,-10.77790043842716,14.342420698170999,100.00311048367881
860,-0.026715241836239325,0.07976786431438515,1.004477309402318,5.7951893669815,24.135538267774407,-8.781936200599887,99.97818947732081
880,0.039541079256732586,0.03147907976356646,0.9087857491710576,10.923852696930647,-8.399425705486802,19.47664324900002,99.99803306310835
900,0.04455160522999865,0.0670158605614657,1.051505255039964,8.645863420845242,11.526554552672826,16.847820566185092,99.98729766292963
920,0.11867621363907409,-0.0006877845550256977,1.0102007965191129,-1.0663209082095477,11.01577730855972,-16.606120119077175,99.94963768805025
940,0.050308264238396586,0.053690572710277745,0.944401176352824,1.690988080727231,-0.553317044816531,-0.2162188843521482,100.00929277546702
960,0.04603851733973817,0.03565853091616047,1.0428487847333818,-17.396480306083088,-4.415613853633106,7.503558177801832,99.97272718728462
980,0.03796186623555065,0.017089312214980803,1.0433166958751792,-24.882245487472204,-9.33399007806418,-7.868730250635119,99.99606445164103
1000,0.034680019055783294,0.0033801113135817776,1.0172823808482738,-2.4091746687403393,5.018643185402865,0.06479952529102696,100.01989290214223
1020,0.04623867545607467,0.02699576812655844,1.0170150395825157,16.097835007721358,7.746878466578401,-18.88133949251058,100.01937245247531
1040,-0.019577990903722975,-0.006549691848543409,0.9962729484117027,1.436651835588104,7.81830577476366,-7.394367935406052,100.02754487021352
1060,-0.07885807330719613,-0.007662189008431317,1.0879648409058844,11.744283737384878,20.078479346260487,-0.7188704082916324,99.99396960867345
1080,0.044162855324261834,-0.010779282056117029,0.9682073614653137,6.446969285459377,-22.640087561125128,-8.57737476976999,100.00574592250246
1100,0.017548647331323438,-0.0895728305491876,1.0602619696932576,11.876025948515263,-12.667810770061454,3.115417031977341,100.01084447027219
1120,0.013414196645786134,-0.046897580697401575,0.9784945129427717,6.799780642397304,-2.3294628861362314,12.343400354367107,99.98067532701354
1140,0.027187397318791984,-0.02124664018061659,1.0041621327093817,-4.305481419369562,19.197687021200984,-21.38935273363861,100.00817242348595
1160,-0.04142129561301671,-0.02294637869086542,0.9650538194921938,-3.2399958167035647,-4.485169144675698,0.7569392791419922,99.9873335266331
1180,-0.048922279997366674,-0.005095111514052672,1.0493509148670068,13.724515633030148,-11.280226224243851,10.502839171518733,100.01023971670638
1200,0.014151065225725477,0.03319492290425504,1.101632375056691,-2.588863351359167,-4.280626905095659,-11.873614610503708,99.99548551350077
1220,-0.001318921690253203,0.003608438007532515,0.9959953349896487,3.488922595096473,18.574902411504148,-6.558619981959705,100.01133339644667
1240,-0.004545488459097626,-0.120808275770463,0.953961223921679,-8.249790599784138,-22.145936881825463,-23.807634522068433,100.03475053707025
1260,0.037097481680435355,0.0075085957770212805,0.8755814614892223,-15.266770545270694,6.839385418734122,-12.46677292518374,100.01193617640465
1280,-0.07674770808183981,-0.012108104369657504,0.968789980825477,-14.10666602388143,-7.581337200687779,-5.324433028227481,99.9776587433123
1300,0.06704065245399204,-0.18359910779898247,1.0731516508264198,-15.5252519671559,-19.300293678400156,0.6786048355765646,100.01492513663042
1320,0.027461499049059243,0.024880760352731252,1.1163361683998692,7.512512326482801,-7.874622591405991,7.101697061415948,99.97935584044866
1340,0.05297946558773216,0.02927515764671983,1.0649050407923508,7.720202378765903,8.359618565789436,11.42555743236914,99.99218650677669
1360,0.0034126844243864206,-0.05407209808423348,1.0039847861366458,-4.794721226575669,-6.241055147307172,-9.664287550303895,100.01654593141012
1380,0.0221588116958685,0.06182551921400155,1.0195441048853786,10.956275617871109,5.750510786745551,-25.836732793775713,100.01757634625758
1400,-0.04973408662518719,-0.028237477300318004,1.01902494167523,6.272733238214322,9.603088871792794,0.5913853674678764,100.03650236809567
1420,0.04293438102160917,-0.0061472810166769785,0.9338458227521369,-0.3176695461084743,5.168519185166119,0.8556747499847117,100.00401026201916
1440,-0.03518510491293431,0.08484867503501914,0.9734708906894789,-10.00617713196103,23.086727491418948,6.788809845654606,100.02830594722464
1460,0.05080811895509514,-0.018547863679059872,1.028638668116391,4.073980181797051,-26.84038572182991,6.100023898654386,100.01994406496796
1480,0.0011557527819450444,0.019144215485942404,1.01165811957305,-16.551850251746984,11.88253406609515,-0.41603817325202885,100.04396447650167
1500,-0.04074330283614865,-0.03690634668050533,1.0564224915483562,11.403120264504949,-3.093707171215894,-1.3985857123515864,99.98551062694571
1520,0.014352641913042724,-0.04046063123205094,0.9915864058266813,14.178906732468015,5.996039503186832,-3.7278470719237715,100.02520126572831
1540,0.008061391953753865,-0.03438216366205329,1.0626316260599047,10.202211515691474,-23.552555456053213,1.7676205032852628,99.99283691434904
1560,0.020687247485376946,-0.005941625573930481,1.0502744602078786,-5.136022300072211,22.893348932151362,1.3653353693272807,99.97538834611153
1580,0.0072907108029013476,-0.09997073860415642,1.046676949595735,-13.052935765139495,7.3640744813812,-17.65343542788541,100.01441358075803
1600,-0.056857661776843205,0.016926562407014928,1.0219510323063272,-8.209341054329503,11.044705506769617,18.124539277063654,100.00035632828312
1620,-0.08579655417048272,-0.024155859249518283,0.9609278328445936,-12.157349608601066,4.99989668197108,-3.0813640917902987,100.0223570997686
1640,-0.06874950605383913,-0.10510990567445973,0.960801717780043,-1.9106483376034213,9.035726305748508,15.843561849116998,100.02384863236253
1660,-0.0030330659824343497,0.052439727773221506,0.996846496838772,4.58477503209496,-0.31029865229450415,-4.380610139364948,99.95720442528648
1680,-0.10552749729895874,0.03681394791297058,0.9288588859104402,-6.044719806480833,14.18473303443875,19.062697392093284,99.97860740459095
1700,-0.059437077540012796,0.0949579117769427,0.99846863919836,1.4340283358427606,7.085184388998808,24.493825037411078,99.98128817587653
1720,0.018118157743617528,-0.02543277272306628,0.9531142279751098,-11.800395712686644,-24.17181455897346,-5.585247996898641,100.02658802144313
1740,-0.021054096303230144,0.05708932304933705,1.0289856544321507,17.68428622229888,-9.888332615608547,-13.662468764934491,99.99481651255427
1760,-0.03734059091734818,-0.014781495317653506,1.0162578443377885,-0.10913670826531677,8.027397941095126,-14.966205277394188,100.00973998839979
1780,-0.029110334991635508,-0.005595842798246049,1.1045463148929604,5.675664721170327,6.374363173403456,9.428572236689059,100.01718378226286
1800,0.0012819116876073091,-0.048472509366768536,1.0194093461369453,4.31790037534968,6.272499188903769,-10.56187777519487,99.97370348484814
1820,0.04747663957440189,-0.0014208128418657393,1.0863549380123612,14.705445825539336,9.402390441549596,4.329829270217735,99.97694724217251
1840,-0.01783917911284357,0.006911591928535087,1.0139581591075588,-18.3098312005906,-7.984574824165531,-28.00167039124213,100.00178634214171
1860,-0.05428113729685712,-0.024740429925919634,0.9082657477794833,4.643178273198156,5.431386011758025,-12.647656103077171,100.00100431656828
1880,-0.021548552824653906,0.03525193425298336,1.0247806697113584,16.73862138645778,20.674626676158024,4.196868095067076,100.00189076425852
1900,-0.08178537983238576,-0.0196200749474566,1.0911894055021572,-5.63693032498157,18.019863071793047,-7.018631068416486,100.01596200875949
1920,0.043775272189354585,0.0050749144772886425,1.0019421460049203,11.59859533716568,-15.400860586064542,19.640377421547793,99.99644399916878
1940,0.03331033057233827,-0.01433508591436905,0.9307327664029443,-1.49542554427616,-16.171500434922045,-5.970792403719013,100.00010494300842
1960,0.06907417953104253,0.08509105931315791,1.0154048473330604,5.129900629652627,-8.765532443609287,-1.2896325311328434,100.01182138735226
1980,-0.05421553924498647,0.03483672244159986,1.0040109104601327,9.614372290135169,5.987468292854042,11.99431241740337,100.0026126411995
2000,0.049410970443027,0.01263839770757504,0.9610341015610925,-1.0611587995874519,-11.670885214232273,4.434233790986312,99.99937578969471
2020,0.0003696792932250225,-0.0427298467603228,1.0025370512503256,24.760229860673043,-6.52910896196985,-24.12432300904669,99.99088351284148
2040,-0.11461842268876327,0.04775478002171274,0.9474929436624903,18.571348066974828,11.237504928620588,-15.07204798459135,99.97198220731971
2060,-0.026027219084795564,0.06942346517118494,1.0681740561344568,-16.45980085887527,-14.39952438792831,-7.055248000007844,100.00110204662698
2080,-0.03494137504197012,-0.0632010972850597,1.0227371462858421,11.290409060376536,-12.780947859855607,-5.997872539310647,100.01577707310655
2100,-0.05951249286038025,-0.022671021150625487,0.9542172772537876,-11.790102376078286,0.8933370966468602,-4.452485641563803,100.01077686829069
2120,-0.025754636969716967,-0.002784185499225622,1.0225686795494708,2.1100562727249605,11.853279761457198,22.037436905927024,99.98245875732701
2140,-0.02263283089215025,-0.039997692193433104,0.9766328344039151,-5.617251874998896,1.9509713367913828,-19.669675201054496,100.013010720497
2160,0.03898838083768852,0.00991908664213678,1.0120327324506162,24.105821681168337,-4.556117972079074,-5.217201703201691,99.97546092264292
2180,0.01116593450975751,0.05181247502208602,0.9942768858705473,-6.504455278197079,-1.5130147773008036,7.508025850012244,100.01145224027522
2200,-0.026556308748199715,-0.0030417244059146847,1.0623837739265665,-7.042877851085997,-2.1081845513886406,-3.5862541586269243,100.0077581426993
2220,0.022374944855212797,-0.041891516675106516,1.0789636532655773,-17.95198190741799,-12.902678022910372,-2.9981125078164865,100.01918484291004
2240,-0.01627573537575487,-0.005335096661758645,1.005683591990894,15.925980408757276,2.188220412998272,6.646949128084373,99.9941515831761
2260,-0.0019325403184128683,-0.05266292973499777,0.9781746997309596,-2.1880663810979737,0.5094570263548126,-4.545214550365458,100.00653983092873
2280,0.08002230271194041,-0.03655092728185425,0.9212045144683649,0.028877012160163834,9.485957417450274,1.3528225066725694,100.02576195226368
2300,0.033294786832593175,-0.08934025104897007,0.9867347006607059,8.763323680440974,4.426438145145367,-7.873844550632016,99.99890730238552
2320,0.017022891970861962,-2.2620961147320265e-05,1.0012329820767722,-15.97107305944908,-6.673126155247554,-4.861121055816071,99.96441674277878
2340,-0.11895384965104393,0.05612678800931675,0.9424761526431447,-0.06616695275254908,-0.4945143757719903,-14.81505280610001,99.97253041578018
2360,-0.016194219491385078,0.02736501633271439,1.0161566373659259,-20.965287246745817,4.710279589871968,11.028737135180524,99.97703122054729
2380,-0.0788072488107712,0.07279978461694342,1.0685966844007173,10.532380656515691,11.360405126508446,-10.95567838716953,99.98456648045388
2400,0.10698961432287749,0.04994828184546437,0.9680712105689382,-9.533210220453189,-10.811372394670355,-2.3572519729389794,99.97581351234443
2420,-0.001415440436456403,-0.06193459690932982,1.0086718199619762,13.969755021631446,10.003111110055006,-23.878517567610533,100.01592652819356
2440,0.04086664322279221,0.08223012030377312,1.0688661783108468,5.606385688940495,-24.412396546638462,10.619262582699657,100.00710035469513
2460,-0.04950113157720615,-0.00712334104378827,0.9372819663870848,5.412197350298577,11.637593160306109,29.745734201378465,99.9861744826334
2480,-0.07271989077388301,-0.051087149622940156,0.9252845788396117,-15.063868652468614,-9.891423723378502,1.7241763750853007,99.98423781315637
2500,0.03464021264695866,0.025543161436004276,1.0714817931875171,13.177004473830365,-1.8804201673922458,-7.397874048336636,100.02581904689809
2520,0.0005087929637072008,-0.0071426210406046915,0.9843406473525724,3.21149804397333,-5.875718222721407,-2.556244418821316,99.52980695399035
2540,0.0469512851117466,-0.054974840257762086,0.942868390545103,-16.118155143422264,5.677910631726352,-23.682910178974492,99.52959423388012
2560,-0.05064313149148765,-0.10471290134393202,0.9820166890841832,21.912740314327962,10.085221734771594,-9.581245262592113,99.55013869604741
2580,0.022571460035161802,0.005239345558830336,1.0486071974725566,-17.412552144795683,12.568345164884873,-26.47203811823381,99.55288198527008
2600,0.01977567452081966,0.015233405979332957,1.034255260169757,-4.778498370326778,8.002297782348926,6.877071338516724,99.55592274623372
2620,-0.03256115547756012,0.014390316151573206,0.30155209120279836,88.66411113923603,87.6213246070029,89.81867443154916,99.55036556945102
2640,-0.01564788015914138,0.11998597033427827,0.3800799873395974,93.67614871498324,77.67147689210313,87.65169495237066,99.5353277840225
2660,0.006817661129283996,0.024706087779066948,0.39530172477486936,80.78843169854437,83.17872085823298,57.56982851095969,99.5729442731596
2680,0.001082459961827993,-0.05797337019601744,0.351611485574803,75.5380739897014,76.43264036632439,63.867319215032715,99.53961175437965
2700,0.0028038540395485395,0.006698800089836892,0.36325565332926,82.07194204358379,83.67065334948074,91.03309721529119,99.51936072306052
2720,0.06460445398141419,-0.07159868907209832,0.3414642117028911,95.8218111118015,57.62807339227206,72.71588807076581,99.50983478626117
2740,-0.04950404306244025,0.0810375243092833,0.36543044979268446,76.83967725096058,79.74394164776237,97.52691032174691,99.5222744927123
2760,-0.039008920311892376,-0.031808968753923965,0.3587482795072072,89.19484798178922,68.82189091997668,74.32378261551466,99.50909294149092
2780,-0.026161635023769076,0.002016250028344382,0.35544035322515216,70.92543831278726,76.08183867660944,70.57048568580214,99.51931532512613
2800,0.015675202135796273,-0.020775116716680073,0.29927820719509407,96.3557913274754,58.24219812803519,80.73866940173458,99.5184492032152
2820,0.024188630884351393,0.09711836958842485,0.330032019480698,91.05853084831972,82.38474678002338,68.76759984667011,99.55383281149473
2840,-0.048031109204508704,0.04299087055307338,0.3066395050171107,87.53526824473437,74.22325308496005,80.8011815245506,99.58316046413103
2860,-0.06264666107257025,6.97110266306332e-05,0.42348759919181334,79.00417642161393,89.68246690946249,68.56575406524527,99.54691222876774
2880,-0.044817628196969966,0.023808137222914062,0.37870302015567114,76.72113808934897,77.47570639063935,64.17542671666061,99.52335261790192
2900,-0.04379697657802467,-0.03657476677993284,0.3287625160442426,81.33923584406278,73.7840999354491,79.28387660785158,99.57204087014964
2920,-0.08047898543779518,0.017261593150083725,0.26795115394822394,71.47077110221551,90.51690200161565,65.16141047165362,99.55228923032645
2940,-0.053684238819557244,0.019336966421095392,0.36810178624719425,76.82647615371161,81.12949574764242,82.05091660292884,99.56481496353842
2960,0.06003718093088402,-0.02496282861818398,0.2423818951843666,76.81163134314042,67.06116129032337,95.31699810247014,99.51351777627349
2980,0.1301973124787466,0.04850241474501028,0.404923020995796,97.17674714357207,76.15464011017866,81.4899309832894,99.5327374577848
3000,0.012629867268342976,0.04568632566268119,0.33155982742652923,88.26481550996279,93.90607811830094,84.52791934573533,99.55730083167255
3020,0.023612410081919666,-0.11411283860706141,0.40579687778699647,75.09473202833856,73.87167848245181,89.10371388080364,99.56141809627579
3040,-0.005697179616819431,0.03425695269493439,0.4079575533132392,93.94640723033895,79.14263021760428,88.70527519492569,99.54537289328748
3060,0.05804914710033848,0.051784944000313894,0.3334217896788603,95.66157977923072,60.76330684250385,58.90190365636997,99.55198788012191
3080,-0.010396074490792008,0.011624458727728042,0.32989400878245156,83.02492407000572,82.01118812136994,88.65688969950098,99.5491488217577
3100,-0.029248623143024233,0.0879038742344373,0.36965122186257526,83.36352327036525,99.67430390402666,101.3342931378534,99.54899157235644
3120,0.004861919819043975,-0.026713795603023595,0.23899516659908282,68.22177471948731,91.28365060805916,80.15080936653929,99.54313700983272
3140,-0.025552698909080757,0.0030252149095035125,0.3576848256651525,75.95038413067738,75.63415254154134,77.01100340289923,99.57032931571388
3160,-0.013969292157163617,-0.033007096260322236,0.36074855928052085,82.00652092573658,79.38262953238775,77.90591952614015,99.54550691550378
3180,-0.012416636631992417,0.0023354292522607335,0.38903879551428316,47.628486326456965,80.44818772353419,80.44116979779172,99.54670086074026
3200,0.022987045723440687,-0.10010668752757741,0.3787777921675729,92.47942589185789,73.82585809947167,60.05959142752661,99.5161069961904
3220,0.07864935488375875,0.05423016714848077,0.36829114766780124,68.54254033260456,73.84552264430548,67.14124618847042,99.55930523498895
3240,-0.09281620973789134,0.07346441237067719,0.3083167167999522,69.6538449359024,64.67766264735104,94.6578310429446,99.52871824404559
3260,0.0478049637690076,0.07134602991089344,0.3233697966303565,86.04613299303693,82.80959735459508,67.98149484968845,99.56258214010926
3280,0.004262508384858243,-0.044827816859498895,0.3226111224836584,84.39831355925901,74.41647138086925,85.88432299857296,99.51596872401845
3300,-0.03865674272458014,-0.01651179500251758,0.47582018865875353,67.19414264250237,84.27621576066772,75.57391257170158,99.55312556815808
3320,0.036026055731526375,0.02706799817700073,0.27521244041347953,80.00582039993688,82.51569303431222,75.81197138521426,99.55052776525602
3340,0.017740524329592743,-0.04958047986948473,0.3850389443331502,91.09763325806627,67.17001025580448,63.82432735981849,99.55536299538515
3360,0.010496483332141655,-0.06545259381839294,0.41656466151448457,77.61520743071368,91.12465257859883,82.69266770887191,99.5375444911932
3380,-0.03985205578139053,-0.0036245363740288594,0.3002705092344288,67.5417384251801,101.2654068109205,76.32906606528884,99.56816587075706
3400,-0.034141244643426834,-0.05492451313250342,0.38413613246713296,74.11338082288756,62.44056764851931,79.32108549322864,99.54685392776494
3420,-0.034712616018612,-0.005377502775356345,0.33317420530720654,67.71197862742954,92.39541397943061,62.75801544873563,99.55700867484774
3440,-0.06539326810177322,-0.04785913314089877,0.38547419787055776,69.00443413392469,76.08402036732697,93.10391115716949,99.56945142297602
3460,0.013451783318796927,-0.05688512151992521,0.24196017587394703,82.32330735863476,62.84043240654418,99.89454547451739,99.52593301078846
3480,0.0011912419565222915,-0.01402326850346142,0.3972784443565548,77.05590098291324,68.8080337484453,47.6376969284917,99.5386637186576
3500,-0.024820422541235933,-0.08880920609056754,0.2542937093638242,71.60389886014906,63.97151294056832,89.96495789686001,99.54813539842738
3520,0.044883061801260886,-0.08342189195978611,0.3584483105166272,85.22294463856477,58.840601405825986,77.28525004386692,99.53169977737761
3540,-0.018402186096910602,-0.007279610148899815,0.30522734271696256,90.17458219930677,86.63697135222515,83.68257016566895,99.51923761508212
3560,-0.04785313080529929,0.06404668582916134,0.375288138848641,91.37407134393905,85.83146696673052,83.04624817515793,99.53219660860456
3580,-0.050962248781582044,0.08314715612872367,0.364197901341345,81.83424186514723,81.59756506175492,64.9535331402908,99.55063973917719
3600,0.03153710019805155,-0.020261290569734258,0.4308253503036003,91.15515664029775,92.30306080552953,68.29034375410633,99.53893948474965
3620,-0.03557793737690397,-0.030090856209645186,0.36740466546218836,86.75981455794175,74.41457288348286,77.48829317243238,99.54940868932279
3640,0.09046849570232697,0.05646855191918391,0.32328634893405406,77.35610344978002,74.96731518417488,87.00874409422156,99.55444258004998
3660,0.05514212116570849,0.001060728198100011,0.45103959125701865,80.23027538298452,71.6202352112518,102.58685593421706,99.54428970035971
3680,0.09321935429495434,0.0329608578867149,0.33844722071556793,80.06962372934439,76.61236894245066,76.61826487755616,99.53454822386094
3700,-0.012116183302852345,-0.01808115365645802,0.40686432843341624,77.85364216831832,65.64797851571204,67.96900293760571,99.53073743531613
3720,-0.08384919268471946,0.05573758980556185,0.35135579506129094,66.4633855204189,66.28182129945613,79.45977445362482,99.55312207515334
3740,0.12005414742605139,0.05429087659938025,0.3427946717667904,68.09797345922934,102.14107079381384,104.893748931212,99.54350601669523
3760,-0.017064338055214578,-0.04420465568820927,0.3675119826756568,85.26678207623664,99.05767969706983,68.13029875472955,99.5393165359436
3780,-0.08996193127722724,-0.03438053859451402,0.3173668201276349,63.161192892975386,95.4438147576674,89.32703667072442,99.50554797073676
3800,-0.011061054688426811,-0.05544345872654695,0.3700900276216988,75.22898612107859,77.33409348441089,83.67737524692042,99.54301579203758
3820,0.027439303024520967,0.04617973191365688,0.33896263773915225,91.15284570178014,92.53477097294923,82.30270464609164,99.55347876461529
3840,-0.03109081930014866,0.0615833843581457,0.3074998165890946,76.94634480037656,91.5903082979124,91.33520429650552,99.56129509756744
3860,0.054021443050668305,0.004624011612155285,0.41049983312296606,86.39250257810804,75.89532194487123,83.58834630996031,99.55328008360267
3880,-0.010016580847745222,-0.06590877743165383,0.34030761000944293,65.73056800178911,79.34702887075666,87.79607004271604,99.56405345567303
3900,-0.0017707735059351718,-0.009052113791244744,0.3450393936891528,75.4014598066027,71.47995542150714,62.31734626803234,99.54708985243812
3920,-0.023097972632847987,-0.0287561920433101,0.4016633721444912,71.86410605027822,66.93951329713784,87.05102093525488,99.53719193568062
3940,0.012554216242624101,-0.15709933274917828,0.36672400791094456,80.56245597851101,99.56579073625706,72.75000846775659,99.54032025955628
3960,0.07815004208863696,-0.04765302168605033,0.35178144861070726,89.14683002265627,75.76557222962482,56.46878490723074,99.53623211938836
3980,0.03513249046653398,0.0402784237016366,0.3543531191000563,83.765111821319,89.37094322300142,71.66593216952002,99.55472151578131
4000,-0.02572952676620769,0.025413073342171716,0.32433824733794586,92.9894544065098,86.07131137820286,90.26786889071937,99.54132619740314
4019,-0.1003229478261303,0.010645025470557663,0.43468362368459224,84.20400327303496,80.75402816832612,88.47421786312835,99.55396163211707
4040,0.06276276228070869,-0.03705327953877276,0.3348913437632864,92.89666572167994,68.0037650651383,84.13990469822095,99.52197702529253
4059,0.004015156151870203,0.07072450653465366,0.4265427510129951,72.90718358464953,76.64787869384469,72.74942157284433,99.51866679430486
4080,-0.05712310154981137,-0.009153788436533417,0.339029571306612,61.833969854153324,82.79523435759333,59.52969919748188,99.55024176426376
4100,0.02613044649330558,-0.014081981144915313,0.35700432523946884,82.77167228591354,92.24297533414064,95.35509425158538,99.57519438193692
4120,0.02695004416244738,-0.01957785732985928,0.31426504448479636,55.81146957583245,97.94409361737831,97.29011996477122,99.56265685486605
4140,0.04957565715329497,0.044064563977098375,0.336874632260561,86.56297199206782,87.0420324175706,80.97244487274916,99.55365495284748
4160,0.026453096444122682,-0.007625221856779921,0.3782308527775032,70.84216314680117,66.07051050502854,59.82870423994274,99.56299835292938
4180,-0.08197706647388131,0.024521786147319365,0.34727783206885227,89.95638693315875,66.09929303806118,63.82757110328137,99.55458735999102
4200,-0.01522937563327653,0.0739284510816248,0.31805391757673485,91.53631084779161,72.23500759018269,92.98802961392191,99.53387273345592
4220,-0.021328290944367584,0.07035993230491498,0.38248020186117565,70.94299069242194,92.8768149775143,74.31620166595751,99.52943101223006
4240,0.002437254369635946,0.04270471347460282,0.37485248461829473,66.3798863478651,81.09303867157243,65.94705519189203,99.50841383744701
4260,-0.01091349988845687,-0.05009341264257359,0.4253305431273155,72.58138205149093,89.60057280678993,57.911039944296064,99.54670013206376
4280,-0.04174141089524495,-0.014273276720856591,0.35102629821237424,71.31023194309827,70.97500655806417,95.62496737541699,99.52329341336501
4300,-0.07897769113344474,-0.05010965429685206,0.2766937509585489,56.42960258849163,86.66567867776153,111.23913574313474,99.5651416155538
4320,-0.004838038966034297,-0.04507117403034739,0.35148568735824326,48.008150707334025,86.7298096008075,88.97762337113642,99.53477624677375
4340,-0.04514347934590734,0.01218628229538349,0.325888256981569,74.4202516603782,78.2736985951091,88.66810950950946,99.50590243358572
4360,0.038356964747590906,-0.052291265813243615,0.3278442899919265,65.79949709671669,90.07109040448456,90.06267005636677,99.56007181440077
4380,-0.0638925553146133,0.03738362872298782,0.41509847125547233,61.19439326274744,67.11795438051163,63.84749259682576,99.56287376081416
4400,-0.06983126527435295,0.00404155899127086,0.3945618508872938,80.90400083167417,64.04690987405586,91.16608184387405,99.56064249670276
4420,-0.12227289231611367,0.04221510395552301,0.2426251511492414,89.40548044333299,96.78797235615005,84.87942498812527,99.53917212517743
4440,-0.06802859164295147,-0.03255528348094909,0.3407195900522317,91.1503617257427,78.06021072487276,82.69659642566536,99.54314162601773
4460,-0.0005335313894897884,-0.07387506273495921,0.39690921276948027,92.85602219386075,77.27477830060899,84.65068978924424,99.56878828864184
4480,-0.09731720553013468,0.035187004069326566,0.28766820267856874,85.72683003107238,93.03615500601552,53.58577199126621,99.53680034160685
4500,-0.11825852512486466,0.014011049056253092,0.4159996968709789,88.23841697973688,93.3892677086379,92.62495977628251,99.5488042649841
4520,-0.02621688974151449,-0.09544351507329915,0.3726524444810464,73.90266214985722,85.84106441268321,87.24209577083008,99.55442815723956
4540,0.06307071862580073,-0.009906084089181116,0.3816472169814879,108.60584385243612,90.47531773450379,70.60915890691221,99.54259788019226
4560,-0.007514803266285734,0.012100498268635875,0.3666199037313089,87.57911876904845,59.158889516735,65.52654847823936,99.5404267962481
4580,0.005261419699320121,0.0984702420403006,0.40948668106615105,75.42100284950381,77.32764498182856,93.31298756178265,99.55778430778022
4600,0.005350500891150564,0.01370793905948318,0.31702762169671994,81.36021617045135,72.0013130733237,89.91921740099815,99.55032979075685
4620,-0.028738512549459923,0.023175745966263758,0.39945593462757006,78.15333518567354,75.41348639543422,71.56603840789073,99.55570837346794
4640,0.014674146519711823,0.025294174160007146,0.2854622651132068,77.70654426362633,89.26477084269715,73.22708408981646,99.5394631660774
4660,-0.026487033485711575,0.04369773591438936,0.4044105855953149,95.80300329034108,82.29818854605404,86.38067907519196,99.51775068379243
4680,0.054395885586400884,0.009243938904324617,0.3696596572229631,54.18758928580106,79.0507816821234,64.2556970854431,99.5597373607484
4700,-0.07230575714136295,-0.006059704642217626,0.4453011081303517,86.42789082047706,82.60205919176768,71.54276093805716,99.55122352242903
4720,-0.031688457951992204,0.04673199887861734,0.41812155161303627,67.42615692854461,79.33039447807175,82.35540762331108,99.56058422253273
4740,0.075241908527664,-0.0953556496800535,0.2820876289830155,48.36996882806571,81.55547741450899,89.30602117884808,99.56069662571706
4760,-0.05338055424841253,-0.002644470609147996,0.2774372148896843,68.08092515184244,93.8929003099877,78.6412980777139,99.52375874666662
4780,-0.023577407303845048,0.06584161950443367,0.4159254950809038,63.572597672442306,86.98011572637587,94.80531740561004,99.56232400528906
4800,-0.030891193319939055,0.12641643818402867,0.254134993031426,79.06106958544548,82.48107899806666,75.98891822585996,99.52969123936168
4820,-0.02586118752233052,0.08332627752234464,0.3175734594584974,71.65772074087118,80.44369037610595,68.75941661352573,99.5661292679471
4840,-0.10098039973584144,0.013826379673696912,0.2795215424369575,74.35547970254444,77.8072417415219,78.4654485221797,99.57049699580622
4860,0.04074030716926171,0.06758830033216866,0.3334787946434597,83.29639192700682,85.46966868866276,79.35681510483822,99.54924585657733
4880,-0.028182446469525647,-0.1667951689598849,0.3434667712081718,95.38241252059436,90.93260888337548,91.08741101984904,99.52775275506363
4900,0.05951870927117105,0.0465704671183041,0.2291372141586116,80.83445258354168,67.03382158347942,91.07866234071074,99.5599269124479
4920,-0.03265682265353713,-0.006880157466514967,0.33106761534389517,96.71921024285366,82.82487745042249,59.392312174987566,99.48823731856183
4940,0.096188918687832,0.010627519658411508,0.34213252539887495,74.9714949778673,91.00505482856946,78.88259215290478,99.55521788739857
4960,-0.05585589479198261,0.0061474176282728926,0.3696879839739147,85.27916276371123,67.71060410215114,69.7451060710335,99.56912611336459
4980,-0.06590159247268183,-0.08499652025013912,0.3960462024565981,96.21682395388605,90.8555689427244,83.33015790214448,99.55947126468799
5000,-0.03474083881879102,-0.013173884838222866,0.32792064942071614,87.37615620605513,90.49457692636335,60.09476014721905,99.61125977406725
5020,0.022225647875058204,-0.029806280724019436,0.3463565094343141,55.268018781873174,81.16141847686767,68.1286954328206,99.5713628641922
5040,-0.024375518212182264,-0.024984833303235372,0.39820423071198485,78.880371721982,67.4895749597136,97.68745394033917,99.55292236963449
5060,-0.024529273791415267,0.011566462459892568,0.395666456426392,76.95681467682583,62.189072260470304,82.27990440799732,99.57559033113452
5080,-0.0062557953217000075,-0.02565318721572668,0.4418663563458347,77.5666284476012,79.15204290908677,98.5516316448537,99.54777053427323
5100,-0.03528031782654486,0.007647640078068692,0.38278869256825476,95.22604943631288,76.13943789292937,96.36096935147903,99.56782906917482
5120,0.0066690566381556945,0.05970778107928169,0.3569608332565564,79.58203987940054,74.39659228948531,68.09803192965026,99.5392298736734
5140,0.014494531141664374,-0.004431404916051019,0.3811031968956232,71.23099986830141,75.31481159372422,77.68406081912836,99.56024504132746
5160,0.006273026018073007,-0.03803332331711435,0.38259636179083584,81.76343907269833,51.68427240054707,98.30453284825349,99.51863313357383
5180,0.029182229759278505,-0.04383564371373137,0.30339812761302354,80.51994563431774,80.95895676463293,73.59278552858785,99.56320490501987
5200,0.09155838631074975,0.006055550275812508,0.3734476494956796,68.84824486586587,74.9449671486429,87.4354687576493,99.53115448279777
5220,0.09830443398337381,-0.008732891301025994,0.38882206012612996,73.79945496918234,86.16149852774166,107.90860970766764,99.56514973163691
5240,-0.03026880395506166,0.028353878626680692,0.2942532848454691,80.5710564848585,89.84265426422608,80.86493037005162,99.50781545619914
5260,-0.08755635764459291,-0.013697585641168917,0.3718200007165945,78.76485845221755,78.75867158581032,94.86835504513712,99.54805558470547
5280,-0.012439019876618464,-0.029889617063636534,0.30207332197490355,84.87751087812023,86.12361449116506,65.43070843917334,99.54533613252936
5300,0.02652734040833701,-0.004843482357592424,0.30040765021679094,88.59680029768441,73.36842733918988,66.6572523149612,99.52680803836482
5320,0.008952148489122118,0.08552847527909721,0.3085899599189236,58.66016723193472,74.15227388798937,108.6923371991183,99.54994754099147
5340,0.010091708693853627,0.03270556282800029,0.34161464980631984,55.71926149034236,95.05979754304937,97.6298096726923,99.52865106445246
5360,0.003908282275457089,0.0506824448133224,0.3502256253275597,93.15872920931457,76.63973623440391,83.93115636183369,99.53498820309315
5380,-0.032114876375571116,0.03520941734533506,0.34700339778037126,100.18444079214325,78.95372196492447,68.88522690342467,99.5499018492919
5400,0.03173608670363023,-0.023709805963031783,0.429836637727775,74.2019858549686,82.3590117776344,76.01999536419537,99.54936822767597
5420,-0.00313669689490714,-0.003238235545725473,0.283212475530222,71.76135253012671,77.08368124345668,77.95410685035014,99.55617808270303
5440,-0.050757568881322816,0.031754730154278425,0.3649330924672393,95.32639976316395,64.22099050170534,72.20294875526614,99.52158503602466
5460,-0.06996752961735156,-0.039246462133417065,0.3135801594885068,72.77135027628621,73.75298504288331,72.65740206732524,99.50995703349464
5480,0.005750892852200293,-0.06312945885788605,0.422700512769775,100.83064105267457,99.63460318289556,75.45260016363902,99.54465260583922
5500,0.020931444828463278,-0.0062337444721620415,0.27287646103137725,93.31000888204439,66.86049680078699,78.78961405793723,99.54222358888944
5520,0.009762908440367389,0.017293281606736367,0.3704610473296053,79.13241273566642,64.21819552194249,94.92891256694344,99.55453515487966
5540,0.019714114422874168,-0.045983052489788775,0.36193718586623413,81.86630948718124,88.92245268174797,58.018199375965864,99.57891603737363
5560,-0.10745606646244432,-0.002137084098779897,0.28134554190378924,78.88922376525943,75.84849615043021,80.62582508339948,99.54096022641532
5580,-0.042953779501817065,0.023678314063486708,0.3935101625401317,82.94337481864224,68.7495190633749,77.29102582377551,99.57184894467015
5600,0.08529463311912651,0.05243082458037587,0.3214278954064437,83.1551384147539,94.8882843345536,98.27781978577592,99.52971671518688
5620,-0.01770841830950166,-0.012372706954497579,0.3500866026234926,87.48592698426565,95.30318281434589,72.40980766267323,99.53272752432785
5640,0.08136106881036403,0.012139037912645407,0.2638819082608397,65.30277844955026,69.12987227917407,86.66344568903655,99.53968134533622
5660,-0.007681488513749334,-0.03378422687108319,0.33115198160814696,79.36634100684728,64.22330354523748,78.93073146886432,99.52251655012944
5680,-0.11483766197015022,-0.05461995659833427,0.30062121394923186,79.15465979693359,78.9998628400535,71.06903434977211,99.57377671323066
5700,0.0007508623532669384,-0.007684252536081517,0.3674043467851198,80.48719803443699,87.53180947250145,80.26323451014127,99.55398044208063
5720,0.034135309989876586,0.07877890789815739,0.3730131862333301,46.22600749567214,67.83281132782656,67.0837254084005,99.55657306236385
5740,0.01924082142182479,0.020622673487030983,0.3759021077246823,87.4618049734261,81.70959613673753,102.54489494234909,99.53156664699759
5760,-0.06199659033700829,0.02690928134011804,0.4004250693998678,92.06914920372515,89.09551022755456,113.2882431440297,99.52679912838967
5780,0.04813103891124785,0.019825286595292667,0.3657929849516368,81.72204470552217,69.66481082319075,83.6725464989575,99.54085046735777
5800,0.08239968434010497,0.05401650774432157,0.3248248150376644,84.85588692042074,80.21764539081565,70.7293787312356,99.58420296984805
5820,-0.019889243992885264,0.0881935545820432,0.3671575188404549,101.71417360897355,65.55684633313358,100.34061641190921,99.53599649902704
5840,0.05432861323087486,-0.08609807568813757,0.40569582223674455,78.97744607799996,66.89308351936442,97.63394729906454,99.56528037048749
5860,0.002919698618689659,-0.044650445912845685,0.3763647139814208,74.86145756764685,76.919749013783,76.80736558234223,99.5529438796242
5880,-0.01551130813183014,-0.17010658225193537,0.26448995373579554,92.48934953627182,73.47881986495617,85.0564762688125,99.55912742297535
5900,0.026982226839040852,-0.11329148770963315,0.3209659121395633,74.76891409190966,66.48243785950076,78.93171125994606,99.54206569976118
5920,-0.0005497763071517357,0.05367909035127097,0.35070544885351773,66.91883358794853,67.1764407779233,92.53819419214959,99.52392378786004
5940,0.01634287696008223,0.038253081457682636,0.3205621834596039,67.47214236055324,75.88802172505608,59.77423423816565,99.53977902246933
5960,-0.01157497016804548,0.023828214796938783,0.28645268846105,62.08875720598495,56.162814529172124,77.37223362074168,99.55209816814018
5980,-0.015392704419663356,0.022153696576461657,0.24276514062774573,62.33174079863039,68.69896185093145,83.3319959286772,99.55967319329902
6000,-0.06016363433836841,-0.04139868210273381,0.3200597108057334,55.187848210663326,75.38358318338777,77.19386261971056,99.53691284285821
6020,0.05056252732894598,0.06018244084666652,0.33706039311222064,76.83504247255075,65.67896749323648,100.46168622470398,99.54000092380923
6040,0.01481802369235705,0.07965435148263972,0.3815184580403407,93.86645627683293,96.92865128386065,67.15204829926813,99.52335001893853
6060,-0.0525430812864438,0.026461028069281085,0.35857426372947443,106.69598195420849,77.16469394204066,93.79247839238492,99.55761984102435
6080,-0.06130393701537445,-0.004471621227744981,0.3686880444379347,75.1096485015944,81.98689538027583,65.01756390693323,99.53639031547155
6100,0.013858159322324735,-0.021548275820193818,0.2579372292620015,75.24304057467856,75.06966496002386,65.04269674411634,99.5638405934752
6120,-0.04726938557690964,-0.03895936980321513,0.4545814308473121,69.98224405732083,68.97740077561033,84.63041483642687,99.5658142102496
6140,-0.05050887653518446,-0.06436342191520648,0.298822305362188,72.6482364004082,91.5273537896922,75.80170653521921,99.59501778538866
6160,-0.0353307945449451,-0.006508735607858729,0.33542311698182053,84.5422590871108,87.66126553346427,89.8482772051706,99.53428476414643
6180,0.010529479569936828,0.01236609215113474,0.3660927131374689,94.06547471506721,68.73245516743835,74.78850837061678,99.53369182652492
6200,0.02414708316117669,-0.02666307351462023,0.40302802652278963,69.04504867254451,89.24793383075381,50.1376837220436,99.53911897988293
6220,-0.05531381297872942,0.07569827334005125,0.3806881337531438,94.43323691138868,65.01910985592113,82.15229531179679,99.54795512016405
6240,-0.024811309694832473,0.033486211932453595,0.3179071461927344,70.0633707026681,79.88919587283387,71.97814009903976,99.59631050797503
6260,-0.0275404905325463,-0.060150924945236196,0.38947225377050765,72.0882226543541,67.95743448689022,75.20445376106436,99.54659759954444
6280,0.013503726075776525,0.013290925619729428,0.3081046150663828,77.77546765568734,79.52329437239358,106.83600745748166,99.52502537324776
6300,-0.018164264512161094,-0.030888750394636066,0.30119638201744925,95.4759773131293,75.57060001332707,88.76085695935953,99.5130253288588
6320,-0.016807031027765065,-0.04742777522689609,0.35008298013728867,89.79251800268175,78.70244045070045,81.89291299725204,99.54297326813727
6340,-0.04694965905206345,-0.024188791429834183,0.40803421381513,94.39223495547296,97.1599317056299,93.51473959958514,99.55612050607066
6360,0.02817863075741473,-0.00758049549001041,0.2987652710889973,95.96827577355577,72.64679268011368,86.18473134259412,99.53589233938938
6380,-0.03397663089436505,-0.08920074792034656,0.40235819238210035,76.4357842516486,76.70801141447802,70.92961837153902,99.53213097770818
6400,-0.05012165585005418,0.0013681341724227781,0.32475898721582014,55.0012644896315,58.99092461126557,60.817582132649534,99.55244696771499
6420,0.013347877240573722,-0.05073508672638443,0.29449649637012637,80.81592190633434,95.19332125342001,72.09621615051024,99.5274243025161
6440,0.08924588318246121,0.023779011194882224,0.2592448522426534,60.61122845257441,55.038404907924885,85.74243206762654,99.56429191091829
6460,0.01929799022006079,0.09867845509767553,0.23262406719118164,94.20162986055045,96.81971131604138,83.32150716313866,99.52712456745957
6480,-0.04500778702731412,0.02297387083226447,0.27819542890973037,59.36127604787661,53.11635034927134,80.97679657434755,99.55181660549165
6500,0.10984197116513789,0.07536574708282376,0.4147831066364567,66.50876540963525,83.14496011963233,59.54494378978001,99.52201158317959
6520,0.041962904589141134,0.026658799949371682,0.37783106129856614,81.03964085696903,98.53473552161948,89.36984671048944,99.53880248124906
6540,-0.016140808499619626,0.023825376561599533,0.39849179499966925,86.28465380839361,75.00023678522,89.34080137643224,99.52474670483303
6560,-0.009588845617533495,-0.1226364434458541,0.327034987078292,84.51763600063954,85.23328519930807,70.79576161671187,99.55718705459203
6580,-0.024261379970301006,0.07719593175795417,0.39356691743981537,107.36175605512567,68.06994964497513,81.10909287747863,99.5119116406225
6600,-0.12709115643992583,0.10587153163152213,0.31148228910851405,81.48386114287234,87.23057206437574,93.17565006975946,99.54319434689134
6620,-0.03292811106690858,0.08867213415234519,0.3551619821429595,84.01733339315996,88.62888777164441,79.22824259632226,99.58338833763385
6640,0.02751617003578783,-0.04457221410601105,0.2947966030678991,76.27926817711845,82.59181975422352,66.75938581902898,99.57957833776501
6660,-0.015572402816385939,0.07742350896337631,0.34275321889682,76.56312769535734,83.12767875016237,76.7621470509186,99.5940610413201
6680,-0.008334214893860827,-0.028200588466975332,0.3603441812001789,83.35691176878892,58.27103958893083,70.25234120376281,99.56316664878752
6700,0.04998712142029925,0.023079251322316443,0.25143642471466054,85.1319058247061,86.74536720292559,69.12552564578496,99.54222477410086
6720,0.005482777272745899,0.09124667584321537,0.3766649621987063,67.74792578672583,68.47115401345405,73.965916564234,99.59380952338121
6740,0.07270171091864126,0.04094930180234577,0.338670367832885,66.97649440732465,82.26930952322884,89.85840100686158,99.52522497736568
6760,-0.13313846343585065,0.0055787673641408755,0.4318529646813692,80.04889094810488,66.90285511678634,85.41153640793071,99.5583740549251
6780,-0.026268644095498724,0.04205186194065147,0.35062287034064876,91.22834846207587,83.06145189099348,74.90950169371712,99.54250144003251
6800,-0.057816289483245666,-0.07827729970552814,0.2856300706341445,70.49024856095102,65.2140047109674,79.97874933516006,99.53486622578028
6820,0.05846746746298162,0.02900954493338259,0.2884192478679515,103.45310257617638,61.88949936148238,93.48399922344875,99.53620735029482
6840,0.013822266604388936,0.03213494413596756,0.27674104500575136,67.83857428893145,90.57696879411537,77.63808004820737,99.56047708711718
6860,0.0744062382165686,-0.04125837428260667,0.39691894275775796,87.69326176148414,67.24301501007479,83.70416869318908,99.53561643180966
6880,-0.0048399238867095455,-0.07148090938530421,0.3158058763049417,98.33558469857086,80.72755107865804,94.19133188942942,99.53936525712513
6900,-0.1024554912366847,0.02488695417306082,0.2952824402623259,93.12990574664167,103.25061369212446,66.88302028136223,99.55354138864737
6920,0.04178416643857505,0.06761542350592692,0.2734199094357057,90.39876512474842,80.52467808804862,77.0865319810765,99.58806265797037
6940,-0.07478963835159234,-0.021374003025728748,0.455401965772812,76.46946675476627,64.55377576907678,60.56654518155733,99.51180160317361
6960,0.018007432494571828,0.03227403491116606,0.3158646209482406,58.114075728841584,76.93555593629043,75.47001472010602,99.54332509946306
6980,0.09211857983962124,-0.08493888324296589,0.2536265141230473,73.70499554883234,91.5557713905489,75.8309362359218,99.56600204044221
7000,-0.017749397938758203,0.02642444645027007,0.3487902049363222,92.40487683831331,95.56794662544925,76.75035350448519,99.5592572450613
7020,0.015623667961845347,0.037914191584082824,0.3728716371448369,83.73323610143508,75.41927625756853,70.77850115533188,99.5862975822512
7040,-0.12288670849098865,-0.02479908271667691,0.36609182403576074,69.0912131309729,79.43318402741875,72.95684783556428,99.5138833091547
7060,-0.0025977873600311393,0.036587783972154515,0.3903595130758347,86.1650125967157,66.99899908576744,82.92545430676448,99.58017592515806
7080,-0.0065771787642625425,0.0046022730513180276,0.40354192186894006,75.86154943275015,64.96406674854298,90.52123631881686,99.52931439217319
7100,0.004306907556953284,-0.013813173848222199,0.3315705830286033,73.17783932951225,99.27187346056422,73.38786918441396,99.53521419148545
7120,0.045398210095982,-0.016759170798090462,0.28225739918907145,62.51015433158422,89.6194706407573,80.37063492898635,99.52832091551328
7140,0.0640525006163422,-0.02920652371568196,0.3654353842837421,96.7391355931793,86.77301990948808,52.88669620578398,99.54718989636532
7160,-0.02970175210621285,0.01370737892621933,0.4278043033743662,85.37357227543015,75.30734668693265,89.5589377775711,99.51377770880596
7180,-0.00452922161577909,0.09724645760737358,0.36084863229285646,74.15091178096841,79.26158333244975,79.42706068973904,99.52225307581833
7200,0.059043642264153234,-0.019214424126797164,0.3340627248984432,86.02704854177242,86.30967740937922,74.43202789175653,99.54227211386176
7220,-0.008294719204639941,0.0562395025240254,0.32069714590772547,74.06637637340769,61.3902687533377,84.2625384517218,99.55890374552457
7240,0.01582531308648778,-0.022958222140846474,0.2709231218138436,74.4707560115373,81.05326353318021,68.06168402962902,99.59110109811867
7260,0.007571532094177744,-0.16000307238248956,0.33065749020980645,89.41863536596445,86.59025571183848,76.65471497244516,99.5797749394258
7280,-0.061005806452461814,0.05166804246906727,0.25317347528264184,73.9384225749674,83.35937249086115,73.48043399382017,99.56668343501408
7300,0.09249313533548964,-0.03963442647092946,0.32442094728694565,77.35038566249737,78.70147346381866,54.99822304024897,99.58806192434382
7320,-0.03417633320317886,-0.026365181382627802,0.2568522374295128,81.22843403350309,88.3830770901825,79.28050058588221,99.56091126454902
7340,0.02869156432087863,-0.07620934166197792,0.3403783556434899,58.54081344402549,85.48417042435392,87.35654869603196,99.56765406370373
7360,0.014131397870558044,-0.021868065416688707,0.323571590580384,77.7478407555497,94.89351402437606,73.45000115985385,99.53174907855426
7380,-0.05258173635897093,0.02062503228504131,0.3543055005047437,73.10936666371182,62.96333781770768,72.7687219339839,99.53062071881683
7400,0.002738599150391255,-0.016805042175794836,0.29115157537245506,67.74557458098866,84.9483346929224,78.84777612064205,99.54845792416496
7420,0.05832877945698768,-0.026881242222525654,0.3351256435634845,76.73830492423437,93.67321043661548,84.90853598957476,99.53577116593453
7440,-0.027793535842980152,-0.11316933491612285,0.40288782578773613,80.11171215103754,80.24533473705297,67.2526094983475,99.5161949214345
7460,-0.053720767188481025,0.0445640244038363,0.4545405295617345,88.88378841869624,80.07256643583831,78.17635886003747,99.54633699145083
7480,-0.11790172372830054,-0.044573009795723734,0.24425796552643975,85.1805163934848,71.84666729743107,61.799341279790106,99.53295217749246
7500,-0.022372424295310347,0.014436148225795687,0.4133585541319981,99.92229236746567,77.37562008338018,68.2682701866537,99.54662418241203
7520,0.015799110040044084,-0.0005341580068290769,0.431273406268474,76.51328866726449,79.2390292844152,87.50631586361315,99.55012472565507
7540,0.042119591051231905,0.08341065746181792,0.33092314944345336,79.02360393578905,67.11710366310174,66.44941115730657,99.55345879976599
7560,-0.00808872932948369,0.05158882819757663,0.34223319422037196,84.58428491519832,93.05420340103493,93.8201929910508,99.54199184825377
7580,0.0520643895336267,-0.025934764483373163,0.3437079200264201,73.80496560381393,86.29802229092216,73.40553696027911,99.52974086318866
7600,0.053532893132378905,0.025162478946399603,0.31576739417628763,83.02038421600366,80.28898310303666,72.66733806406279,99.54447960061135
7620,0.009282386105651626,-0.005314639477034004,0.36255222624107997,67.5647417705227,86.87943694215946,53.97772958409821,99.55065179012779
7640,-0.017676165640539778,-0.10764909723827781,0.37776851698150105,79.17191484786883,85.47814476499418,87.39069295048068,99.59350321452138
7660,-0.070853768759136,0.040914913232564215,0.30210290980849264,73.09501181566687,94.5822301762543,83.37218284296246,99.53012509224595
7680,-0.05926164344274949,0.0060816170575009165,0.3064765791355692,70.02058810544361,52.338900724183574,90.19680767833873,99.55489964083898
7700,0.04607779403409671,-0.050370894617260575,0.31548585278093577,71.23099418696151,77.84525966144346,90.90060243118975,99.53016163347074
7720,0.08403840970824124,0.078897892878626,0.3667475634819203,82.4639251476305,87.37013043260036,86.0876079595642,99.54749288521178
7740,-0.06478432671626885,-0.020080248911410983,0.3906797441570647,73.83416563715502,71.1215630030297,85.03176415218233,99.56039281278278
7760,0.007028845752082235,0.06793402784325851,0.29075104773766053,103.11358014245235,66.947978425322,85.07464540387849,99.58399788599492
7780,0.0274604296336777,-0.10021466819758754,0.40809068999051684,79.1270405636184,107.43682489009441,79.53441803778571,99.51449798632882
7800,-0.06833376486130907,-0.08220195014503896,0.3636899072691236,91.32428775487077,75.1826193242093,74.80036892357168,99.54212522680834
7820,-0.01894130387735884,0.019176649540336668,0.3061073112590467,91.51128276452252,81.65834738100621,57.84166473335428,99.54552106473416
7840,0.010076563383100243,0.10598641745638973,0.31936389226497514,70.79090559614355,81.32814996505094,94.90353721337935,99.55541959560108
7860,0.1165143951308282,0.006352261379622039,0.3079470683891421,79.22015278438654,59.30720383020095,104.42511584351834,99.541639895077
7880,-0.013878008186879676,0.0548416584419025,0.37280422244638134,85.53880141090991,94.07930745150858,52.924032448011836,99.55712109920967
7900,0.04941847846000632,0.04021857875304091,0.4888906836370059,101.74950565693558,85.5604498948759,67.2695656630041,99.58229526397368
7920,-0.051272647817296506,-0.009457168226690273,0.2864382612470781,87.09474234457386,77.85053799104625,89.43162971775655,99.53463257491664
7940,0.022311526394699084,0.026329779451483105,0.3285759529762018,77.91660164595936,93.39321864781978,82.74896194889351,99.56335480249122
7960,-0.024090064172692896,0.08100365695272857,0.3634228075670869,84.20088116193563,90.21691054213629,91.90436870540923,99.55621356906002
7980,-0.046081310117097755,-0.03294400215842173,0.2891479801233017,90.21827295513107,77.8680531724026,81.31119632694634,99.5633641891748
