timestamp_ms,acc_x,acc_y,acc_z,gyro_x,gyro_y,gyro_z,baro_m
0,0.006252134906362593,-0.010332375621394023,1.088936993074498,8.736571286279062,14.362539197307148,8.5743285782297,100.01519561327298
20,0.061930010244728856,0.027143284029616778,1.0207816723474632,-0.8606232005242958,8.19587191753298,13.886715517616949,99.98136157655567
40,0.027549244134845625,-0.01625061049432295,1.023538800544627,9.348900541670048,28.461486077121634,-4.622235618295862,99.99886274158565
60,-0.05723833756445952,0.00907450868272656,0.9409611725319547,-1.6925015981812415,11.338786532748784,8.044763582456156,99.98826367472219
80,0.008487976608503351,0.0020212048811210468,0.97673352525032,-1.1914727029227232,-4.820214586450324,1.2590303869684965,99.96332783398748
100,-0.014972425549715002,0.06499597445006995,0.8655415857958697,-0.9591620379895907,3.051233906315202,-19.845438780231337,100.01199868212264
120,-0.001152361881447862,0.0420834601093866,1.0527008821287926,3.0796967828498523,-16.004359098463553,-2.4148772289348504,100.02149665193761
140,-0.06944406256293055,0.07807742800495984,0.9575870794141281,2.5667716155064,-10.298508058589544,-6.295794066198555,99.99801734875061
160,0.0009985858547835826,-0.037895824485055365,1.0523590658403987,-11.227103998942079,9.715044260404824,-11.214670028684125,100.00560491068052
180,0.08285996332438439,0.02438863551614091,0.994524296538248,15.658899293223865,1.928869212785696,19.161718036038977,99.9898165481278
200,0.006547465505776222,0.01281095370688292,0.9982490011687677,-13.88647531608111,6.738349557745471,-4.300486511828348,100.02234885673892
220,-0.007215371689887085,0.023837369988278373,1.0749509754389495,-10.693528292663967,12.803557078763829,1.2093007495588168,99.97626423295155
240,-0.03528368795365577,-0.0584521433849747,0.9389955404135212,-15.693527690007391,6.603480842370349,6.599425509719238,100.00350641467675
260,0.0052396700863545686,0.02689267742865635,0.9915970915186831,-17.91404972006543,8.76007358131276,12.857226475935622,100.0191502444259
280,-0.040948228323328055,0.007326154265313302,0.9906059616221204,-16.69449350838231,-23.0020074052954,2.268628572297451,100.02577786118812
300,-0.006202316375119956,-0.06841627370336621,0.9622724172409288,-9.424201358588276,3.6122344570847646,-14.507050959644186,99.96665079541228
320,0.036350471026911337,0.0005957437785423352,0.9561967914819816,-18.74639360253736,3.099232104568735,-14.398551262760705,100.00640756974872
340,-0.03845595607394259,0.09152659460592426,0.985045697884775,-18.40941387735817,-2.6810933455538732,0.6720270934240529,99.99424156480286
360,0.11523189848839376,-0.02625928023748325,0.946701807696461,-17.072982956564566,-13.774447291694848,11.036616982266215,100.0100879179432
380,-0.11211781269966153,-0.047740070772899657,0.92125844584817,2.873866182533195,4.6473268151231,-16.778371754520496,100.01751968471743
400,0.01936516316026581,0.047239171428635936,0.8822079208605575,5.749945075985531,-3.2370547506274803,27.082270204919126,100.02219996651013
420,-0.053662948902059464,0.05966734750897656,1.042969784516504,-11.699704811241475,-10.714308893121675,-5.445233385037058,100.04358485395423
440,0.03929841601162079,0.034334338131227486,0.9821542623903525,9.757330279587297,2.4498603858879013,-37.75741385676415,99.9924139184214
460,0.023836993717030165,0.003428011497941362,0.9129065158013738,0.2776360636442153,0.010381986135156063,-8.932913067402728,100.01382814717472
480,0.031133935740042792,-0.04235604956056575,0.9382367439113964,6.4092412568503025,-1.0372420040823531,10.872302865239249,100.00468562756946
500,-0.0017594359480966719,-0.0464387248081439,1.0209533961980344,26.36123448117779,11.334514872475928,-5.386766444608008,100.00414639648669
520,0.01054041587113885,0.08676172593227419,1.0425397429093286,-18.969660303596125,-10.125569051993878,-4.933575276986659,100.01111598694064
540,0.07131144281887362,0.05969911510958842,1.026457236776466,-9.939660737571494,-14.845751343327255,21.493421660183294,99.99992723672784
560,0.005285732177807877,-0.009194003281081675,1.1045661412226597,20.355041246997704,-18.946683011273073,-5.165426590107797,100.0039739680843
580,0.02244596958541372,0.04626696351173036,1.021418769454033,-1.1333622145801483,2.968793152144732,10.434914824810019,99.99951965247092
600,-0.005956792490595146,0.02263999090536345,1.0152342420890506,-17.993828372480202,16.340637786236105,-8.778694762543438,99.96232602840607
620,-0.02914977905683605,0.004982658854018513,0.936605474629282,6.926358031379296,17.693989393657567,-6.145520102671053,100.00889414976861
640,0.021609921735183245,-0.024837640762097327,0.9564152103860819,21.823720008812018,11.13193418989439,-0.7738804353466198,99.9915375545773
660,-0.0012159084663300177,0.02783960521071116,1.0374321389516552,8.556541066584993,7.291241440129472,-11.45586310089646,100.03629691464789
680,0.04672040817332024,-0.01982231489289378,1.0204244138540475,-4.568277431043706,10.581250843102767,14.055749046604882,99.99183610725298
700,-0.07982900861634303,-0.05186523830063936,1.0457123589222848,5.382212697606127,24.879759206063753,-9.256007363650898,99.99518800919896
720,0.02517113403312431,0.023253293442788023,0.9731294630648109,9.530942012441466,9.93500628466953,7.41676767508921,99.9807159203327
740,-0.08573800825833061,0.0686334846045534,0.9955119196480936,7.480892716821872,-6.801556779905663,5.3759666374632005,100.01612985942602
760,0.06576908988284585,0.017537863806055404,1.0441183967390235,23.02238428499919,-9.08057946142234,3.9420352936587753,100.00622816890848
780,-0.022166807711694103,0.0014762396599570158,0.9856928085043982,0.7727042775755304,14.01771721179421,25.490664292675312,100.02960978145626
800,0.051396365514907505,0.022902830207827164,0.9859757636857488,-11.00945618974016,-2.761552791829092,-8.359717106258012,99.98576934259772
820,-0.05010138289673968,0.019163434189982616,1.0888234137352242,-22.061087636805368,-12.554713432323076,13.128050113765573,100.00915518728755
840,0.03739978665414568,-0.021204414088634844,1.00532562850268,17.138771033431,34.16865289188227,-1.5449870510009251,100.00452663414524
860,-0.022432157159654135,0.017575185798244474,0.9277841580775341,-6.918511923432205,-5.607842489393239,10.304175076496225,99.97855079219065
880,-0.030786700391342216,-0.05157570506114328,0.9691202975700098,3.523813564867959,7.199034854016821,-22.51223526058623,100.00872431424709
900,0.046190993549128,-0.14302167425635576,0.9174492213446636,-3.5706990079540577,-2.758111837747364,-6.971213516570167,99.99838146010818
920,0.03856636246871195,-0.04682236763144158,0.9978340001312579,0.907746846217204,-5.903543800908516,-7.635135972556922,100.01747700563398
940,0.02952737862546713,0.05945708903286902,1.0596310739501698,5.735514661683489,3.749761044345458,-1.693107483018441,100.04304609159614
960,-0.025206286236069,0.05426414712975724,0.9941543603587851,-23.45568078221809,-4.475004488138405,0.2892022159672377,99.99112777723059
980,0.1114527845481655,0.07137015525171625,1.0339858698070317,-10.18238498131539,-6.303296770381317,-3.4694677547687838,100.00978194996377
1000,0.01287637091309735,-0.08725583134699172,1.0063267606293498,-28.744709035669036,16.50155028209791,8.414744746565404,99.99232642747222
1020,-0.012432038438439553,0.004492662068287307,1.0913248487970197,5.520948481967682,8.531143135276322,5.311541627132301,99.9875927305524
1040,-0.06988798147285495,-0.011937068166536053,1.038979003238889,-13.300155487147833,7.781608265209181,12.416615221511188,100.00012202053001
1060,-0.06844067406879578,0.01431204135215774,0.9771077583129,-14.468554548720778,0.42618033135340316,9.22958140324242,100.0178240006377
1080,0.012992887673722756,0.019638582608007417,0.9922380977137008,-0.6054887868662802,8.11935029851696,-10.511098356149166,100.00478269490792
1100,0.022700839895266098,0.003765303276816596,0.9711519618899978,21.63016958409942,10.555791523869834,15.857794106209074,100.0029390227613
1120,0.0504084029513161,-0.01981786797305056,1.0097128758633684,-5.421948969358978,6.118738793922363,4.515326895694412,100.0180014797889
1140,-0.0656472422496327,-0.12055218045554171,1.0191436692844253,-14.671018221378365,-21.452973820615753,11.73294511755073,99.99866899625327
1160,-0.027712439055773714,0.010412166512027081,0.9226704156635022,-9.349238007135572,-19.98222145204625,-10.924940975993682,100.00163531761048
1180,0.004338125454350125,0.05651324542917448,0.9941654779955106,1.557601589182461,-13.939158160864766,1.3431702659484288,99.99317419566431
1200,-0.0001874992495429096,-0.03580651372143068,0.963559025560109,-1.069914984027257,8.183904432270905,1.7128348717608601,99.98852487041032
1220,0.039709629738986715,-0.025480909634400525,1.104510257424866,-34.09665698425346,24.572461161591136,0.27027355891713467,100.00656181443874
1240,-0.054211871537234196,0.05128177846593346,1.0294307933407212,-13.547990200809057,-0.8091953054889013,10.216499219756598,100.0188372482193
1260,-0.025581438710984717,-0.02358813911675236,1.0262008141029455,-12.557140921476146,9.97179478272685,-10.200596965488804,99.99539607809875
1280,-0.08751587944850873,0.043895597283878,1.0223208573375981,-1.3683118347971273,9.575049395594734,8.364438239145283,99.99119586136395
1300,-0.1271138005536888,-0.006195338811308936,0.9352094981949961,-8.881556440670717,-18.24316919990511,-0.8988195098731662,99.99397829840686
1320,-0.02278798626133384,-0.06145726117625475,0.9124906313589756,13.111586402705747,-18.417698500149577,1.3981039944160618,99.99763503051419
1340,0.0015425261621425735,0.003067093130359507,0.9819092271373522,-4.099104322102247,-8.622201025091252,-7.9935117498406125,100.06584725047796
1360,-0.06556763580388948,0.020141910186492935,1.0478731331593256,-12.3625057082875,8.59244057049115,0.19977574739259746,100.01384788401391
1380,0.02799464436759072,0.05832788799703806,0.9625100824200202,-16.623747687110292,10.114800682204228,4.631089305928794,99.974146428722
1400,0.023877294877295355,-0.02581462371250521,1.0473135904554902,6.056627900293522,-7.050575004648195,4.028743802001788,99.97995050942461
1420,0.014710727976663833,-0.006140178106652935,1.08039579128538,11.049761637958747,-25.443270952266616,3.0061472985324365,99.99995666590912
1440,0.014115076692059136,0.005309956411801262,1.0012835294258486,-6.163964106243873,-10.281266909029583,-10.811350565622043,99.9521285359955
1460,0.05912082191637174,0.03228049025297795,0.9844969564531831,-17.479257982748923,-1.1425959318297667,12.586782205573716,100.01428867372978
1480,0.011457889412491037,0.0808213036548497,0.9948261516953347,-11.117694833279387,-5.681462329190218,-11.277626474467349,99.98616403432877
1500,0.025595897977469053,0.11949529780078522,0.974411172816199,-1.8387774849632361,-14.045864221169326,-0.29860655593634544,99.98641495890124
1520,0.0570881679683751,-0.04026351202374704,0.9879391356526894,-1.0293725249187486,11.15821400971965,-10.882883825597858,100.00884019134533
1540,-0.02621784002962777,-0.031367969032116895,1.049934053973752,6.647872330077886,5.807975639496119,12.306572786338418,99.96535495042725
1560,-0.02430767963778385,0.02875100737646451,1.0839627104061413,12.305363919270075,9.455667793287352,4.637474889738736,100.00889607185461
1580,0.038699704740773756,0.015735336185676112,0.9621708070490986,-16.438692363400804,15.617424506601841,20.374956462974648,99.99177729667682
1600,0.03910437035645734,-0.03679040215861318,0.9177383903521729,9.435192778235004,-3.6507171642215623,-7.497178789134061,100.02010150381845
1620,-0.027464278445398012,0.09017142661434052,0.9234559848938506,5.956128855564177,-13.184194525444628,3.138916078100286,100.00283947753239
1640,0.03587278600039522,-0.003601214818704689,0.9148476136588318,-8.414138639885092,-1.8056494011366198,-4.68494845354115,99.98568022804122
1660,0.09803648953109728,-0.03182901053846634,1.070735873001457,1.09584498533831,3.4630664372663658,-0.6377157644077587,99.98622753272653
1680,-0.05897110992322322,-0.04210655108821945,1.027696488409124,-10.741327294855722,9.540272849259988,-0.6590072151607254,99.99270464488978
1700,-0.016663323895059905,0.06475472899883171,0.9264572479260953,4.27017495284561,1.2331404577689173,1.1721038798225085,100.0164152161843
1720,-0.15829265102290496,0.017447461298006877,0.98474044045912,7.422832603696161,-11.937204180186326,15.43924267068602,100.03493597819715
1740,0.03019349706627976,0.014163345061971559,0.9709993088418634,0.5373879878660184,-12.513824910521596,-0.13596146340616816,100.04441280454135
1760,0.06466548262121428,0.01079411558222757,0.9897957478444822,21.44952733432798,-18.258713759291197,-5.13865556496596,100.03682744075878
1780,0.12405700276613402,-0.03789421889946701,0.9638259082911006,-20.153014146309737,-13.61053418775354,1.8061541929624931,99.9990188318673
1800,-0.02213163217615069,0.05914876303953373,1.0444321721128886,-8.133128838067844,-9.095569413360646,-3.892241882317041,100.01856666657088
1820,0.10291078070264384,-0.09135701953186733,1.0102977971320086,-19.796033858658017,-16.210024587545284,18.429209479163294,100.00953896092521
1840,0.07196706237319803,-0.10469952318407205,0.978691360713086,3.179595282634317,-1.8489097689164082,16.02364283253476,99.98360676466442
1860,-0.01074751008214021,0.01840209714066031,1.0102169970808363,2.878443544855857,1.8145710280905871,11.164457122926262,100.03481978718759
1880,-0.0068983694523297254,0.02345297451944454,1.0819310803242068,-0.12194221957540136,22.0372831040458,3.691388869839739,99.98280305511021
1900,0.09422231771130413,0.00253987747250148,1.0517105394027784,10.74460301027628,-13.229088236961296,5.820469072708855,100.03512463981849
1920,0.008497643585844194,0.028452425314850923,1.0789105180958427,-9.236827273578745,-24.91634548239717,4.3293877785582735,100.01121670285436
1940,-0.01082786943323111,0.013130462753490222,0.9532325016833381,17.063301556227877,-2.5044630144382696,-4.919180300997832,99.98170614710506
1960,-0.0418240503655793,-0.0370080992737993,0.9113573435611323,0.5202884219608144,-5.742385378830304,-5.354867095991031,100.00230887471753
1980,-0.025373485925475992,-0.045409782585233885,0.9636420173094011,5.187000582187578,13.584239682769077,-26.64823598436748,99.98778015301252
2000,-0.045437651810432134,0.03461578679899902,1.0181245623507353,-14.854283565918637,4.718348350475939,15.774527391959825,99.98597367159391
2020,0.017490803471104818,0.05180641075133974,1.021637646979345,-14.990155248251174,25.531868538918026,-1.8983936543134816,99.9790705614154
2040,0.02541841250125117,-0.000158179310002116,1.0333305846312069,24.20141923305721,-4.268102888233693,3.368247167615901,100.00286207860188
2060,0.018088460968373757,0.003577521979946471,1.0182583684992157,3.8329995379822286,-15.613671809763433,0.9270699834016918,99.99942640607713
2080,0.0031194760666057326,-0.02613230054918287,1.025002904419146,-6.184140763911957,-19.798489503817986,6.090557285344326,100.01195385592334
2100,0.044542187538526026,-0.029792127935033597,0.9603955227243737,8.362940504466001,-5.72334375565155,-11.831770231836352,100.02842687908192
2120,0.09278593211675257,-0.04312457809851712,1.000663339555084,12.947151291514203,-10.956898959790577,12.982880196166194,100.03773824668755
2140,0.008576016587460626,0.0037501700850436416,1.0830090865553887,1.635707099023357,6.25001541979527,19.32966073037226,99.98792012373015
2160,-0.03535563255660478,0.01643958042760055,1.0880400009381868,1.9282504288973434,10.164176305607594,-3.8835649135897725,99.97851718406952
2180,-0.005568193837043291,0.031090662746503985,1.0709001737445492,23.62382157454192,-4.036271662969453,-0.8002290854334412,99.97945125153419
2200,-0.02357759441610296,-0.056702368545786,1.036725242563779,-14.896053000476556,5.353379396270928,1.409277510596216,100.00226351066658
2220,0.04475343801579756,0.02073237640794355,1.0137315667403912,-17.21977784427481,-6.398401498317572,-9.694209930683588,99.98590201704086
2240,-0.06558153506206513,-0.030515103621837566,0.8715789436986526,4.287005640137059,21.027730602553312,5.805404068961907,100.0002519680702
2260,0.020578560958863026,0.03443902662100042,1.0371369620197401,-3.7744316725462417,-11.045552276564655,-12.02621859536184,99.98547610356782
2280,0.08681718247580256,0.07095083230329728,0.9935475254978284,-2.984442090817522,-0.3964220254041594,-7.323928621987758,100.02830313752489
2300,0.006093105633631287,-0.007516849427975369,1.0099658424042637,-1.4353977424660482,-2.819229284457991,-2.3821374941512943,99.97460199944086
2320,-0.025248750444633858,0.0360160150429862,1.0690250796932148,-8.915796099732733,-2.362394123599599,-25.701287538487612,99.99520627115652
2340,0.05574854961236042,0.013991850708516933,0.9826505076162457,19.52137366594905,6.144551288701319,-4.900326454361583,100.00036626626203
2360,-0.12134016352671156,0.02125541911516831,0.9688243325062282,1.6841954496555434,20.184103151133467,-5.150935337219269,100.00948317987002
2380,0.004485079247799502,0.009502249941991515,1.0468765018210424,7.297940334793391,10.43797448237759,2.2934931028362344,99.98593059906337
2400,-0.0448523022329342,-0.05300090317050429,1.0241145361837785,-4.919330920913382,-23.32484718482544,9.977349509987175,99.98919038037174
2420,0.029473210275523472,-0.03510087126906892,1.0300369210760694,-8.42544970836972,-9.343128320806597,-10.081938571884153,100.03845551301613
2440,0.056884595646453553,0.06662492049529822,0.947462422208385,-25.154277711727197,-3.934299134206831,2.677097641325595,100.00457677644593
2460,0.031085844362556837,-0.026355677330783533,0.9272563462313446,-14.468795122956386,-15.948182429572906,-5.27916202296904,99.97640172158101
2480,0.023267889106559154,-0.042798497889392884,0.8942391854499746,3.7251429434392294,24.502663641272086,-18.346310930067858,100.01849923397842
2500,0.08071538021346719,0.020554775436881664,0.9823078382734531,2.752797577549866,20.25029027511159,9.07642995024149,100.00668789599756
2520,-0.04618528432798982,-0.018384346127780324,0.9245388772334572,4.031383447825567,6.1983599601796415,-22.315894949133792,99.52198825576103
2540,-0.009404259158909512,-0.05054154884979504,1.0529398974383306,11.140536356564196,-23.666861278941315,-16.22998200379206,99.55930688123199
2560,0.05347619139367828,0.010738456855733358,1.0117530507107235,29.576023428808806,-1.2254901932584978,22.514726541841956,99.5642009392739
2580,0.029522952466059984,-0.013672184090016685,1.0172133671543595,1.1464250238011946,5.464623386868365,12.34010753507899,99.56109592251691
2600,0.0005425934922102608,0.009519864251550747,1.0273630534852451,-13.872403524906908,1.9897490884346145,-10.175435973311643,99.55094301783922
2620,-0.028073061127056233,-0.03644212110846217,0.32005392524797394,65.23642306338776,82.63466731221378,66.51571830182341,99.55952224040259
2640,0.05582538621788319,0.025983832013734505,0.43383156640389464,73.49364077461424,93.8246185176412,97.59625382337646,99.56534405033305
2660,0.10030754968076637,-0.0407081114397502,0.370400322523874,70.77669941618278,79.55189023741055,69.03666493581493,99.54690166655331
2680,-0.07241020740793344,0.058017615498407685,0.34378139355234655,70.22157002919482,77.94026272711793,74.49800721270199,99.56539744463544
2700,-0.08911103383741957,-0.07973151941442809,0.29422503321398724,71.84201093464173,84.11951720848458,72.87831333834299,99.53440220984024
2720,0.019401748431458962,0.0754280259883547,0.2606804350042515,69.40007690761988,89.8405147020521,81.77710289345936,99.56811744807105
2740,0.07664568919653007,-0.018212532480161296,0.29549450489059537,68.64127029342868,91.7961895369211,57.954645183786745,99.5566935181405
2760,0.03617631291073014,0.03742945795080467,0.3596196321127638,85.64746700575262,67.92297072204312,85.07179537681881,99.55155137526869
2780,-0.052011223285887434,0.03004023058779283,0.3959453429445837,73.39585724760893,72.59238656244378,74.93731935213879,99.54291549278675
2800,0.057970208750258524,0.024409299561598,0.3009577815282697,95.11987485609015,85.52183969968164,69.96408923752549,99.56495872474073
2820,-0.015889306593697843,-0.026487479898979094,0.39225178908164493,74.18215672212878,110.16787905578036,76.93081130898396,99.52945246696522
2840,-0.015752340498963627,0.03403449697823125,0.29237942652322696,76.50213328503091,77.0275063137091,74.16362104135928,99.55302494057463
2860,0.0360927994247305,-0.06454176514084899,0.32219671735525135,73.87134273765568,102.33948638327807,90.37255368862265,99.55719330319378
2880,-0.0038247728318760023,0.015163596640637515,0.2818471696674806,90.51229081468922,101.31762437046618,73.57299802881512,99.5667394310939
2900,0.05773250263073596,0.015528113100461361,0.3361371383776846,73.94298458524383,90.95922293318998,81.33963886629373,99.55490370150692
2920,0.011345556142548292,0.0751959948381831,0.4269188770064963,63.7515369047526,95.79731620726567,76.60079878106102,99.53983676782363
2940,0.009897228706609158,0.017292713491286252,0.37005811252173465,95.00638275931723,68.19233374748327,86.5278554547621,99.57433580997746
2960,0.07727956304232264,-0.033051420520856564,0.40731589076346697,69.24659639043509,66.74837203869612,96.60614048821112,99.51865394486495
2980,0.05657769195503324,0.0293823483483813,0.37374804403789463,72.27947125559245,95.23644034994848,92.62002909910879,99.5317402631181
3000,-0.08360582449739473,-0.05016199985016492,0.339523744193464,72.17664569006976,82.56826156028957,88.15835412644971,99.56894530384643
3020,-0.09854384476874445,-0.1552193830956005,0.3096513515267777,80.41137144741083,82.66602424823326,83.14570175677426,99.56285394402374
3040,0.041666128004263954,-0.03615788350402287,0.3942216724311567,83.93018407372908,85.6358324456051,72.15293664776043,99.55040416400193
3060,-0.006363517578727844,-0.028731593039301964,0.3468691234648883,95.54239632303901,77.11394564559103,87.83330059914232,99.5396088868597
3080,-0.07103351135271056,0.0933951713344029,0.3745266662450102,82.77083803859452,72.71939452625722,62.563888203297424,99.54184438212461
3100,0.006124516982721795,0.0017504655644564916,0.32277485689460617,85.02947765444225,70.18147229302713,72.65030858672878,99.56137732449919
3120,0.01019778525719809,0.02766334318017895,0.3403514803360601,62.39040902894669,92.47119546456219,71.29381445049655,99.52536650142756
3140,0.022098243495396238,0.025535816662799152,0.3684926357741131,87.2249316633349,102.1247596711705,78.73403970243258,99.56883437182643
3160,0.039347646465425136,-0.015394190909397604,0.3685497804695534,76.33266997049456,89.84587739281638,87.21619274429538,99.53692584323244
3180,-0.07906072664382913,0.020768645492735563,0.2886264753031328,84.44766940286596,98.0278391801436,81.0159220156912,99.5919154990176
3200,-0.01735235344874909,-0.025139726201886217,0.3612525599432115,64.40546383781077,85.97279830467419,93.50323615026181,99.53877585174189
3220,0.008124369709556397,0.07703692142239255,0.21735566405229947,79.61787805590492,66.17094703735071,100.83435236606101,99.55030528835692
3240,0.033720988747393564,0.06799890012569518,0.3014406554183753,77.69658807790616,71.35251169484616,86.2949631006052,99.55675910578654
3260,0.04906772453342503,0.004502851846482911,0.42262077801261977,91.96949456039717,78.38092095609541,97.67969452528622,99.578637114811
3280,0.02813621051226667,0.011648472224928456,0.3327297097289247,61.66586361340671,79.80056593867336,72.61749853084739,99.54667215930675
3300,0.042528567696989567,-0.04588755488427827,0.30271918983022716,82.96388418443708,76.01251791533696,85.70841108402844,99.56810972253038
3320,0.015273439416052524,-0.013138691855576028,0.32882175745891623,88.38597837405761,74.41604785557136,71.95327793693286,99.53211308882733
3340,-0.00270607484448324,0.01524659507037653,0.31518948375544514,81.59655743237488,81.59728919605303,83.27575955221367,99.55757042604507
3360,-0.03830597583578103,-0.1052532117406152,0.45694739961937625,86.30898690524157,83.94152205655595,80.64691007121836,99.54473484468613
3380,0.0003444043579627306,0.0012816674219094518,0.3010617633803114,73.25601181046639,70.14409558084853,64.30965271498621,99.56012149179635
3400,-0.013509587914725752,0.01707632182953316,0.36453545440993884,80.35260819502383,100.39765594431721,68.93622456334458,99.52752373573853
3420,0.055824469387043385,-0.003580793217806348,0.38571200111019066,81.9322292660329,70.58643058005995,82.00855018712144,99.51465128075431
3440,0.08404811276416414,-0.039253960122908174,0.3622966607854177,102.85445954167756,86.5311674845665,92.32639884481624,99.5584255136672
3460,-0.13346573148869756,-0.04705076412942603,0.3961596499267357,68.52882450228017,87.65597956749735,87.32318564337923,99.59093183776966
3480,-0.02903591999008769,-0.033429003916672306,0.42457670857969365,82.2163925556144,52.21447026822627,60.831623790548925,99.56945993402688
3500,0.03412350754886414,0.01568227583078108,0.3205946112742327,84.99353693123044,79.44296274927262,62.7742836829717,99.51449104728204
3520,0.0010006354306702247,0.0032619685358533978,0.3851779187927853,70.83409918138713,99.96685012721468,106.5462435707701,99.52455858213357
3540,-0.02179495644911875,0.0014070126081175405,0.3193278956425329,88.40993853068215,80.11093907328699,88.4442578265389,99.54196039112705
3560,0.01008802892163689,0.07895411343564586,0.2899995327819572,86.38520051090345,66.5704322678493,92.55153305055748,99.56740980535747
3580,0.01728223723036716,0.049064376587955594,0.37870976288011093,75.21250182865411,93.27479802127603,73.23379228135212,99.56032855639833
3600,-0.030530321510915084,-0.06414073635619955,0.34665048209325555,65.23096580636327,98.04012812319506,60.39403217701509,99.63470874814605
3620,0.030973815023247753,-0.08564294076271237,0.3066153716054816,66.73406276181147,80.3724027672574,83.3105532955718,99.564677409074
3640,-0.035510502569605064,0.003248810762956861,0.3393346878572174,65.17180399234253,95.7690895538868,63.447447534206276,99.5656525082715
3660,-0.03495131611220064,0.012669080770227876,0.4236029614450346,62.75143408002825,87.67489068932312,64.62679347312448,99.55806975158342
3680,-0.04575523975715019,-0.03699244552857508,0.4200030742851813,67.97061072087926,65.38496743389038,69.68711356558967,99.53175381247819
3700,0.04724671125994634,0.033991028101633625,0.42355395346920066,82.55462616603496,77.46426563714539,73.98331546385137,99.53160813098891
3720,-0.06623221494240181,-0.01884572762590691,0.3166550686721204,94.55743922683386,78.53875094698282,73.01938503544817,99.53088907770625
3740,0.004527291803285769,-0.01829314557360468,0.36019022340238016,84.43155099218765,46.838610159832335,64.10807143195417,99.53041613220354
3760,-0.001710711225553565,-0.007425813749925897,0.2670479021985549,88.16636296989924,83.61803992682987,82.72486564044713,99.54001954078463
3780,-0.00992473133383047,-0.12444669986450535,0.2797836238226101,60.19991392834155,73.7099236344305,93.3644475982487,99.53321846647552
3800,-0.004682268434961887,0.034570805291573796,0.3818127140242003,75.06568823574032,81.39426003572997,87.73914945226704,99.56680434934131
3820,0.04565077291383299,0.014438541748144313,0.32464158738061866,99.72297512525125,71.4187820331413,88.06210333086268,99.55327534727353
3840,-0.047084035485861826,0.06270788337249374,0.3946062881527719,70.77434737437228,99.13264430868728,93.7686291641323,99.53572358273188
3860,-0.009473593317136196,-0.008990970698223579,0.4082016799216064,104.73354956562595,89.25705139805993,55.02124146172454,99.54231423162312
3880,0.058673030602447565,0.04673486305003637,0.33159973290637756,74.96972796355494,74.16027521726933,74.21280182796299,99.56107702826978
3900,-0.02160350556341084,0.015705174864749583,0.36117849103175403,84.94614786739417,88.23342822386348,63.69358097010788,99.59434742562433
3920,-0.0335104691745155,0.021233708439007192,0.3930391485273602,94.61534664381041,76.49337162817133,80.55952959886949,99.55908562460331
3940,-0.0011040414294795414,0.018906284525619238,0.3821180494380035,77.34015304550583,100.75869695824372,86.54239335166052,99.56105848862462
3960,0.0684083953617862,-0.012221004182237162,0.358797816583551,83.6131802010571,66.35818497320138,74.93276332552101,99.57150603023422
3980,0.10070245115567765,-0.005022295842749104,0.2548994360873445,79.95848960989396,73.3504924419494,63.2950790467339,99.5377318827074
4000,0.0927815513239351,0.02331492118531128,0.29633959864203807,75.76705508179276,60.63734160077248,86.02964008827952,99.57001101364432
4019,-0.008789572913206714,0.015370125616665545,0.27139621589235424,100.37489161913165,75.17493718754463,76.48314464236422,99.58268028683248
4040,-0.054694198038433776,0.010386109613430682,0.4382378943256532,80.15280784521725,83.39077162828723,81.68713133815851,99.55950733094022
4059,0.004914085535531604,-0.019655581475998777,0.4433910385849201,87.05794879039138,99.63503535496336,72.47854619604414,99.51520042230497
4080,-0.05042570513628748,-0.058575902153774145,0.3361828999495894,87.62896413495048,93.65154638635518,97.64149002175762,99.57227368570459
4100,-0.03832835367446162,0.0002768246434664796,0.30744128606182,72.66866017098852,74.41213947840566,97.06865377144976,99.5503956073861
4120,-0.07114105178552596,0.022361567009089305,0.2532024788752319,62.88546228410121,81.73400099570489,76.34814416085331,99.54369863526392
4140,-0.07297434025798052,-0.021550508087512788,0.3341681316941007,98.07538701523593,69.84897670161618,88.79686409332744,99.55895133526677
4160,0.045333008841383,-0.004102783726453416,0.4604830037399528,85.15578217667755,82.25773337075896,95.11687932577047,99.55319626389095
4180,-0.0047956394727730585,0.0046116326734711825,0.314881405964639,88.77529224384261,82.29810572438844,102.01181907064141,99.570599768336
4200,0.09499544188041531,-0.018606516613280083,0.2652357848458662,95.21921499084442,74.0733725763641,85.3765451711864,99.53125271805344
4220,-0.043190392565634624,0.04920812447245146,0.2548937762425718,64.85923331741895,75.26139642691932,79.94578620405605,99.52852509178398
4240,0.04154832720546921,0.048039409112808934,0.3444598125343163,82.73490336325226,79.16452755719554,72.85671164552522,99.5304265418424
4260,-0.03594038443508158,-0.02434374268056558,0.25353164230251546,84.90308440952845,82.23542766240796,63.62359248920713,99.55148416222696
4280,-0.046880959004048456,-0.030812453042200833,0.2584440365626573,80.8876014319465,81.80630656187067,86.21895316965931,99.54694810991333
4300,0.010751949418711547,0.0162501250964014,0.4512630311576241,76.11301669772686,74.78480027577571,94.96243654956474,99.56566471528252
4320,0.021526729162740378,0.032301756063841836,0.43589249149550857,91.10050523045098,80.50899444145278,93.34285944660246,99.557862361879
4340,-0.09059869819094256,0.09357491982693807,0.39667814793865946,64.56552991715738,91.68547528127718,87.26938592543235,99.55150572662518
4360,0.06961828420917525,-0.01523633212679036,0.25189502874107833,86.29013535966422,83.97475031501888,95.29094522124826,99.55211638661127
4380,-0.047896939389941745,-0.011322321867322214,0.3728073817368719,70.46281476771125,86.67190347928958,81.94389301556792,99.56193610119902
4400,0.026010417319293974,-0.03702013005071711,0.33883788402871795,68.42908610337312,73.61924350902197,98.60579025300879,99.55752805216095
4420,-0.027999595849719207,-0.08983412892082049,0.3714630842999534,72.8276676602473,89.42341681537312,70.64982743081549,99.5503939946061
4440,0.039046370597714326,-0.05440172873211363,0.3406901242895026,77.19980496030537,78.6910210948491,68.77184125383457,99.52130704109366
4460,-0.007193527204299749,-0.1390724223350378,0.3527343446294481,52.36076029908493,94.50863384703746,68.84857537331192,99.53374389799508
4480,-0.03789288045099087,-0.05566967874464993,0.3941726842978529,83.3888731928425,75.78154939393444,66.44630650704096,99.55384847310984
4500,-0.06212958462264481,-0.018401764761034136,0.45713968511219955,84.64454460362614,67.4644629484032,73.29299170309989,99.5169148703409
4520,0.04967666078326003,0.032319260667374804,0.32662771309147853,73.03641151238018,77.53538261807209,69.8301908144846,99.52262341298048
4540,-0.12568264418015773,-0.04925680393673701,0.4282455707731744,93.63409141008759,71.92143077022432,84.89905570238803,99.56054122933102
4560,0.03382571110725982,-0.003782860325438782,0.30502645198899436,60.594836536232485,88.01269954908676,73.15419178548981,99.5429336654235
4580,-0.016114497836756947,-0.03592029054167935,0.4449658764009958,51.55353363613727,84.60813266009194,69.36294422521085,99.55459449753576
4600,0.024902961137758556,-0.08020038838870414,0.2649559765902723,72.65730079443826,81.75782570217807,86.66472428659515,99.55405749522257
4620,0.1152107443449326,-5.8282862628896796e-05,0.34406159660669944,63.95456940099726,82.79135498164402,74.28377372040433,99.58504729500584
4640,-0.02130133386167582,-0.04302925286067341,0.29552830198769375,72.24814428235916,89.84831483249324,68.87204346051429,99.5435312574812
4660,0.03652276995206686,0.027030591303065163,0.3349338725136104,71.57032451936897,92.42517698613682,73.58045580358527,99.56746161874887
4680,-0.013689401221174513,-0.01684302897277849,0.4160861074735037,71.15686904746161,69.14372926109199,82.98445387047222,99.53780322423424
4700,0.013473665012307186,0.06429817786063509,0.28361559802292235,56.321290859409615,76.63997863607263,72.70421324564543,99.57840118036327
4720,-0.06487315285698449,0.062470918571661684,0.4212754171497489,65.0601493276952,68.17993846100062,77.5504354668043,99.56095436065914
4740,0.07693169981569009,-0.036404198892648926,0.4128631035947144,80.31607198987955,79.87645656762915,82.60294931246725,99.5524254958158
4760,0.01571697981037406,0.010176163767155397,0.32224983897274884,83.33022472629949,78.45915946597134,61.46412949974696,99.53001408194079
4780,0.06272040804932993,-0.10162409259349406,0.42124037515013846,74.29475156830499,90.62292223253814,68.1358872115505,99.54690594025995
4800,-0.027500790237623758,0.007544008122644767,0.36332612875085,65.82470570120388,78.32473453088173,77.6680377043942,99.55110836829888
4820,-0.009375946553920598,-0.02551851643451358,0.3767951506529074,69.80631305240952,66.09892295065173,81.48030710232136,99.5216892256478
4840,0.014301515857132569,0.006847650571778892,0.3872592986128331,67.81839597893031,78.7011790542124,83.89791660862277,99.57072006661092
4860,-0.03081998593460769,-0.019425457642348,0.2533042005979982,68.49158489567839,89.07213959586119,73.58581225801356,99.51464690197336
4880,0.059729999789702795,-0.03686724315305705,0.3258896306614762,63.088155827382906,70.03679120273111,61.35921669702435,99.57017468989507
4900,0.019476714963780898,-0.010576381740953891,0.24350877135240656,87.25202632617396,68.22553448837978,77.29598913921728,99.53754638453984
4920,0.02786583776600511,0.02146442663466437,0.30868178773049393,81.02715355554805,75.0211232433353,81.42712866744925,99.58791935304748
4940,-0.037982837520139805,0.045701614255469536,0.3689236322320674,90.51912609881636,81.64841280336086,75.37860946489185,99.56702208689345
4960,-0.08194246681852493,-0.004452885700304017,0.367606561745384,70.18828538697932,70.86486564145576,77.67750899967399,99.56258840181894
4980,-0.011577416109949966,0.012451864452034344,0.337829070890582,80.2423373836138,102.98489736523261,91.87294798715769,99.5742826640093
5000,0.07534986850715239,-0.005777701299745673,0.31887637391157375,67.30035967642151,80.15285803396907,81.12903005774244,99.58162102594109
5020,0.005315030467364362,-0.003387494059488585,0.3153161606664151,74.07307399197576,77.25649587103022,59.06535349641228,99.55571734691355
5040,0.0725811811904248,-0.0579549704576916,0.39861734245550734,70.36496971301922,79.09829081357495,87.81480899997828,99.52935764453666
5060,-0.07644604887283772,0.014734378056680925,0.29160667652517736,89.74307628409039,92.6068125724725,87.19650956403157,99.57682701591548
5080,-0.03513797027350333,0.048036897352912694,0.35954698717066347,84.7816127680019,92.70864574930049,97.84662298016134,99.54446280451808
5100,-0.008414195658560523,-0.03614682453270487,0.3353101309858314,66.3504188006446,73.02832292258067,97.99381171335702,99.5361918907518
5120,-0.07433639569351747,-0.014366775570014768,0.29497483156268106,95.62065292349098,101.26790876032258,96.66095241561129,99.53432421877714
5140,-0.10783721651867018,0.09118755733826817,0.2718179748586551,58.571792837053536,77.27968078142335,71.54843462160896,99.54988413749369
5160,0.014655893829168033,-0.004188439777901413,0.33564174102552485,75.62027275022962,89.37450234345596,87.2774595568467,99.57709328873766
5180,0.025599944947436795,0.02169372963063619,0.25478416041055774,106.5802869353622,76.15694926806535,90.11093456588587,99.53008861134347
5200,-0.03262329293989095,-0.0026666788667157773,0.4091801004077732,96.74446781692184,76.3923778620918,79.05356228468463,99.5477890796312
5220,0.005464182330770576,0.022354239730621197,0.38620351248704365,82.26390482874746,72.42176573524677,85.57075067815177,99.53349031000641
5240,0.006992221526014865,-0.03334805736839382,0.3911116651218237,72.50995617166328,63.56375071108028,70.94023349651404,99.53752598566508
5260,-0.009503674905512523,-0.04701327297639188,0.3886329406370618,84.15726743488587,82.73596868051821,89.43248666568613,99.57289524461048
5280,-0.010713156932080553,0.008913457341542105,0.43550220354236735,68.12889216629607,93.08613461965771,76.94780489333743,99.55528327886545
5300,-0.001276422117184809,-0.06383247946089012,0.3615585855901724,76.66465281669701,90.83818619463962,99.63505057306185,99.53510484953584
5320,-0.013077739354237032,0.12372761444804924,0.35849647251265604,109.26983921240141,92.4667232262197,68.89167371225575,99.57290979104893
5340,0.01267162671755626,0.08414408262303753,0.3861066495637279,84.01669150204606,70.15049544029425,71.17299585813699,99.55051288260842
5360,0.041775727751997865,0.002517395252390351,0.4609200130785501,89.05591196065113,102.85941889193754,73.95066904956789,99.57498642570877
5380,0.015227372912809546,-0.0389475485600278,0.3656763683949962,71.01332247023235,77.19692864045146,86.04758674961452,99.50744119218872
5400,-0.06341723542117372,0.053920218126530174,0.3852964380102938,92.54397715534607,65.75321721660708,58.504965721771114,99.53724956293823
5420,-0.04520447810473673,0.00118564681830656,0.3540854244359472,73.37320541851228,76.37946042169489,86.37769196326744,99.55768532559037
5440,0.0010723209781932084,-0.017581227826717657,0.347247914555295,70.2606430158167,71.47195365699582,75.65987220984617,99.52045731017229
5460,0.0687566096161412,0.0010739992229603207,0.3745777494785789,54.439255077592485,73.06980710594554,73.11739388132932,99.58683695447401
5480,0.1163490423046356,-0.0492149085176883,0.36375089769107927,81.0572129749914,72.96016674932392,93.41616948472279,99.56223627608583
5500,-0.02560074765475394,-0.013215624681419812,0.3689660098862426,79.28315432955606,92.7155329468929,69.65933280230243,99.56916229865263
5520,0.11859789156065381,0.011838081123729274,0.3183462957504426,81.74867978455359,64.7673140454942,85.80835387396408,99.556424776306
5540,0.10909584352469626,0.055484359537170895,0.25991449480441997,87.92463780494613,86.53013670262266,81.97892237453789,99.54055309606511
5560,0.06288770640505224,-0.010788735613007928,0.302807604790496,88.45198836856011,97.17495474656437,100.70428230165913,99.5600606889772
5580,0.03987834648172891,0.08517382174817807,0.37024477295870606,99.44911837033294,83.66027939205053,86.59746998757134,99.51101263407674
5600,-0.01114921063257576,-0.0017851485842367545,0.3793908220405868,97.28370120736261,88.41771055900864,88.04661516379548,99.57755952627741
5620,-0.010785526146099707,-0.07231232503697209,0.37140158276439955,96.1120511088312,91.77747207426361,78.39809775719111,99.53711664122476
5640,-0.008050830871403934,-0.10671949768221448,0.3469781624494219,60.27859469475759,90.68802014152108,88.69652856764169,99.56736919602567
5660,0.04197932419859188,-0.006359962192221374,0.32961316660266504,88.22331975663857,70.73812650679767,86.53343008976465,99.54229099240042
5680,0.06959926951859827,-0.013728224445627525,0.3442712368331716,79.54747797527466,71.08649065428622,93.35207033306571,99.54967726863569
5700,0.04996403742073229,0.06754876515181095,0.38652683651224956,87.83043907905153,78.02467218182504,91.98079583249279,99.52682498709233
5720,0.0460762057210613,-0.0023570344258575003,0.4036094892132156,87.0795468337344,81.84179500307212,88.56106575952211,99.5493815693144
5740,-0.02112747468347796,0.10122344138544136,0.3441134735517512,77.45761600390375,61.75756705311444,97.7982800711619,99.55495757547891
5760,-0.13809127346721325,0.010886257277793202,0.3930336456753171,93.36750369067782,84.47253482389665,82.7376292551489,99.5539915879475
5780,0.03204863771627883,-0.03341911378086477,0.26528573148024864,76.51258557039299,65.09682974267476,78.05696215832981,99.54147728716327
5800,-0.022733941389579775,0.008120958320819811,0.4179044739420465,92.72735123446002,113.49128007874549,87.7531170309122,99.52461746244295
5820,-0.09375300005288463,0.04659298689210087,0.36023326596082433,74.87599493232264,74.63188480536891,83.29132779985225,99.55600614966897
5840,0.05774830474147024,-0.02425628096838587,0.30432011675505555,79.72188456701286,80.766854386019,91.62874263934734,99.57074925301686
5860,-0.006786238761768188,0.006528561349418248,0.39621147267874635,84.10414097376672,47.556399543508405,90.24166182104705,99.53758690885455
5880,-0.07588057575600593,-0.08012324174869628,0.29458492023674365,82.91934165504355,87.04498890067605,93.22523904217715,99.53746311510254
5900,-0.04180980911706672,0.022282219766563777,0.32195321012376144,74.86673873602074,58.25492004994251,99.87749369437263,99.57179339136616
5920,-0.026123943399873548,0.13963823863659278,0.33806948041361756,101.42652669352069,62.64671586505291,79.06775706162078,99.51632126842797
5940,0.026639176537741383,-7.758137629908956e-05,0.291759727346258,97.03365133346767,91.41384712830683,84.4205760804055,99.5301883482114
5960,0.05298241289314694,0.034014024510901054,0.34755012907668453,82.21103255340051,86.19489488090446,73.9879329782322,99.52339231800094
5980,-0.00745645338071689,0.014473642458799158,0.38026986578764266,67.03633842073829,72.94478514218893,87.37386500250669,99.54337259824305
6000,-0.03726645271888314,0.06622403305124909,0.37259160366585886,95.3566454185945,77.80324173961549,88.9637176674636,99.57692113870694
6020,0.07274428140845075,-0.06640084671585138,0.3513735287938205,61.57357462357364,72.17462705949852,85.05266951635511,99.53687542572143
6040,0.004879482048419603,0.05484340291717537,0.3499086918898352,74.93433461901148,96.41483779232843,82.61724130318538,99.59813380729193
6060,-0.04076234063712301,0.05343894396861892,0.41052660073740155,85.97453301065529,82.38032035000465,63.25536410645396,99.53657285891123
6080,-0.03661003286745582,0.02424008346459719,0.30073314485995084,96.70157712074456,97.8397987955816,75.23458391136839,99.55689269056566
6100,0.11828125216650874,0.0898430757794041,0.24616366021449773,76.32654697332565,76.70029808514212,55.62359578288257,99.556708322616
6120,0.029088349313019707,0.018617337343163103,0.3447579189832507,80.7378710240904,84.92277233494254,89.09300469056186,99.5428132425175
6140,-0.04065719287264848,0.08714679764540895,0.3886016275829992,93.07193269360465,84.47421587390916,65.13876166169543,99.55913360924563
6160,-0.029426911308936782,-0.07766034899935394,0.420504947678264,82.31537918874604,82.51912631698062,89.35697793973105,99.53814890356243
6180,0.0996532831373213,0.06428201773487179,0.35834291427139947,83.89826502419902,75.72723770713608,78.28610576337867,99.58019679741855
6200,-0.11992730690783343,-0.01656856230392672,0.3752283324794069,79.98215066387542,73.19293255630024,56.817637452263966,99.55829132359278
6220,0.023372221007815025,0.0048651410746238825,0.37158380612394915,84.32348429514073,96.0051248918929,76.62072353984061,99.5422852986348
6240,0.00939669836403531,0.032993012271867114,0.4383091467906925,72.71688033540399,90.18562181933018,88.54925204857471,99.58277650606604
6260,0.04700157421072295,0.07527637749998442,0.3074326327986646,103.75131925867629,76.37379166081996,77.84246295048719,99.58503599758988
6280,-0.00432484626510443,-0.019154045140068812,0.3314794373944371,67.40186466731151,58.482170257464674,89.6346812332192,99.5256652899172
6300,-0.01720644860203826,0.04114869516479512,0.3604273558010249,85.21576839237272,67.11460032715516,84.57928266546018,99.5524331936259
6320,-0.006538094435028841,0.04897401900283069,0.3391314335601597,101.71784792475755,89.33500247883175,76.1674816419146,99.55282708039883
6340,-0.06551334332141721,-0.04398247306749699,0.30386955019882833,81.88461908712891,81.75980467618078,98.376173619433,99.52558448180056
6360,0.06130882230349233,-0.002365936677544479,0.4314457395383245,71.49031398336848,82.7627982279535,104.21912520858243,99.57542227123506
6380,0.012348916294849159,-0.04119564016832983,0.49889975459803404,67.35481927598534,75.36508398587284,79.50923747307567,99.57348722730572
6400,0.003224462178203662,-0.04829052951776702,0.2751942991791084,87.4523767019081,92.9009661481483,83.99572915660089,99.56146522429151
6420,-0.011270938858416792,0.020472422542487462,0.3483697772694722,73.79824151681058,79.57517808959815,88.13402370024271,99.59456418930289
6440,-0.014985140032409864,-0.009808891495547378,0.3768215037679864,91.4986182532859,87.17048124779515,92.788333223915,99.51544577148569
6460,-0.041643503598725595,0.12766396074355632,0.40277568282445225,82.01914888684162,93.29894848948976,61.492334723488035,99.56605553031818
6480,-0.05880010439840149,-0.01669967093645745,0.40468551881356957,73.41861204656527,60.2837524398534,73.74384085820567,99.52087580547322
6500,-0.007960718101449327,0.012430713922975298,0.3452379581573058,60.68731066765013,94.06628981981831,73.2675054370517,99.56636064825693
6520,-0.08153883551464021,0.0030626241856574177,0.35071998683301886,89.56105434264646,78.76609276226296,79.20913767709459,99.57651931046028
6540,-0.11302418166183617,-0.0009317652384424355,0.39264719514182794,69.7485242386302,87.37687169285381,73.68370586612045,99.54894139272714
6560,0.05914034738436213,-0.058603742914289506,0.46752706858939935,84.23499610569974,87.89784379170833,78.27650480117362,99.52598615378359
6580,0.07366888554172614,0.04869667419002528,0.4105883108723576,78.41223900352095,94.23341030303865,80.20031111867972,99.57290237463477
6600,0.029838403490980894,-0.01131246601547164,0.3760026535548827,70.8784367391495,82.2087953014466,73.31337911909782,99.56595724272056
6620,-0.07259165457611265,0.03768157564740134,0.3653169519459447,86.15117828794023,66.01147280379195,85.27042052865082,99.5530565139939
6640,-0.023367881775285183,0.05999085677017399,0.3496591108104489,79.6192069288091,71.23974712033333,78.72526314514786,99.55011394958275
6660,0.04972753061998325,-0.008225108732809029,0.42395642562231856,54.48771445893337,70.6872091303741,58.19390299013717,99.54051693533134
6680,0.049129103544508466,-0.04830495821696393,0.3983724596802809,77.84111277077592,76.1746215915351,91.67447930033184,99.53423082260771
6700,0.05965442132523672,0.060019233336713135,0.26140389379170237,94.63388435803157,66.0361978043335,89.68527665646386,99.5383520285867
6720,0.04330881133658729,-0.06184947104918928,0.26611811836941524,83.79362302278004,103.57063944387363,93.21647885143746,99.5497057451965
6740,0.04766334044036638,0.03105795996444087,0.30355338733844967,82.92662416829283,91.51303280237994,91.95430106895941,99.56790011350193
6760,-0.003502458611034468,0.06164085412972317,0.457668797198181,55.91825250725577,82.97122814502329,87.12651340943555,99.53370239037034
6780,0.05483758099424957,0.07867739067177137,0.34393992427563,96.18722837701138,74.55362191206302,87.03270702485332,99.5269394884835
6800,0.029924022396051925,-0.07058851293351018,0.40332263241246297,77.22718290950704,77.0334322418362,77.19144457939849,99.54602473340866
6820,0.10931963377918796,0.06697311004542388,0.4114840902093463,93.90792459746663,52.58404651372583,79.13191485110717,99.55060112665569
6840,0.024658576930137375,-0.027002740276963283,0.3251884639753636,86.34956092490712,86.93045931255416,111.65812612065578,99.56532972675828
6860,0.1029825915949174,0.02125353311447642,0.3848030222284605,89.65251906043008,76.2738333026872,87.66800438124899,99.51108453090538
6880,-0.03595112365669578,-0.03736752038298106,0.47669593209459543,59.82645415372225,89.62922614246528,88.77418883659992,99.57018774786616
6900,0.03484699576085018,0.027149532088004497,0.3533634561278653,89.80200943382553,66.9670397880147,46.91389848253965,99.54779985619093
6920,-0.029099014171357913,0.055316224986527954,0.2966668135729884,79.21904708402587,69.32073838229846,66.83427613824205,99.57784039761916
6940,0.041941243141396814,0.008753462541032079,0.5122128902700874,67.81148722022492,96.8399645734153,74.3128375277126,99.5472602836737
6960,-0.07098176097437874,0.0032983256174125113,0.4068402431097784,63.21746526523128,88.3857260563675,61.518041954485525,99.55522336157354
6980,0.016800767336061492,0.08327232468645479,0.34038492972560036,88.5081354779112,67.86341655629344,61.51935916526734,99.52461539808768
7000,-0.11871420855899253,0.05740773332647867,0.37460018102160114,75.02293209776744,85.6743303759148,80.56646123010194,99.55744481826086
7020,0.0017219613176606046,0.03320777850984535,0.2430253249971403,76.85499125217609,105.12984671796454,56.78046361937411,99.52299273658475
7040,-0.00668623779535683,0.004748629816562416,0.47944254936847475,69.4132338917303,71.66612227731262,94.31740673854736,99.53810527153846
7060,0.041428977608481424,0.02736883482283331,0.40711855415988574,81.2109116735995,62.45270961806355,66.38835273973555,99.56202622985428
7080,0.023129015885517756,-0.060529361747829385,0.3704465120073862,83.46816375397067,86.42009560299124,76.1771263476498,99.56644527893867
7100,-0.07856275292366627,-0.02015694004432922,0.3103633471479731,61.03986863989688,87.58130378696498,74.62984425897608,99.56923115669207
7120,-0.007643824201969001,-0.04414052537625102,0.3808020420700323,114.34056682893132,79.464323709733,90.30293376189175,99.56267167945427
7140,0.06349578138011297,0.03670148251533957,0.44144331188196684,57.28349922147886,83.53060462280241,75.48312330265557,99.54700931858568
7160,0.028395018285195736,0.034181182190823105,0.35967926922506455,75.42425558653126,88.70940976968475,61.10523246810472,99.52334272985703
7180,-0.06964879978901327,-0.040855141422022664,0.3439447538657313,56.49165829760856,73.08471831352676,78.73161169038977,99.54432245473774
7200,-0.04922762286507333,-0.05584370640064495,0.4080785378306051,80.13607263375536,91.6474969125978,70.46766594078595,99.55373169125285
7220,0.01891042329765513,0.0796257147899284,0.4178502025773579,85.85979782990101,76.45928823248671,97.65000468680668,99.55599862756615
7240,0.15194894771695566,-0.0859299878701339,0.33136965477709135,82.79743620095392,92.69799219590318,84.9407688323752,99.53596436866881
7260,0.070857148803762,-0.015693380463091,0.34728836761902176,76.78525626610704,60.24109568409253,64.41609725081828,99.54307641404809
7280,0.04028117904698883,0.06513267715774856,0.36184067513492363,70.28843565035463,107.85456357674747,86.94436678490433,99.54209957941951
7300,-0.015530843011179539,-0.0646401249999873,0.2787556454796474,85.95188126243282,73.42744996514381,72.63962977522132,99.51588687808919
7320,0.005427035343704265,0.006260649197126896,0.2752861780507792,89.05222713426586,99.05341203794835,76.42972428999266,99.56321685209099
7340,0.0024238252710013404,0.08897898034863932,0.39392773190217595,86.4658119582245,101.04422318364088,82.50770688647309,99.57137728086016
7360,-0.009683888554784508,-0.024234737861514227,0.3348264278419972,82.69480614091027,90.23407217250143,77.33267995487134,99.55372861082033
7380,-0.04278981625361987,-0.01709201651821616,0.3963431820640154,81.75321023745828,82.37407549781346,83.90122998153629,99.54066591963345
7400,0.03469936359770736,-0.011233292465113568,0.3273239265173808,83.52844295416695,79.46706207177647,77.19939168184148,99.54254990371406
7420,0.0010870417282831987,-0.0017885619096556329,0.29900402810013255,78.81736142249055,97.8477648852752,96.49316430797307,99.55367408958166
7440,-0.04474398555464401,-0.04673659064915107,0.32183894034922816,86.9750058925465,99.24591070550913,65.91652051015566,99.538531484414
7460,0.019958273971894272,0.009566129234465419,0.4230186132999395,80.34629960124374,62.03866907698926,90.76345627949323,99.52487959899192
7480,-0.1015127871970883,0.039630141677924495,0.44062689351688444,72.22267000330183,66.99177562815541,95.45017574642445,99.54797740337968
7500,-0.03805491339806302,0.030783691651069863,0.3557117130011328,104.25808295658148,82.37676125218168,74.46303928552108,99.56638500312027
7520,0.014075808464288481,-0.056463976215961255,0.31930440497730356,86.34325966683846,62.875658980320864,85.82043386546,99.5330796460936
7540,-0.061779483447121114,-0.031073552536975482,0.3021170530115253,57.05373773171542,81.78733065811778,91.10890575787496,99.56477304315301
7560,0.02760834778292955,0.12847363373709556,0.3512791289619984,69.72427097549607,70.84614570468567,110.53014839606237,99.54976602781149
7580,-0.055011103642870075,-0.0029915800679848285,0.355186921751262,94.09594401266001,76.91507783811724,79.93624465214289,99.55484193836273
7600,0.004271578576597611,0.0779133221560867,0.31931195447534266,74.46365533128574,59.30431654336039,77.31248984837733,99.5357265387945
7620,-0.012394826877124974,0.05036107571557441,0.31311199725773275,81.53195634705972,79.64860714783998,84.44015382354578,99.52208390881088
7640,0.016715204771875627,-0.05564903718269685,0.3699999984191041,97.5671116842486,59.73696471725876,72.63626128468456,99.53505116659844
7660,-0.044235103977600346,-0.028288268785709954,0.29254903207295757,88.0613006512712,63.51147809524353,83.7610941137929,99.57221666911312
7680,0.0033228459353506347,-0.08602686917502178,0.4172252116606162,80.6642117175055,84.21311389447204,74.61993798384012,99.56762087823009
7700,-0.11593692995612202,0.012557692456415104,0.3546408332456184,75.0662013120601,79.03233245426586,62.525433439915204,99.56191123991665
7720,-0.002600275095417913,-0.06611128549612826,0.4240601015468733,76.1553076567167,85.31180638438109,78.37787573012717,99.54791846997817
7740,0.02054912562327045,0.0342085118652578,0.2799610367298192,71.91212582578521,82.4838604982956,88.79783423492582,99.53071647222416
7760,0.037027328066630893,-0.046680705434067465,0.42338502836733655,79.8189138864829,87.28186565357154,96.31055143253572,99.52847474842808
7780,0.02776664422477762,0.032194708152497316,0.26840365214328277,80.78986128854832,74.8652396376585,74.80188217526086,99.55760007937373
7800,0.003282343913691295,-0.010777463849292452,0.3611174067970355,91.94709911568175,86.8905485071202,85.28225715910847,99.55989492543347
7820,-0.05323833831732986,0.05776545854124097,0.40479320080764486,99.58693213102345,62.991184788345734,84.94787313103578,99.5405693051133
7840,0.046195150046258654,0.0480742028842839,0.3414188665953586,97.47869636468698,81.20077892914364,81.21924379735754,99.52581365333643
7860,0.011455700388403036,-0.0535192229135678,0.33459968549983504,82.06380024005149,67.89902452648097,87.50940585048589,99.56969040829745
7880,0.010951145786239859,-0.02651171205957516,0.38249937921290966,92.50976174692256,80.14069148624375,80.32168186494225,99.56168370307485
7900,0.007331656682169802,-0.08860231946259127,0.2809742283595412,83.79411603984248,79.41055537645353,73.44791327461508,99.54449226009643
7920,0.02840593120569625,0.04765701856449245,0.3752101983323374,76.70074749878175,85.02327839117774,67.44012127120233,99.57860583055377
7940,0.08471998436533335,-0.06172635639903654,0.32730200631442213,70.9670341874748,89.9297513253391,81.64737483133733,99.54527571319171
7960,0.10378072330733526,-0.04095712731784752,0.3301428361832223,61.939303580539516,91.67709047329505,74.80750156729832,99.56774218546212
7980,0.022917349966962278,-0.011414637530720155,0.45408936400853916,85.91634853337155,78.37855905017928,93.3237707944185,99.53146996051069
