timestamp_ms,acc_x,acc_y,acc_z,gyro_x,gyro_y,gyro_z,baro_m
0,0.002417422033994697,0.08850744592597154,1.0065911863698642,-20.38440207062908,6.455964067823172,-2.707367869092404,99.94692833687492
20,-0.02986905071283082,0.07842101117410966,1.041833462213115,-13.082507318908286,6.646951702574334,-18.013853412125773,99.95347147335082
40,-0.014268054445091487,0.0013298295430270977,0.9551165851514987,5.345511925905057,16.137806342090755,-13.483719186455733,100.02580589983926
60,0.04262448664257953,-0.08679230260338279,0.9712808194163147,2.5459217712940525,-3.0190235288416156,-19.184086184287928,99.99681150205473
80,-0.016580735818558633,-0.030967380687310805,0.9969550140823731,2.253136920581205,-20.395908657034322,2.453788343559891,99.9897886368341
100,-0.006960831263275355,-0.051834025445293266,0.9676219007359056,20.049178529339226,9.221007702691878,10.973019244230516,100.04181519379273
120,-0.025889172971103443,0.0358756495254903,0.9504633412984158,20.31251557657527,-4.4788525400185435,20.453815002963943,100.00918534148524
140,0.054110473455986956,-0.13768854159307983,0.945105304091428,5.219607590155009,-29.08997879749642,-3.973348436191783,100.01005248603788
160,-0.06077494718536507,0.029402046706739116,0.9837643343093246,-12.073262100038814,-6.740329507557526,1.7510575965604174,99.98630344264438
180,0.002152918557950785,0.03233968356794086,1.0635414971056154,-8.742861969311377,-10.362731552376909,1.4247031132511263,100.00658965841134
200,-0.0011208465377797485,-0.006230051249120281,0.9482491381389625,5.718274027016644,-23.14736015826643,5.204768407195994,99.97024392325969
220,0.05007500591987976,-0.10069396129785935,0.9870915574388957,10.686926693885766,-9.570630870944548,10.19771069594673,100.02192952953669
240,0.12555659708576056,-0.021018531578013405,1.049870465315506,20.39354224867802,-0.29799227716064475,0.04249180244973278,99.986966038525
260,0.011205244927685156,0.047365070175556086,1.0065536463745264,-8.074581606507701,-6.602924750707414,5.54400421026615,99.98425152962301
280,0.04191795686538855,0.04194576040644225,0.9453502664945062,-14.807847048568133,4.182598965125248,9.607284875939582,100.01017103824907
300,0.013791062205440536,0.03882373071444583,0.9491785971297186,11.27164482446871,-11.834484148780799,-17.388012797219012,99.99003685658894
320,0.12394281661970803,0.04119412114013563,1.0123485090438882,18.61254669048108,-19.630377349823263,-6.821638702660842,100.01465323436757
340,-0.012002053354614996,0.08571598530718655,1.0952324211418967,-3.630698975263702,1.517809516188484,-0.18690050805189004,99.9797638067542
360,-0.043072941165076185,-0.08448344986669125,1.0226367254886357,-13.037204547000066,0.3988325815491546,-16.855044878415608,100.00236798734916
380,0.04538630299233312,0.0014314815149849116,1.0024188319673633,-8.24001999767384,-20.825442261911277,-10.26832107697827,100.01256850214502
400,0.11668448487416785,0.035665930237993644,1.0147172423910096,-4.954445094946347,-3.377374538149757,1.7922807551223077,100.02293971675415
420,0.04782575637992208,-0.05550206631970807,1.0710116954502684,-0.29551394331533654,-12.595340362287013,12.375359972676035,100.00387029397179
440,-0.006279239062555455,-0.005889381985266504,0.9649496240782724,3.2965752495341647,8.018764569051498,13.878090664795552,100.03080183130571
460,0.033750037177339494,-0.01620139334253625,0.9664056326705183,5.558970921492591,-6.499004686969576,17.786271094180293,99.98497218774442
480,-0.04447504542773937,0.04689424294360858,1.0071434840705233,11.619429019900911,12.836983574964764,-13.34378437220071,99.9958403336897
500,0.06392111356477513,-0.09649199615463033,1.0915265120802722,6.560070136370063,12.352856564060467,9.141817737966917,99.99734442391353
520,-0.062459181129582576,-0.0011890060452779813,0.930333253874559,-19.229978474001427,-7.786825707824201,-6.497680778350167,99.96804725570182
540,-0.009306847046425029,0.004963084919663418,1.1269958194693843,5.91552328401179,7.742940951158193,4.819708696722432,99.98157151763635
560,-0.010480783160770779,-0.03384956232572005,0.9818954060911843,-8.837412949570908,11.249841000596604,-9.184129382412154,99.97947768759501
580,0.011784242571599803,0.0289624391475802,0.9531687952578497,-4.863108869492453,10.961704785344272,2.2015106642222158,100.01457787052811
600,-0.05560053142457534,0.06731587961590321,0.9784550829120767,-3.8665880324702266,-9.27947095676513,-5.31905515766051,99.98106404012496
620,0.06580225775297256,0.12273089078344478,0.943588023090588,-2.1091789485171133,-0.5703908131270083,1.8244235549734662,99.98629251960934
640,-0.09267046266882091,0.053665597278543434,1.028491982618086,-5.142716116442214,-0.6907331182068908,7.951045481819633,99.97695721350858
660,-0.07862225200162025,-0.026313522321966765,0.9897088979116437,8.214325351290512,5.25832852839577,-3.0906433464141685,99.99393340528476
680,0.05226382368812569,-0.020144645463083418,0.9800143916801101,21.107206802074202,4.324140236325785,6.480111336699023,99.97790507324001
700,0.06060956658811944,-0.040313504005666634,1.048027603872304,9.560044277207888,3.3321458823872043,-18.569032419677434,99.99673570681465
720,0.03282590989772479,0.039537955878938776,0.9106085371859411,17.986479631726507,-7.921917298949783,4.90673259602285,99.99307692913884
740,0.022962463628574056,0.07830162236973352,0.9430263313701042,3.40875952980555,-6.764996432231159,13.013832449978008,100.00106605640211
760,-0.06993867052960645,0.0057672736881958205,1.0217737406870997,-0.28262288984859096,-27.552532442292872,14.470252615180163,100.01951095604751
780,0.0020837648025782717,0.04980568524003747,0.9621940282486231,-1.373775961324307,10.309197265613392,1.0364087647137983,100.00916238804493
800,0.017477362923450625,-0.047482413534974094,0.9404904546509643,-4.05650008925571,-4.619764064206021,-6.190646841084122,100.00241480979011
820,-0.04176277302407904,-0.026269812545143725,0.9399921021004097,8.964765575221453,4.762161944748908,-2.1073932778487308,100.02116984814413
840,0.0273051312961922,-0.04240782563062609,0.9787515702847221,-16.485982766137685,-8.804954883126905,-11.506098726111546,100.03492577106262
860,-0.08909649011762197,-0.00803683305868672,0.9326565566698259,-1.958527439279803,-3.0592110707512132,-21.281007801419655,100.03137978952111
880,-0.04455357055630684,0.04805800768693194,1.0486711865961795,14.393625212070333,-24.48628697488502,-12.18288235405264,100.019100525192
900,0.010883497275493212,0.004489954059522454,0.866059268313179,-8.904809358081,21.942707307853972,-7.911144037335779,100.00848517449236
920,0.11160378245490209,-0.08703094763632348,1.0523530233388398,4.043800159151781,11.076752217500403,6.4603404274580765,99.97310633351202
940,0.016680726999409534,0.02539113335445183,0.9612549416157239,23.797832369769605,10.898858367983252,16.862572154836702,100.04123366696669
960,-0.04893716900534112,0.045583752328787336,0.9582841004636635,13.07760011562953,16.90284412733504,-16.12959353700667,100.00799637276806
980,-0.011347637906854086,0.03188738974667643,1.1182111811380766,5.466697327978305,-6.377701421623106,-1.3628664841256843,99.98787509001525
1000,-0.02460045074124718,-0.052792085823054336,1.0806028156639038,7.790729482664798,-5.169986095518639,-3.0471746863508615,99.99113424550532
1020,0.0258899981485886,-0.038704499917275426,1.0299748209955777,-27.589172779658032,-0.9197415722333797,31.607506906587535,100.02191752380057
1040,0.01896195117801815,-0.05347447399306409,1.072739432937244,-21.0085756689806,3.2443535829496923,-11.757386407460062,99.95561576034417
1060,0.005243599061156033,0.06267448571617604,1.0551163824802008,4.192236936911661,7.965449343512778,-15.109865510429769,99.99898141573047
1080,-0.011716144674364529,0.0633017036115312,0.9477225004758277,-1.5897066856850843,5.4146519428688284,17.375103735510873,100.01585882907982
1100,-0.004875695527945245,0.06667980282747378,1.049792677265402,-6.793343621409621,0.3792757986933445,16.618699512234244,100.02737022039659
1120,-0.09163013715956632,0.010574810198209869,1.027599149106813,6.971561721018446,-13.1564304252523,21.025945469260588,99.99554655353606
1140,-0.06252851631789451,-0.0038325697302832363,1.0129535416208828,2.382458405741934,19.071267971600307,12.008652240239954,100.02043776846433
1160,-0.08362021682472244,-0.031994717523634406,0.953140913178161,18.325321913477566,3.644797520807951,-34.33745030171053,99.96756192166522
1180,-0.04492764818746375,-0.018750576474810605,1.0668938119095928,20.350895449791178,2.7764149729189045,1.6404869412701184,99.994913842751
1200,0.012823028479738784,0.01975976892799115,0.9973784743469875,-13.092373436024538,-20.25413987639282,-3.6511444788935665,100.02665727275357
1220,-0.012091637794405077,0.08146054510664705,1.0378817152569517,17.83503662608757,5.8755274143934395,6.906880234864071,99.95738586381492
1240,-0.0031226003427390365,-0.031106682417492978,0.9553901115071974,3.785901462511214,6.442727153992703,4.541704608321245,100.03219525082598
1260,-0.027036258346275988,-0.02270295490613094,1.0137536563024325,-29.362748222507967,-4.5618957059742895,-7.735749463042234,99.9945943745254
1280,0.012585920177714892,-0.013949366743396958,1.0023440093775229,8.761560262103531,13.31341874338699,2.22863846266028,99.99323784441503
1300,0.013107797928204627,0.06294784945243552,1.0008175595213948,-20.460938185540613,0.15833433857469092,-12.96666147543186,100.00648369203908
1320,-0.04961274944294155,-0.05367596269412046,0.9803128324472768,-0.015698548834868858,22.763824417851435,-30.019562819792775,99.98979008704293
1340,0.0010585100811036003,-0.02062948181925435,1.0011590232915635,1.762562047948836,8.129537706086648,21.100443066643482,99.98387836106832
1360,0.00595432564711423,0.015925494480330687,1.0664964813439506,-3.764885060521173,-6.9025676800980085,-0.327295681443479,100.0225275331929
1380,0.0215830415622568,-0.014902988747448099,1.0922559277980588,-5.903063862765388,4.058149123003045,5.563756494549859,100.01852601751744
1400,0.040433625882722236,0.08536411403027999,0.8958604011886722,22.142252945799548,1.4682780508656517,-11.360287655177707,100.02773907893047
1420,0.06752196958745242,0.025264818675026102,0.9045683975518554,-6.681148600514969,-1.6438143937534926,9.543526190442577,99.97602319142453
1440,-0.026424416495566733,2.9659368168987866e-06,1.015727009805909,-9.44764023883077,-30.08787048368477,-6.9773479939238445,99.99685874310926
1460,0.021526644822176397,0.06770438900642126,1.0487601405709197,-0.7150262427804454,-16.54028933896906,1.402693279914923,99.97505429838768
1480,-0.029820308085470506,-0.07452318501587009,1.0035329056091418,28.99978060390545,-9.35820580409183,7.276709248645521,99.98994021618869
1500,-0.03183661701400275,0.024079340190670873,0.9983200007117756,1.0327339485997173,6.743689982503097,6.278273937316693,100.0444371806107
1520,0.0021621660319067265,0.03248253355325903,1.00346526430969,-28.95268893506819,-9.466542573724766,11.743522024587115,99.99284556978886
1540,0.03443822064005724,0.09102621965175038,0.9843920601766918,12.038078880030898,-10.773947568580317,-1.74441879855339,99.99808035570538
1560,-0.02258616093035705,0.04453393214900839,1.0284313172564674,-14.866557849411244,-5.30010233543263,6.857022129495388,100.01573356548889
1580,0.02477846055606663,-0.02028350840521446,0.907394042912086,5.156396905323369,-2.659754776644219,7.5785332150335325,99.98905322669015
1600,-0.013533428303087711,-0.015576131203458063,1.0016835281385863,-11.93252132831292,11.193489938182315,11.107588705452262,100.0429303473852
1620,0.05717128901625771,-0.039276952273491095,0.8893243498089838,2.8975520997633573,-6.5539453305217314,-4.5596230116554555,99.98608496087074
1640,-0.03579299854291621,-0.04380130586585676,1.02749080110946,-13.82089337306537,2.8386410736458325,-2.002749002497015,99.98498000014041
1660,0.017657008489692205,-0.01744177841459055,1.0215380136288228,23.167188367248798,18.540443606692794,1.458813336923753,99.98798344870082
1680,0.000678099554514671,0.12039243579246171,0.9355584111226137,7.62616557684524,-11.212152997404516,-4.8056664394706035,100.02145471830438
1700,0.0582977948089006,0.021593484454222628,1.1011065182563644,-3.4111814537941,15.588437558970604,-18.88351305958474,100.0363074061098
1720,0.04345826250920587,-0.010451096133223555,0.9737040854776061,8.735216384270286,16.688676514317496,16.131269625695445,100.00345289261023
1740,-0.08494867584287952,0.016725177398900733,1.053757514175029,2.5867883447894706,-1.1355610092905242,-4.632036058154515,99.98196296392668
1760,0.1458461975669035,-0.0019034862464913267,1.1201663041496532,0.25672119885303396,-9.386348966153527,11.056091167090177,100.02195720194817
1780,-0.014065511809099507,0.02999026313838687,0.9583839713585641,11.940197695340538,11.50404219604014,9.820383085400827,100.00218375234378
1800,0.003985279314814489,-0.03331356089116391,1.0553326483107985,11.479691947023436,14.122482696971598,-2.969234482408356,100.02114393664453
1820,-0.014171048682066784,0.018953812576925966,0.9686756476717773,-17.894625442660086,-1.017829918997594,5.360378699835673,100.03341232603142
1840,-0.025694653785034827,0.015577377537267817,1.086945775316081,9.589656700925188,-28.201359617208283,3.3079462649754507,100.00185942895773
1860,0.012582605446840102,0.11431995686966563,1.0390544951712146,-0.8397815407974214,-26.183172515088472,-10.834658370975779,100.00892940075744
1880,-0.04040558475859096,-0.016294114985444186,0.9355778298563844,-5.103777215825796,16.167474817189337,3.821241819334552,100.00372963412083
1900,-0.05747736540053705,-0.013745252078934678,1.0169796524384564,1.7834615295920115,17.548156658365205,-11.714416388778204,99.98355513254211
1920,-0.08869017466320647,-0.03527670412995021,0.9166989025395652,-17.418083482075332,0.8166321366297651,4.2770454265250395,99.99019028809568
1940,-0.08559605668876867,-0.0019780443202821844,0.9841760640020566,-8.309260238184969,0.8558356026310161,26.4945033663163,100.01391371794689
1960,0.018439915669095613,0.03076407020248035,0.9786534842848488,-13.508291796725832,19.038311239965427,12.748293112414444,100.00695302318206
1980,-0.06846965743151578,0.03253918574624779,0.949681689143278,8.94450743498678,-6.486022290844755,-3.876448177891815,99.99018045704186
2000,-0.07884828490877066,0.04714990218779566,1.0622216943160088,9.626718597960734,15.671571646102906,-21.825170617188775,100.0155284162462
2020,0.012865811286593734,-0.025959641286617083,0.9455826682687809,15.118897737709755,-10.789301526905266,-18.289425846202732,99.98978623257574
2040,-0.020078327174028215,0.021892196687840315,1.00071283645696,-2.254300897453126,12.357366114253235,3.528779463146255,100.03605371441574
2060,-0.04003942126071113,0.037294528618606666,1.073754787922639,-17.95409856517631,-2.812089574803381,16.350907101221292,100.02356680774005
2080,0.024314867412923505,0.05328098037422298,0.952731643382631,-5.371668425565527,6.715145994589994,-0.7206702137118003,99.99309326501137
2100,0.060945738706468106,-0.020188820553802823,1.004147388916154,6.224809206417689,16.8353084353644,13.543171017418162,99.97597857045994
2120,0.0345594964360151,0.033755597587623885,1.0917384467138938,18.2935724043367,1.578309689864012,-17.92988390914298,99.97797346263516
2140,0.02821514845636236,-0.05153776591140922,0.9640446153819959,7.1069840291387205,-10.627782895739806,-3.2943289553068325,99.99255566360944
2160,0.03035017762108207,-0.03505091918915999,0.9924902054646495,26.909482030205574,-2.9784470755195405,1.5463207747973866,100.01065097518628
2180,0.019348936706661705,0.05398035904478082,0.9594793737388763,-8.053076473341527,14.446993827811177,20.93806868275471,99.98562624094247
2200,0.015408770449324245,-0.07560987748953969,1.0475799201538576,-4.092752984286873,-14.17767890939813,3.0798518807845072,99.98616434727283
2220,-0.09351281296520318,0.05864082551985744,0.9375128241259139,1.4590867754977013,20.297786704113225,7.999715391023308,100.00788134984006
2240,0.05192978205704834,-0.06434335071899713,0.9735241746909246,13.337446091010765,-8.4212844007205,12.902990170762525,100.05090237419395
2260,0.04321948263631123,-0.04312719278679964,0.9858756883534421,19.614672832222155,1.9795081966686308,19.76866683132741,100.0028536689271
2280,-0.0007523769066577176,0.07094403687711957,1.105806001612432,-4.865976988845619,17.187415805990806,-6.571324869388945,99.99151355448683
2300,0.048791426458650464,-0.010906979133047213,0.968051644474909,5.721375235898266,11.652824133264161,14.00221127175232,100.00083698302299
2320,-0.0002813237566952088,-0.013513064289958632,1.0149193921403405,-1.7103425606080087,-1.171362584783419,23.80720478385719,100.00708722411328
2340,0.0366440217672574,0.017110576065201204,1.0363954752349787,12.918222705307514,-13.281208764045992,11.173441617807079,99.99083698133359
2360,0.011011906767808928,0.06282695359089824,0.9483960271424354,-10.432284577376752,-25.403831661930496,3.2315309628351336,100.02039064622394
2380,-0.009518524216276213,-0.012147510350704082,0.9797163056255809,-6.952174365406362,-10.374779107894247,-4.4639657409470725,100.0009096804732
2400,-0.025710156468541537,-0.0152465764836913,1.074365466006491,-8.136341608900509,42.850096502816704,7.0144111116301096,99.96979037526467
2420,0.034503058853918724,0.0020536898517218446,0.9707735591730853,-13.344851067586667,-10.93643371028254,-5.419157880768462,100.01943902297414
2440,0.062351714944300876,0.05299132073217275,0.9992420249752494,-11.647467834464692,7.544849320683282,-5.998496363105265,100.0237215631185
2460,0.007162010720529426,0.05644986610151808,0.9179127831052717,-0.13830684099135282,9.33472013023588,-10.780870965970426,99.99456963884509
2480,-0.014960829669847778,0.00784011492615186,0.9105049957315482,-0.8738193803014209,-1.9824405064237385,-2.1770589631430424,100.00718111780823
2500,-0.08867301726253426,0.07596563962160369,0.9387467283137841,-0.4311976328756246,-5.423632908089643,-15.262148908257593,99.97405904081738
2520,-0.02150691030637218,0.03168566016972752,1.0405124275696052,23.999281223808648,9.42569282464629,36.92462664222569,99.50416066941092
2540,0.004475498439310024,-0.01798116876941081,0.9548660052259449,10.67189834115785,-7.203867353635097,-9.487440848799144,99.53866886361944
2560,-0.06737892511019199,0.01995150288414911,1.0657652405120852,12.600978680115475,-19.571685452358857,-13.333778938240549,99.59332698124659
2580,-0.06954870480361064,-0.00559139897777178,1.0372973033437383,-13.237958419998428,-2.226713808252047,-5.05179391831294,99.55977828916136
2600,-0.05963993870277179,-0.08054688883294613,0.9999746740248255,4.994403911282471,14.500132998147468,-20.7231402623634,99.51416684754639
2620,-0.027084515472564935,0.07420927400651245,0.38343469327827645,62.115640474626964,92.00698101189815,82.11473553516427,99.55392619826264
2640,-0.0007077084693673807,0.037305631464203313,0.4164609345223624,65.13330084228943,73.58650017977504,84.90551091366619,99.55195078231735
2660,-0.03244349172876986,0.0622447378553203,0.4235225344601796,54.428587600669545,96.53777321962994,76.63389718438893,99.55295457038592
2680,0.019357513229783734,-0.05439532735347833,0.36301343808854647,81.33839234872828,68.66965515699574,82.08602040370944,99.56972313746813
2700,0.005872209168465714,-0.037694135861503573,0.3950887564893951,82.6271371515446,78.81653333614862,76.91920031118816,99.55166592348807
2720,0.02724073098556233,-0.030892086531698473,0.45205976962744215,78.66968252667148,65.64138726665661,77.16852081675935,99.55426826835306
2740,0.00695373677413166,-0.07946941325901521,0.37641858496815356,88.1466475516321,82.21397181374348,84.43053773922777,99.54240013528884
2760,0.04237578566492435,0.048526093429404414,0.32898998357141995,71.7595285040249,64.62457158192653,82.47923055837123,99.57682152933093
2780,0.0444374202178917,0.013828348616490203,0.399642658855552,71.78262742422756,60.36725176145413,95.42394359759564,99.5624244421213
2800,-0.010234458973544216,-0.07586641310763775,0.29940772339157684,92.18854241282719,66.57873656211983,89.13154566218414,99.52423709615496
2820,0.019704661315785656,0.025403911020206095,0.3221020548800043,73.31163500633804,77.17356111143624,80.20853921592632,99.5468071014478
2840,0.04774056601099704,-0.018275536635949947,0.3135895123404004,78.46566628832022,86.73001560213434,75.25886187854519,99.56776179827048
2860,-0.04668911682539773,0.02322082750227951,0.30967929956231005,98.02932724539959,83.52120302945774,74.42492450643708,99.54431966325048
2880,-0.021264932681881614,0.07301091147767258,0.3181244163059106,82.99897378383464,70.47126024262116,91.40450841208497,99.5383414880127
2900,-0.02678359704418918,-0.04658746096030521,0.3475829772125449,77.27821211432206,62.95114904856774,89.10043561789759,99.52491566584767
2920,0.06096522288632346,0.0777473863569929,0.3211762868001513,83.27516788167009,77.21483836878508,80.37787308023582,99.55753679063166
2940,-0.035760634966247186,-0.08200917197951887,0.3685638096100517,94.5481056147984,93.63366867767934,91.21424591854776,99.52695972184038
2960,-0.04556750227175772,0.16452246316580707,0.41780345893487747,60.41864606620335,89.76871076147692,95.71316747072262,99.54245033784771
2980,-0.005779259825721341,-0.017260090734612363,0.4251352444632402,109.31373340907861,69.92296961637636,61.1125570189225,99.57480635348965
3000,0.02790479316048852,-0.10563430878225027,0.3878195919796177,85.45239801623315,67.6300093176761,70.45367291424964,99.55734380911875
3020,-0.023672951300876835,-0.106087077569949,0.36069626018819906,88.99065381623583,75.63750026784066,93.05402943020424,99.57336890964976
3040,0.05885048931696899,-0.07100045636203946,0.3628292472819998,74.40093364937053,75.1554624311686,81.73006015724033,99.53093516714752
3060,-2.4328368605527382e-05,0.11123335354158498,0.3074724470917377,79.71440324654306,91.75732553807268,70.73927379019194,99.55435269280156
3080,-0.024730462958638764,0.09061381327112794,0.4643633471594243,76.7786235777539,79.96569398622422,84.02749732295376,99.5598594120454
3100,0.0047049394448765965,0.12645186463271674,0.28719426488841343,66.81471519044106,76.77717383910125,74.02397098522624,99.57978742151622
3120,0.03697409744675472,0.07350960880774639,0.3113428176610805,74.10563578169878,68.98105735240418,84.02661322127221,99.53513334267102
3140,-0.08320765866944863,0.09735146926387532,0.3498068714005501,83.90448053447213,81.2140327865223,76.73744837449547,99.57422413858407
3160,-0.0375804421819618,-0.006716410067467715,0.33156236567411973,71.2098447005083,77.12113734820677,74.30172278110193,99.56215758221484
3180,0.015409237973382693,-0.11807792208491115,0.2977369254423383,59.69247671569587,75.79870793252668,75.04425292480146,99.56568301910153
3200,-0.010172537470942385,-0.09131447563763506,0.4340810762477252,64.51938837086503,75.82670664234809,82.10780351867722,99.56280801144582
3220,-0.031632544292694555,-0.002351191358478206,0.2979592457922648,72.99417068459641,58.01454919396696,68.52373878100222,99.57526685285607
3240,0.0033729149682257703,-0.008566891194001785,0.35019411218301266,102.19242686809683,65.50040296098487,88.32722054441061,99.58333258342957
3260,-0.02013823913662552,-0.0316040587416786,0.30953893431513824,82.52339498369048,79.31671259635081,78.64657650903108,99.51068214036671
3280,-0.023507526656849093,0.030239050597840753,0.33848201429488967,69.33943343269962,79.42208329628069,82.23398004989707,99.53137747971009
3300,-0.0034527325884921643,0.03747796406823672,0.32053802661571806,76.70047178151151,79.28419807947826,67.52947958133674,99.56949105823985
3320,-0.0036384285796402065,-0.023845872741374632,0.2979873774301941,80.90295572331118,69.73058258115212,92.84520918479585,99.51391020251333
3340,-0.10329709920593594,0.002470777572237318,0.3709241071850389,83.94040407526701,78.68850237213933,72.13074612560553,99.54164371574836
3360,-0.044879680905846535,0.02515891328327697,0.3211298629315653,93.86460228650976,78.17735639073314,77.71603173709133,99.57415091353936
3380,0.009985819574166922,0.026089247301941395,0.36166183652396233,60.77082463709647,97.94352112304614,58.4763428672339,99.53826171528296
3400,-0.053199456814984704,-0.02043950082305507,0.31067855654452925,83.87887304085791,88.07972652725721,77.41968326058418,99.52317561375237
3420,0.12246559017028896,-0.005986190197946023,0.29844657754223647,83.23775344776205,92.41578175071895,63.23019761849094,99.51068521376484
3440,0.06478674717654698,0.010809677013777408,0.36609058323784105,92.79168750956146,88.99175242869364,81.86194486559272,99.53508058453735
3460,-0.03944950006103125,0.051912984726785884,0.3447131681003627,85.98944487016095,75.67939043123204,72.5466085852406,99.53795146930511
3480,0.026725510499677488,-0.04585313052496639,0.3988952169549207,78.62657239405578,76.420486146419,92.82819173804923,99.53626636429472
3500,0.02313216842047927,-0.04181840549452878,0.3745263920673716,68.19015600593815,73.32479310470679,78.25822436680434,99.57826222258838
3520,0.01138435942735565,0.04292906491502094,0.3266649943808225,82.2333590828133,81.36088233016463,83.65921415454851,99.58133467032076
3540,-0.016501710990376336,-0.020339989029266183,0.4175478190919138,66.69306105160284,77.58226931717834,65.83674907874878,99.55574037558358
3560,-0.02445170459747121,0.01890843536412057,0.32461188508655064,70.54296147589405,80.64588784951634,82.86385758787341,99.57579737799512
3580,-0.11453501066624634,-0.07782499665480551,0.2790177782192909,67.94214004451595,84.89780921881918,62.767649827168114,99.52268397052083
3600,-0.0075779469082988445,0.02153797080510981,0.3811070538883654,88.41745071803089,79.67433458797609,91.32741584314789,99.54370884658634
3620,-0.01054219369122866,-0.044170746996983985,0.38236229077092826,69.03997006580647,68.1803735756292,76.68304282044325,99.55187012513163
3640,-0.017090084904172628,0.023659232952494308,0.40677102557509615,73.87428484809988,89.08492160103319,69.49891388361577,99.52807626809292
3660,-0.04219166454447721,0.007105431257853583,0.3908303298435972,96.68307863699539,66.82287503094742,84.69188451327605,99.5496178847367
3680,-0.021389003443516894,-0.037431617024957196,0.3849766188369144,81.92906656292719,85.46549741566025,85.24510599254141,99.54612243531726
3700,-0.0773106909586217,0.07752141143903057,0.36739625468741494,103.64747703032829,59.5715722534539,78.58783151547566,99.5735545070577
3720,0.003624807273328077,0.09938522519157203,0.3531233406001855,75.30692650351132,79.98743308518954,82.1974195145988,99.55744306255497
3740,-0.06135268296252753,-0.014701693512981602,0.37134527538286605,73.61646430220631,98.17095138947876,83.43873958102249,99.55174294325728
3760,-0.07711761710770333,0.08295642512919676,0.35068261877106316,109.12936754479597,67.56628987576647,94.49300277888958,99.53527619042653
3780,-0.037297173780755026,0.061331359459271456,0.28912919475263543,70.17609615715668,94.74656667401145,68.67036988459029,99.54968742055105
3800,0.004450329163422906,0.09533857629324599,0.40227026313286735,94.35211625009404,85.20125824069609,81.494317106312,99.55736520829696
3820,0.02228453716056858,0.012314150488027956,0.3619717054515048,66.88391760012193,100.50608662184932,81.78768321509874,99.56650200411062
3840,0.032152500264906916,0.046583812464801665,0.41128468697265547,81.21347740801549,73.25708931848362,91.00332028730071,99.51624726472222
3860,-0.04178653847784634,-0.007216156849792001,0.25542113821804074,91.88619026900466,84.80547159633893,94.44944660568933,99.59540967810433
3880,-0.15333406044973594,-0.05713386965879372,0.4034917376339059,96.70464852417692,68.242329770978,85.9486672861892,99.57910501608475
3900,-0.04577177290162752,-0.0007171380111753811,0.23773777502377796,90.44781019954284,64.86190495686427,94.17903330257754,99.53597756118393
3920,0.01871056812656943,0.034555123395415846,0.34360458922549497,85.79171712661582,80.86131576763616,57.95814828982516,99.53016230221284
3940,-0.03391778290114441,0.13121640167495233,0.3767463862411931,74.61984746429754,76.50319649110116,107.34637072851385,99.55818815102285
3960,-0.03856334541007536,-0.004492264089266388,0.364635644340766,74.61518800989141,68.42048483531335,83.26757330423773,99.4974682813435
3980,-0.010200718147957878,0.05270542784116442,0.3425344692848684,70.07202132182705,80.89031596567048,96.52945842200282,99.54117403465318
4000,0.023667326201109642,0.11751288864344706,0.392685055469649,74.31829780226745,75.1228479371959,92.17209932641006,99.56801198099393
4019,0.019217613169757872,-0.008252193805776504,0.3495718689752485,92.85499661223895,67.62065633584945,84.57318945105351,99.53978674836686
4040,-0.036605947644440265,-0.0355996416406179,0.3001088110767252,84.68247614432825,86.25970928730332,90.13161046015631,99.53350470715405
4059,0.08861639888859026,0.10459980872972047,0.3845909889487704,101.84672323830975,74.2813677499863,77.97234898916254,99.52904592459653
4080,0.019112853764251717,0.09644566665730751,0.39651761700117927,73.06792842159197,76.23962446433649,50.86237290408913,99.5665495027035
4100,0.0023498328414551396,0.05652055467830511,0.32960582863732674,95.47744069810278,87.96243851525591,85.4883036638819,99.56467730116505
4120,-0.00888474446187639,-0.0019685459173462002,0.408160633902897,81.93076732057702,64.85439277705527,88.88644574249321,99.54675357490542
4140,-0.06680959359865822,-0.05120390291909271,0.33998203758328643,54.208759839530366,97.20978803871996,49.842692496210454,99.55778788241693
4160,-0.014152893049759849,-0.016793761541520683,0.3244835913521449,83.31863027554829,69.97451252163,81.37562579281455,99.54161956235545
4180,0.07497835100069361,0.0840237761362972,0.3968105406215019,83.91208414341314,84.13817215581135,82.46975553772819,99.56340448588452
4200,0.0062627198303392174,-0.013039253281864012,0.35495541724384383,91.74518796331522,74.40755198065189,89.00624244016355,99.53827035253246
4220,-0.00809257074336526,-0.024009871309234838,0.39365617166698197,73.9969546173129,87.21372766418986,51.917153402667694,99.53976648233866
4240,0.04644223608270691,-0.010497968066252856,0.26352229196251764,78.21714078684671,81.0504895188073,92.44557476602685,99.5554174865697
4260,-0.013850958159131677,0.05462543321651776,0.3098381516727585,72.79904197361817,86.91138947593771,70.78996603527433,99.56021859585692
4280,-0.00045120060137717155,-0.06794022260710983,0.3493323258713505,73.88924035309175,69.88728317490235,83.65277210762567,99.53098354405786
4300,-0.012524374791284126,0.07616387764636179,0.37682069935331486,90.84575158640229,99.09619123795773,88.2407036506375,99.55097462862943
4320,0.06914081369024695,0.0512682965147827,0.3220821929945932,105.85315345508134,75.2843354170003,86.60355237464394,99.55335592804101
4340,0.030013921315276568,-0.023790762316233498,0.25712193045284243,74.08459040389126,90.45089329234105,103.73503910247955,99.56371306839769
4360,-0.013247502858902969,0.058439349325262596,0.2761497286245712,82.8403854955403,95.45312972826318,67.32861105815668,99.57013974077744
4380,0.09062133815337496,-0.01935874869791484,0.32196499671110734,77.22689314275654,63.429308031182444,87.19837783279328,99.51406707975504
4400,-0.03149597105438408,0.02957718725651054,0.32492674958222756,67.85651675841392,76.88680783053591,86.91664330180765,99.55537807006088
4420,0.054795176048859674,-0.03606970770279373,0.2737570620009019,90.04844273706208,68.91886481266405,84.7430035833325,99.5605484136604
4440,0.013579615696091035,0.023487851813003034,0.30220954893940644,86.53180193806969,78.11431580727358,84.76830701139951,99.52298549615467
4460,0.03210216090634986,-0.011904257207095635,0.3823789479799875,97.05298910173322,62.9990175569187,83.40276080831508,99.53840187903437
4480,0.09370073534668762,-0.0027562855698413636,0.28320552320510317,58.61606342512524,74.73707332348653,89.68003999200324,99.5460194611379
4500,0.02685794633030504,-0.054130097131019496,0.4588807486429779,85.12328064501368,71.2846544165329,97.28519181149477,99.54149089165517
4520,-0.08261470727259358,-0.09937087049835112,0.3687474589379576,67.7087813050563,70.01563404460005,70.66644661111489,99.55392970322632
4540,0.06121462239995439,0.024656659632412568,0.2914544139414915,91.36997738004987,89.45686138691262,80.10275218160257,99.54388211502379
4560,0.03361132223969326,0.023588708447415885,0.3433237732047238,73.35744219272378,82.58674534942024,82.46949614376662,99.57693649534826
4580,-0.10000156156771411,-0.002696255476735073,0.388822077396556,74.9119325300313,83.7959617524005,68.48449984613414,99.54647112065398
4600,0.05705942001901301,0.02450864123611646,0.26590652002658416,83.75547712315431,65.03418387361128,77.9753898651774,99.55997711457846
4620,0.018783097436361442,-0.07123444182023506,0.35238529186186174,86.17328038395273,77.12754408530348,77.09834144031448,99.55753236632005
4640,0.05895411540295149,-0.07444732484258414,0.4118579912818147,64.56839938360658,64.23499392357928,64.5411065658219,99.54600973443252
4660,0.02148879845606602,-0.02441691048526409,0.3633580745028755,88.71389629409322,68.21698432264739,53.10770105206585,99.5796665051526
4680,-0.08179762214003856,-0.022266224727818043,0.2993276907378112,95.41624794246131,79.66446465272257,61.37859438768551,99.55731622759988
4700,0.01682996919520173,0.032141214994022414,0.3197885673367515,76.6898849479887,77.21061609524459,74.92485380337223,99.53780636165233
4720,-0.012991278692959463,-0.006430208817647322,0.37995986825588624,65.74468311464835,73.68776457069801,83.5165476655301,99.55989827281579
4740,-0.005682280861580707,-0.08214330273945902,0.3253952223205893,84.45724074468475,77.29881445966946,68.46992913110464,99.54292599046673
4760,0.04990166036808763,0.023088223478764342,0.4303674596842227,83.70103597806248,75.73338720803012,61.48045644587702,99.5448043160468
4780,-0.030477114909811837,0.05227897555050375,0.3636820468821965,79.78250500207487,85.73832775719886,86.48357392198818,99.53496219073503
4800,0.025073158874597865,-0.06939132988403617,0.37109017185168214,55.89829034597856,95.21141458887975,95.31272061038018,99.54349133591413
4820,0.0548530540305873,0.09240312871795539,0.3242205922374947,78.9305538473704,90.54788002936836,86.72241311826336,99.54699345348769
4840,5.292890938378677e-05,-0.029995440755649305,0.3189217874493402,73.88896565706186,97.8909637378433,69.46554057940023,99.57905772786503
4860,-0.08361433149939997,0.0022652198947805827,0.4215928781223437,91.50501526763769,74.67854807068375,99.7435787347236,99.54526630847741
4880,-0.042398851650367796,0.03761925426988122,0.2932445696804985,82.72055075008997,66.91189083941265,60.817681826872054,99.55101751047202
4900,0.09075160214687278,0.021228338062877675,0.4002389819710699,72.12760117050347,97.58881978734655,86.88676027783109,99.5630723178735
4920,-0.043952226361620966,-0.021383644963728576,0.3358698178414579,76.24841809973532,95.963549507931,73.461591318149,99.56837064113738
4940,-0.02844771567548133,-0.029294091653543006,0.372895859365874,87.02762202504901,52.88858374388469,83.72829657808282,99.55029856470594
4960,0.008879578281954825,-0.06932713011949182,0.312286575151573,71.38329892698157,77.72160505177281,98.07740795389493,99.57471726311772
4980,-0.05495650073455593,0.05092940872054979,0.3610369238239874,85.34674039835541,92.9639382071433,99.10541433744561,99.59769560821215
5000,0.048732664634178496,0.025372222723579294,0.40310000496992443,87.30308474846447,66.68245171265742,106.98996008209627,99.56540622548064
5020,0.07430514652841924,0.08143295261975968,0.43145648205210785,80.67452465240015,70.75014283170742,91.64440305726072,99.54018296603387
5040,-0.06761668224133295,0.04942880670588381,0.2943698663383054,97.38118120948481,70.50971169970862,90.07614660616991,99.55585327677892
5060,-0.017585083856779978,-0.032261847301713414,0.325018381611251,90.18231789807491,82.67212471981934,89.5082662204791,99.53432981855524
5080,0.017625632963370726,0.0266580960323414,0.3176372022442047,82.43321069446557,70.05409962983272,99.67419240524,99.55556070972908
5100,-0.03405768338277808,0.13259066942618947,0.3309167683666723,54.82174290518766,77.26284749744907,55.782935614879946,99.53881677720724
5120,0.044956080547259164,-0.0710168233506073,0.38041542244774307,74.98372570531758,89.5176518441779,86.86257587751143,99.51665019713762
5140,0.04293628441414206,-0.10496751128013924,0.36066561947174974,87.22683204804264,90.5445773339768,89.53966010070523,99.55177071130419
5160,-0.018127182242714663,0.018937615955495354,0.3910382211627753,96.01610003749602,70.7221748781988,92.28782139526962,99.56063561398369
5180,0.005438132766304165,0.1005743625845995,0.3234844524128014,73.93633687749113,66.33320545550224,74.7267065082482,99.56776683853298
5200,-0.017054095736440414,0.05287952519923931,0.37795855990767463,96.17909158514195,92.57726982541834,86.98166440925108,99.58148210760022
5220,0.009571098000870706,0.06940817036756552,0.29015138861955075,87.57849282426115,63.234911854363666,56.457318061250525,99.52997439006874
5240,0.06767472463744605,0.0043269914930014145,0.42069046629386136,105.12059878980058,71.66823524207504,86.94771201791617,99.55991145198483
5260,-0.009812950697078058,-0.034218960098758126,0.37421112003515855,77.03688338022967,90.92454467458336,93.0416262877898,99.53325942755049
5280,-0.029973284656561558,0.01369338652998802,0.29409491268747345,86.09140823433191,84.45251116821431,73.76726677005016,99.53156249886534
5300,0.03254194389955367,-0.017641456023395043,0.3220384644146422,68.708795116748,87.96177463069216,101.65173028079394,99.55011226623132
5320,0.005985579016880319,0.006225657858996926,0.36970366099598145,80.54918535124807,89.25365981875761,71.03301621010804,99.52701518567082
5340,0.013312123108728436,0.012096079797559398,0.3587471023291441,67.27857277717416,102.34544903774086,81.65941935817503,99.55806659729181
5360,0.053498071367283656,-0.12511028068743882,0.36664549890335174,77.88570612899849,79.27482020965904,84.53302264101256,99.54860069798156
5380,-0.005058868214952805,0.019709215997941065,0.3010074759098643,62.014065659636785,70.84710813904469,86.59907373234194,99.56843316539113
5400,0.029416529569339878,-0.018799370505118446,0.3122030321588934,59.84993828724016,102.01501789664869,96.26014034743878,99.57037960910257
5420,-0.02166437636582734,-0.06014954647542983,0.35397007096973454,64.62665979395788,80.35489663822801,76.07828628728251,99.50477652189262
5440,0.03403919082703168,-0.022993013639240775,0.3541022394378963,79.724009503874,50.65552807778198,84.05479137015445,99.60515912262889
5460,0.004700111904297041,-0.037213495041154336,0.30920682722884574,66.75472763484848,96.00579189920231,76.81508501902076,99.51819477293245
5480,0.09662386264601648,-0.03262092652657581,0.40319844896479917,83.53536380048214,73.37374874946656,72.80274626579723,99.56151031034985
5500,-0.0581905330044564,-0.007317400436991587,0.44908266462325946,100.15629000963713,76.0865183826285,81.79073913013366,99.54286376623972
5520,-0.03532868832372435,0.10195501900907865,0.3706657404343331,84.52003303882684,93.51418064119393,68.28029874129031,99.56333577195284
5540,0.10522412926566566,-0.01664548131434824,0.3549261257125027,81.62721365852842,86.91576124971824,67.51179941746037,99.53661379103615
5560,-0.07754473216036102,0.0060577125474640635,0.41208901318581065,75.1852180764685,87.04530916011802,93.73559985167904,99.53971419371581
5580,0.09087227366255635,-0.05236066331375875,0.3381894265678597,65.5873362980624,91.45368145941619,63.765955711735465,99.56133900083083
5600,0.055996263513974846,-0.07866976577775833,0.36818577695112953,78.68191512811408,82.05097716748048,90.58241632304811,99.53439505985118
5620,-0.04092533931029854,0.0013113399844629765,0.3362400834096804,57.90500182678419,85.13185003271627,77.65328113805367,99.56808839057076
5640,0.013307792858646042,0.014990489928835615,0.273973115285187,70.60931503043534,82.76870811329714,94.71660106434338,99.52580619055972
5660,0.02552796349014579,0.03049727468089162,0.37442385940282424,64.92015627635465,88.88237461595905,89.97515871790236,99.53545858356914
5680,0.03960299995270989,0.050389975307630945,0.4341853426252255,94.81426080252501,58.38156819415182,77.04201315048209,99.58099820670475
5700,0.026431662435121652,0.07940258586037025,0.2892138458898632,71.05218221868391,77.70718168683335,92.3626406461417,99.50700895108233
5720,0.02508399073572294,-0.036363988544959425,0.374959652731942,82.12350659460812,71.14706713971977,92.35756410829245,99.52799058032342
5740,0.09542519508509263,0.016875073828327827,0.24415098840524724,82.39912262258837,87.40622173318472,90.86156025245822,99.56271125757569
5760,-0.08836551804098884,0.005330898955887738,0.33885567822026696,80.91229937214008,92.3328556844207,93.2618823525456,99.55972127306887
5780,-0.006636447137807328,0.029173596010082986,0.296482660411085,92.05583368668071,58.86445915910241,75.20002747769036,99.56479272320483
5800,-0.09235273430052598,-0.01510910431729761,0.3655666361567756,83.79744868776763,69.13882753046126,83.51251733727389,99.539506763886
5820,-0.0074538205691506865,-0.10770913948787803,0.2430862816700102,88.09089976639174,87.92473263354586,67.32510522851267,99.53612429107545
5840,0.07316143477433616,-0.014766227228023444,0.42105879953530573,80.3871137024887,82.8536169230807,59.81151814339514,99.55909220453819
5860,-0.07513480358676627,0.027213146351116838,0.26011933463306774,84.6468979297406,74.15396585068414,63.17267151517165,99.54997808026941
5880,-0.11186287496221042,-0.03693248154118808,0.339513013239245,81.9489681240009,72.98722631731708,79.35165504887837,99.56713410845022
5900,0.02637166822004502,-0.022772176427076088,0.3707068433494557,58.30762442378419,67.92333073514075,95.59421001442796,99.57888246330769
5920,0.026961417415914853,-0.03896477423038472,0.3499741127821258,90.93751669961864,70.2800012708981,93.54636944329783,99.56252557040953
5940,0.06302760266042715,0.005855514854965289,0.35132022925448564,106.48391554206513,76.00022332655583,87.11129548427427,99.57291160549443
5960,-0.01393691613820656,-0.0018260125187659925,0.22078415425229264,78.82144122806396,91.5126983737895,76.93266790272408,99.57774386006226
5980,-0.01870960398131058,-0.05356203534533182,0.3593118748414473,79.30674547953275,89.31407425007045,93.91757079056802,99.52275735043838
6000,0.12030540626530815,0.043944619040917586,0.3493289575073455,77.45168058819038,65.50109160429923,70.79407070932457,99.5347593515213
6020,-0.05729544566203282,0.08574886421079148,0.4776242702699489,87.36196919169296,92.13159898665,83.43593416846886,99.55008090116786
6040,0.046951571628566294,0.052127874887293216,0.3015577704953331,84.32186953153402,66.33446237940286,77.82952258672611,99.55844063379621
6060,-0.027049837965514092,0.01654559870367724,0.43677097868131143,61.48814993841751,81.28700836054475,63.01839731514998,99.5635168461476
6080,-0.10169654430621283,0.06041063581300352,0.25435729439457966,76.73781773260156,70.12248050970977,77.58296812298077,99.53706235785347
6100,0.050686206286407354,-0.04109145103692567,0.32075314707998603,107.432700297157,58.42601870176077,69.32434490132628,99.56944793109002
6120,0.13848713408495875,0.058555604060055236,0.24285531651241896,78.13895807774786,85.63410198067288,74.45168834519345,99.58959185284
6140,-0.007268087965566147,0.025741178326723388,0.28173276172478723,77.21962462003198,98.55693710880048,83.46264230122534,99.54555965892158
6160,-0.052915045228608674,0.03908857432035897,0.292440162137338,74.24626929431749,57.70373743054568,73.62819663566414,99.53818847667019
6180,0.007242806911948101,-0.0686964238398972,0.34323530850619943,76.20179309263784,66.89037037448611,95.58483728292654,99.57081902343803
6200,-0.009743674999803564,0.020724631441710193,0.43556926870645424,70.43148286251622,92.29059980072681,66.59691525433874,99.53463244956784
6220,0.03964755183165965,0.01787783844382042,0.26126074860046317,76.9152242486111,79.77263816592232,91.51677158695213,99.57612436619327
6240,0.0788321289182305,0.06138119640170428,0.39086383000072805,72.61614348227397,54.91829248839835,72.99443351336704,99.53479895574267
6260,0.08036123280009919,-0.03499395941014361,0.4017644529521587,74.83940902718132,86.89475967797226,97.27830455325012,99.51174670235554
6280,-0.03012338902581442,0.023187357503281988,0.37703395242166915,65.25518802232385,90.65298578773833,86.96342487664641,99.57481030451821
6300,0.022081398707902815,-0.019164121935953744,0.30147105393932355,69.30108709475358,80.02045967921282,79.80346651122613,99.54940591202148
6320,-0.015118216269435457,-0.05131770418266438,0.39432323948823295,48.62801830403652,68.23684631676585,107.05381930576613,99.56548757854796
6340,0.0546730806792071,0.011361530991634759,0.4037164148928174,55.647791958898225,83.01617918842881,96.87041345981942,99.549770209386
6360,-0.009473087350822553,0.0312268947875282,0.34480167402764883,99.83197007671478,77.22586299285283,60.268715294771965,99.54683921813525
6380,0.03127893632350318,-0.030406177696835925,0.30767928948737727,79.91084615229236,62.781413072036685,76.77538962667298,99.5412461668152
6400,0.05512086425191947,0.0021410275598635945,0.3107363346107782,79.8077420517137,86.52201800605792,104.08168737733729,99.56906762514069
6420,-0.023632668522514437,0.05335292346933149,0.37965265065852655,82.9014321359039,101.75874725331825,81.17871872788095,99.52561831617834
6440,0.015964798233480314,0.0327217583687869,0.3464171421987658,75.71502301020263,83.41387515343126,67.45183751657149,99.58329800363029
6460,-0.02614170564653639,0.08472100748727754,0.2733728406745246,61.08026299522855,74.21764325138105,63.75020975867637,99.57119497853415
6480,0.027855944871329003,0.030353321680297796,0.3027119311851488,74.95194113606321,79.71796044767115,66.70146963072713,99.51561039311669
6500,0.03114514325220008,0.07361166676843438,0.3077599279312537,93.43902469386228,54.775761405310625,78.10924038791147,99.55263014810932
6520,-0.06074130625941428,-0.04880145175142517,0.4162348856059787,82.32605143797139,85.4949795687463,84.57775095427168,99.53247566441068
6540,0.11113591224208835,-0.04623763946273275,0.4028131939033987,68.7107155086721,72.52602036254615,69.03041845298586,99.51208599800027
6560,0.05036761815126665,0.017532993007163416,0.3994680458695813,81.48458873143467,63.51891055487051,91.17922076168334,99.56562875249467
6580,-0.05000900961563426,0.014001519497786911,0.3481431720319086,54.80498475761817,64.7654795196849,83.93115894771582,99.55991182416483
6600,-0.07187003385469977,0.019582008801666533,0.3313960268946671,98.96534497961694,82.84299570230455,73.21667846933032,99.5278454893869
6620,0.0027453557228496,0.05972528424198829,0.31807142170460945,57.99457091220103,61.30833302037396,74.87293957963394,99.56011991954786
6640,0.0010204254138714054,-0.01204808491803948,0.3385844915663543,91.08393548500221,73.57448080762786,91.20196083143192,99.53716901912973
6660,-0.05494700070564634,0.03710719210724655,0.2769030523795156,122.02105499001968,84.16951743096875,75.29626270636994,99.56590725603809
6680,-0.06396308681640396,0.005119827462980887,0.37906815474920474,88.63832286156354,67.34646663986902,74.40970672754743,99.53925466287559
6700,-0.05678614254515109,-0.014925598744020186,0.31279341429519986,72.61886350101058,78.89485466404354,72.1534855809514,99.52497002941267
6720,0.020607602505083655,0.012072047992291099,0.33036700900281923,70.10710088239588,83.94034310620702,73.44642072458815,99.57723029097596
6740,-0.054067216274143674,0.011505802680861495,0.23248216804364258,66.6578993026563,87.98166935943502,79.21203900459265,99.51988330560653
6760,-0.0024124355913176443,0.04662734993014626,0.30919697432503396,72.60973784339683,70.31163701291858,98.2205651359808,99.51980851825242
6780,-0.04187259137309048,0.04755253201445175,0.32222641178877637,93.5790725708607,70.66537843954582,73.49722106349151,99.55383220431202
6800,0.04211655610151241,0.025400540742828583,0.3295135660896659,89.10027008968837,87.21035210836553,71.06924047427955,99.5888124554463
6820,0.08231364880751897,0.034792032434033476,0.341181726395079,84.3548577753833,85.27312092846316,83.48520684390876,99.51132559337496
6840,0.011202198630783339,-0.04294250541018286,0.4386451899954792,81.93752159946803,79.86663036908854,76.10054091155291,99.54274028646459
6860,0.05889521544418679,-0.04609281962073841,0.3498784338289944,108.32840957185991,74.52807259222716,105.35687263072722,99.57486914262068
6880,-0.016848178294432716,0.0001858344624175391,0.32572305995372886,76.35618930394092,88.56653968975218,83.87519701523902,99.54629505096635
6900,0.011076097721385177,-0.0021431435636704863,0.3786597043973483,85.63626837056296,86.37253327736549,67.25673775925875,99.53648214779308
6920,0.052409038509819296,0.010154741509946533,0.3863437534828006,73.30291790497182,75.51532585057669,80.54896020478864,99.56793589695904
6940,0.05624127913245835,-0.014556139637726765,0.34425163049059576,63.65016443462727,69.94805259243816,85.60867603396437,99.54633191978137
6960,0.04149982258028022,0.02505696036711737,0.32380710470223023,72.75594326530877,73.46107160622458,92.3861841680426,99.55942733933297
6980,-0.014278294327714228,0.0033638512485362447,0.35140013389715596,63.77014280331025,96.25996912374492,73.76356466840208,99.53686875301399
7000,0.03932702087105833,-0.02478943880571327,0.4799883439073104,79.21600973190542,71.51792655079986,80.92343846945111,99.54132330662604
7020,0.024796051544751996,-0.032265534795215205,0.36661467979670437,84.96418296964237,75.69755492481036,67.91519346400821,99.56286619564362
7040,0.1302818452123719,-0.005914229589179355,0.2689301552182748,96.40872129446181,77.00782515005919,75.04013978457488,99.52856866675036
7060,-0.023118677228575236,-0.07571864507910886,0.3801872062089303,75.41588642059773,79.35454747436984,77.20220592258255,99.5603504706271
7080,0.04230780500598809,-0.07765867850846013,0.3193592526051528,69.21721499463685,94.78178282977433,71.68295919473886,99.54041357626197
7100,-0.04484003334614387,-0.039572720692867935,0.43971722780496647,85.41808800508039,88.33806788053171,83.11408585996125,99.57272416934744
7120,-0.07011625104272627,-0.06880604742852033,0.3785111775918493,90.78757408663743,89.39248917348985,78.83876392150825,99.5403993330113
7140,0.034875122460029606,-0.02662761993896325,0.35851915791208316,67.46296141283808,111.85864260328026,101.77072199851018,99.51069831732518
7160,-0.04025677873629063,-0.04844620687387741,0.3715297889719762,77.80999070048415,87.25649158265433,70.69512292979275,99.57028629031312
7180,0.01327897942990525,-0.039647788235616765,0.3438659549444839,69.54111913977526,79.20859819250599,77.94954732939573,99.55094876749064
7200,0.07617580291816609,0.08220552188095698,0.3791618001001729,60.787042137351975,84.13826552829785,85.63912946620786,99.51633496453076
7220,0.01670347673517108,-0.034860554472251906,0.2910170786220794,80.34486138660844,91.58346180700245,61.71908715829334,99.55246802153057
7240,-0.021737866232033918,-0.03596034378044846,0.3489004734404571,76.61258200253992,70.90243304581254,80.62662059435722,99.51217456689979
7260,-0.032018852538625284,-0.014674333837398135,0.3189251514262151,92.67039428370309,70.42219814651085,72.20856196367278,99.57394644009158
7280,0.014578253017706723,-0.008622637645894852,0.3852972078916035,67.23281182397778,72.2433673051028,86.84989156670855,99.55742693401827
7300,0.0011562861167088198,0.004438830583779865,0.4271523066704467,75.04950750943448,87.47381195344333,62.72274905975013,99.52621766646561
7320,-0.04433218430447853,0.0826986254479824,0.31212186212749937,60.7067189508814,96.70830816273974,72.85348972906972,99.5438706936402
7340,-0.023564437927090967,-0.009563976255496941,0.3700848494157928,85.23381874002322,63.62906543134459,79.20322484237563,99.58692519693331
7360,-0.0038740520829992687,0.060821705265850595,0.2853230242226214,97.25813027160042,76.87574012795459,62.86450537001509,99.56397570459814
7380,-0.02945632448709345,0.00033816485181109216,0.3309101009242911,87.19310061903688,83.88175281193568,65.78300043807458,99.56179970425919
7400,-0.03307468666207638,-0.0007958591158097098,0.35998364062095306,85.06278501865316,78.88186283367135,82.76437601484218,99.5515354928175
7420,-0.05619928733449689,0.051234348094110815,0.31528534386197526,93.13127989108479,77.57476351169491,78.23107465897859,99.58130583784094
7440,0.0038507566840885682,0.04060788487290296,0.3449159125255059,86.04437721853014,68.3827452437075,82.68977062912359,99.5771810285848
7460,-0.03735596643670968,-0.017037929947300717,0.2834241353989938,96.37125985043005,79.5044537083059,80.7272466140567,99.56936534833186
7480,-0.026861169140686383,0.022203379955683517,0.3435058874907159,51.76257950560756,88.87075908107956,90.47672549096428,99.49996692922956
7500,0.05961404354958001,0.03834486485959998,0.3606538509536612,72.97544005666461,91.892427591423,100.62047747585729,99.55353455847508
7520,0.058582803564545274,0.006105463620626043,0.34799016320786075,100.30544208344537,92.05019484225002,92.8343242370415,99.57474507678495
7540,-0.04902176705736753,0.004479148200401478,0.2926193182307635,77.23445734877423,65.6570905645383,83.70957485262147,99.52267318603901
7560,0.0549244211493001,-0.05292319262493649,0.317921048774356,69.43933906355997,69.97347922990312,70.68140590673295,99.56856973858595
7580,-0.0014529483366816705,0.05225132712065042,0.3253618593018909,85.14138398380373,75.91157012073478,80.71431052093419,99.52698509305291
7600,0.07337170674578819,0.035162329946427345,0.40518303129403105,87.48120264098142,102.69605959459295,74.46926014849242,99.54608418320743
7620,0.0569662122418245,-0.07719397648000016,0.23955374568726961,98.10645120410348,103.42428131965158,69.81352613259816,99.55574086188386
7640,0.039119150545107,-0.015226576340230315,0.24290237381413837,59.90076378987723,77.59206525387461,66.8713299375624,99.55897015421142
7660,-0.05164739351071318,-0.11011886228231718,0.3108534621111385,80.89741611674741,102.32653149202557,58.35374557623214,99.57448531991653
7680,-0.06507496266520908,0.014339401573297965,0.43522726583722643,76.900224694425,99.6539041276491,67.69314055107188,99.55630202283932
7700,0.058809902588018395,-0.031665795088720056,0.2826009910186563,75.53607832221749,52.5710447623169,70.9788985214333,99.56265214231297
7720,-0.0600074605502382,0.10211577607213587,0.2681342965285332,87.41102658504883,102.28747400596629,64.01118103958535,99.53108753826332
7740,-0.07910061091765312,0.11895010041256818,0.38902325349830646,71.30040591560683,83.15103610352155,94.03394551107186,99.55324654554164
7760,-0.028988019229570307,-0.012392674090876285,0.29198178418050913,77.30941583276142,87.43729895640726,69.36471875220064,99.54302661270009
7780,-0.0217651887127599,0.02892448388551974,0.3272635255889979,74.9054762297917,75.40705773324044,84.81003395921799,99.55990508134553
7800,0.00284625995114228,-0.017824654393660107,0.3547329585463896,81.24971170471333,67.9868261853029,88.1108837096107,99.59279589770358
7820,0.022982847345310822,-0.01822669304755809,0.35553193030141755,81.20219145088392,77.20772332381178,69.78439718755781,99.54684524851496
7840,0.007719590595425756,-0.033999733166068656,0.24478413024971318,84.35505868178993,93.57296723249891,98.37576899389191,99.5496781218407
7860,0.015404367483186418,0.005735494430672751,0.3743237291837241,81.80366143916137,55.34007009898343,65.47342431270333,99.55213724773999
7880,-0.01560279897598784,-0.12950519878708744,0.36411186750274754,72.61865698337205,81.96209223172475,99.74381895475275,99.54583941714093
7900,0.05924089600884294,-0.04665262135226788,0.365463347999551,75.35165065166265,96.02693426755137,102.56433471257299,99.54046394433414
7920,-0.014690673602128732,-0.008616601115160879,0.401687126883445,78.40841822856711,53.678565995523996,72.81926377862676,99.55140314516719
7940,0.01725884482692432,0.026737455477547835,0.29455793311575584,77.65769045413727,89.62693442906368,73.07215597640291,99.59322411687747
7960,-0.043187594264296025,0.03744577132318675,0.30121598395095717,57.83702692419253,78.26281020370068,76.26893385097566,99.56702766264877
7980,0.018800444918200494,0.0190040331769953,0.28534642835426244,57.066519953419125,78.33566539079585,79.27815321084839,99.56219907093184
