timestamp_ms,acc_x,acc_y,acc_z,gyro_x,gyro_y,gyro_z,baro_m
0,-0.025362069518905895,0.07455300561307719,1.060886845276419,-7.117998481243701,-8.956629100938457,3.612506403210327,99.97862425206455
20,0.04451529655276595,-0.011231858965212518,0.9389466084658942,-5.502141475790079,2.5725758940231422,-13.827243229608982,99.97173909593032
40,-0.04889545087233459,0.04015699453040186,1.033188202604172,18.14925527597226,2.6585347515856186,11.785687690577982,99.97692631818555
60,-0.11227491765168812,0.04609103629070499,1.0169261717079745,-12.820643260313789,1.0324935362725987,12.286182245808071,100.04877582131853
80,-0.007632306083669317,-0.012240680528159515,1.044540242963878,14.171382141631064,-2.816759924633674,5.551562821052769,99.97039179474544
100,0.02807384293248283,0.027649132970627432,1.0138641140984668,-6.318815357308814,-5.264010591722612,-13.825177479306952,100.01578208372732
120,0.002222276468668202,0.004482902204485362,1.0278392491341017,3.2759191080722783,-9.180883462366676,-8.647726770928383,99.99508573508209
140,0.08233709500925618,0.02941892459862811,1.053813348941961,7.399269294538875,-5.9605822389127985,5.795787347058312,100.01317368354661
160,-0.0033335637309461017,0.041751194828533754,1.032579025647467,-19.038138649577256,4.354368642065755,13.778545963296784,99.96928462278467
180,0.0318419735077377,-0.03539432098460519,0.9662350865072233,7.951082232512466,2.1841482892415343,4.71357373382648,100.00448947050499
200,0.06902669275075589,0.029452345628223728,0.9269814084968918,-22.27715954979923,-6.520610787992054,28.68434318393846,100.02970715068687
220,0.002222681718258244,0.006742455072217913,1.0496066593096205,-24.89486617993569,7.855899995203349,16.833839166957347,100.01192483848425
240,-0.04080053844692816,-0.0752539099692526,1.0298314037121192,-10.191827827667415,3.0328672309099325,10.092157874128594,99.97492149060089
260,-0.028517172941733972,-0.01191831385684288,0.9899981274012423,-12.526179516863852,18.194148783862424,10.326986052630481,100.0140853416838
280,0.02901410688337255,0.0271095426492938,0.9121501609961875,-20.31507821232857,14.689672246541388,2.0191634151597038,100.00873536145521
300,0.0015829042513151982,0.00992761778085346,0.9761232201770026,2.0897404111906948,1.4835657960416484,-5.775815813432064,100.00541181654276
320,0.017743336564207898,0.0019905086255205223,0.9824837250789588,23.306202615005493,-9.806100104399256,1.9250070208578023,99.98413287178948
340,0.024329261523213425,-0.0025033596684144073,0.9797548427452892,20.013188961359525,8.376816662995076,15.079111126742587,100.00348541298807
360,0.01604699217884922,0.014269334771008835,0.956093624253498,-18.8945011232179,-11.838158191194076,17.447141555140682,100.00005275563693
380,0.058465706227713125,0.08003543642966071,1.1074762558603788,2.0290679498471684,-1.120898505346386,0.9514047911742851,99.9783564709383
400,0.09263543213136699,-0.026718752782935493,0.9547345738682945,-24.447284536098483,8.031785443036686,2.253623834531604,99.98325107380894
420,-0.06813913747207533,-0.032075050800382414,0.9562305986157356,15.037649263232026,-6.445613304251802,-3.1742140599753323,99.99028873322884
440,0.012387225993204638,0.03739212628728581,0.939633854058153,-6.441297637266629,2.7769486866399435,11.445600660646166,99.96474535021716
460,0.012289015306672105,0.043184328342104485,0.9970506125565226,13.29032713428969,6.69730768707336,-19.647511191488285,99.95722579315179
480,-0.049870981399629644,0.04033894009481658,1.0606270066269405,13.979670623429795,2.4636565865641487,-3.3591244161853147,99.97872777642552
500,0.02011652551433201,0.013322198224055684,0.9752864777763941,-5.482136060840149,3.2629444322573455,-6.291991960246971,99.99410450608434
520,-0.08058761710316553,0.009680465738273747,0.8642442525539066,4.592799983602393,7.116198754089461,2.6044296912129457,100.02214157815216
540,-0.012416242189482164,0.0966487089898334,0.9580640960096736,4.5145395959530275,-5.5251195297291655,-24.766128312259216,100.02695441178784
560,0.013058674787037353,0.06100592418709266,0.9922217622227024,-14.377733397037467,-15.81324948710887,11.215640726892433,99.99697269908292
580,-0.03569092859830206,-0.03708089616814155,0.9856921347648409,25.26436427472865,16.991510616922955,2.8374931977217637,100.02976713573683
600,0.11542140492161164,-0.04678012149673985,1.036220155119755,-1.0519357604694288,9.95805513431065,-8.231962073941592,100.01095379304718
620,-0.0623790508348262,-0.016293845929087364,1.0200446259832265,-18.241819766527758,-12.806339493170732,10.14321330100105,100.00770799809783
640,-0.10992858521395249,-0.004966121793018212,1.080518609235736,2.299368753608488,-20.179849354975385,-1.675101879375805,99.98870900767677
660,0.11356321305573405,-0.023815876194856738,0.946359216555152,10.68226915130539,-8.770969579708854,5.742982944065388,99.98903340980355
680,-0.06252352336194589,0.07688795719445622,0.9009380150081249,14.992699240003986,-16.397185161234937,-2.868966690638417,99.99179146170633
700,0.12048274009443714,-0.021476590479515698,1.0174909365025473,-3.2728315352007487,-11.194461466557676,7.860473292933012,99.99294773813283
720,-0.01889261249278091,-0.031281392225905987,1.1018778462809626,-17.030367717694496,-31.694041154685795,-16.383881316331475,100.03950978527493
740,0.01552404360806717,-0.03529548020388677,1.038907914989605,5.016767464871904,1.7199952366198041,-13.132319347869227,100.0330571476015
760,0.001045216545055821,-0.004203540505735899,0.9522828536330359,-7.996071610942895,-18.065854731956556,-8.639691703929657,100.01484244573986
780,0.04792091699848544,-0.12491068697265816,1.0086095380088431,11.887385171619542,7.492742104809538,-13.174510386883469,99.99907927482509
800,0.0030079607205576783,-0.08008718525457201,0.9963848170758972,21.388941928773505,1.6241831498617647,0.5399367076657426,99.97755761718821
820,0.013244806890899817,0.008843487254628054,0.9602046493995303,-3.9725502802465034,-11.368805747951248,-17.92779344754691,100.0164250124189
840,-0.027738873497915324,0.03246872717290314,0.9413927748247107,-19.04617429455292,-7.31848708132258,4.300475042073711,100.01180798879258
860,-0.08148204153716962,-0.007291853946173725,0.9968214290989273,15.54562247964886,0.8418149980484244,8.921349373782501,100.00992651248727
880,-0.08241237670210357,0.03364249371692531,0.9947782732293912,14.747415475069221,-18.998539715809784,-3.9315410106412134,100.01586723066906
900,0.06193026220126442,-0.037028772313268836,1.0383653142041611,-8.836932473551158,-0.7068977274211209,6.246893156990638,99.99962135513819
920,0.009288145732988484,-0.05239962211644899,1.0316607627207106,5.039950797402475,-6.123904834564064,-12.157769408437979,99.98375782836723
940,-0.13105002059046508,-0.07505931438579046,0.9588347837002605,1.0347788868387295,-18.002455172940785,3.330027587391006,99.99760135413506
960,-0.015925464056406154,0.0065606212762410205,0.9487005462528615,17.622400813773936,-22.303241227143666,-15.205717810976711,99.97743360222272
980,0.06168644568352826,0.08604700223623156,1.0221599709819469,-17.732231523707675,9.631059225064876,-1.7208166737566168,100.00506305372346
1000,-0.009632785144254068,-0.07657222099333123,1.066872633649462,-6.171197060310106,-22.040414151950735,-1.757559822142286,100.01274829781622
1020,0.014466049178709176,-0.022418729425956883,0.9454139840954376,-1.8576836964640764,-0.4680112917880615,-8.92882111236878,99.99760116576444
1040,0.001246104176136932,-0.08868473252440406,0.9907411151849953,-8.440326839691904,-7.723455637620425,0.43360961898489414,99.96224718120942
1060,0.027811163552707015,0.026885132660216873,1.0055145749523537,9.02072389863609,8.421505821201247,-0.648414692108114,100.03518565437862
1080,-0.0059207500338122505,0.0014694482507800661,1.0188020784832164,7.982445326915352,9.087923375440335,20.565907874714156,100.02016174009442
1100,0.04938260973580525,0.011713800117129454,0.9677101588089134,-3.4819099867608454,-11.282886635473957,11.785139973918135,100.0112378849242
1120,0.04886010748329738,0.021343164205918624,0.9601462466315814,1.2792560433428046,11.142327090808138,-7.1294412629990696,99.98960731353485
1140,-0.009949103595524044,0.01520670922299807,0.9655565484843457,8.77444965839215,3.5388910403203813,-20.753605024084095,100.02542385568402
1160,0.06790325744089734,0.025986452243421276,1.0090935131987961,18.427315227587663,-3.8283311900406196,10.324807606543928,100.02157116919453
1180,-0.022606164986799952,-0.0025908500515887537,1.018421907705719,2.8483866781670484,-12.072046793494767,-5.7949164349752325,100.00957013696245
1200,0.13441906682296187,0.02445113186411255,0.9290161392751022,-18.535482152302777,3.325880800508867,-24.765391838292686,100.02526381860709
1220,-0.05201945351594605,-0.04292343895360645,0.9825266015394096,15.922428429030731,-11.420897937812073,1.1986644374835123,99.94909230737149
1240,0.02719119958165748,0.11345903261703205,0.9337523697526366,-5.727533077478542,7.965465900247425,-2.321117551785921,100.01401245693069
1260,0.0607525927309904,-0.00701321605010552,1.0904694047905332,36.36647142714899,6.983320259179246,-8.234469627913482,99.99996442464086
1280,0.048161896445034685,0.06480894388832614,0.9302267093349772,1.0163081000130996,-9.638778752333508,30.373132977143207,100.00151612431415
1300,-0.03132239867988964,0.03480861190985884,1.0247431538544918,-16.05778550940924,10.248065742489356,2.7061289638848827,100.00300150170251
1320,0.015336481391445184,0.0212498485861687,1.0350825117803066,3.3356200884679836,3.093139181700533,-4.483777949365907,100.02007040544378
1340,0.02638631464859353,0.03040990742995064,1.017775567396533,-13.006553997622415,4.279834165929462,-2.379113305243221,99.98346306554319
1360,0.03503384994544038,-0.03902526686284179,1.0590793552636875,-23.27993420923619,-13.115174116314044,15.24972971821542,100.01971967096584
1380,0.03362320108228423,-0.03140557787581624,0.9676659594195137,-13.901328102055203,-3.8687748148847607,-0.6383239810317319,99.97626735464736
1400,0.027310449277980153,0.026066461690841477,1.0806633133573478,2.6083685751531944,19.4167387311879,8.648978323999243,100.0053504308125
1420,0.0438925271527171,-0.07291935831188788,1.0372334719374066,22.875491458466914,-28.44102309027417,7.457061799872929,100.0517282019351
1440,-0.06176610475489436,0.05110527401609451,0.9891563508207607,4.996068599448537,11.910774032629842,-1.3961073397375978,99.98068278253464
1460,0.015493386251404583,0.10174842816910717,0.9475627983767818,-7.273312333515454,-9.665236689847394,-4.12135815045197,100.01077281307082
1480,-0.025743096106508975,0.029421818722616795,1.0513480949278569,-3.6271087364994496,7.751927104320014,10.636728207846348,100.03998567432575
1500,-0.08885080779319528,0.0767558039203377,0.9112273131651507,7.694750772704175,21.732681777591097,-7.8754735438539,100.03064145983555
1520,0.05398831886119781,0.014458217606900562,0.9712083918363706,20.33885329433485,-22.1259687792681,-2.028127105848798,99.96785110213553
1540,-0.1169432797254249,-0.02909240766268873,1.0191816742769553,-2.2367121488354504,11.965302873021368,-3.9829743406721985,100.01483118981005
1560,0.014568683472867558,0.0772236761888595,0.9789316872447434,-20.338208683673525,15.5844808877821,10.77779668840439,99.99740912759752
1580,-0.01801332466760865,-0.07937503704564822,1.0124610371471494,-3.3961958661127425,10.239048452928568,21.15067730760392,99.93997513135368
1600,0.03761547162357123,-0.011125861305099946,0.9827324773890592,0.09182559723065307,2.0741100476110956,-13.76129087364696,100.00267777356562
1620,-0.025446302017969182,-0.006025529855175246,1.0707641932065628,-14.857723385197492,0.3827328465274197,16.744194702395653,99.99525030679953
1640,0.06944607031826333,-0.02001398905875211,0.9526853045182777,-12.25375789735519,5.09131688297379,-8.305081478583423,100.02535966404724
1660,-0.03555877955037281,0.008676918578941956,0.9917611864315987,20.468958498139834,-13.486956555767076,-19.7368455402127,99.98182841988347
1680,0.04527617051660452,0.05376223507388109,1.0455883828003247,3.5466634920802402,2.927737771618077,-27.809704102337477,99.9901773413042
1700,-0.07094336547118375,0.1222101869283337,0.9409831750654485,0.41490666974746904,-9.063411268725165,1.928918602119804,99.95739531966271
1720,0.04440114944998446,0.08384894241208768,0.9649213568521704,-9.528636340046894,-4.9296686659706435,15.24911980344882,99.99473549375124
1740,0.00011577633925285958,0.02699021233972866,1.0927386096262446,27.623683639244963,9.573773294113334,15.027551015342667,99.9954114323389
1760,-0.024842102604715782,0.025465590821724334,0.9872722477010292,-5.826058368679863,-9.150937743450601,-7.654569870059577,100.00871599049118
1780,0.029818717840321904,0.061105634922796075,1.0055230478630286,-11.268131074671572,-0.11481652931994349,41.69634751475478,100.03290811914472
1800,0.010365048643395176,0.06427846265398918,0.9821136098208816,6.7629125391107365,-9.984844327432144,4.2127871738342,99.98471166975804
1820,-0.10296209718229699,0.019049140714574697,0.9741264554516506,-3.337424191080459,14.111345204478305,-18.789327078090288,99.9555734441781
1840,0.08709647310518724,0.033589283731644985,0.964730038524267,2.4772897295621776,4.01527812976991,4.535159137742924,100.01677114908253
1860,0.02112749631911233,-0.014093424143780762,1.0196174980947978,-11.368433813070085,-10.134255463351193,-7.360585942871863,100.0096183701821
1880,0.03410249769032941,0.026143255079106177,1.034938033367158,-15.939173461686787,-25.958899666368787,9.197277536000914,100.01069800661688
1900,0.02882156630508429,0.03052986160390247,1.0742128003202012,3.1600056357675044,-2.9903959503206354,-1.723830430978805,99.97333224205785
1920,0.019637745900550077,-0.112810902701424,1.0724387327958675,0.6883463256467697,-2.8431187659861132,-7.903496392901088,100.00693243312082
1940,-0.06292018320433194,-0.029257020140291797,1.0009647728393525,4.820954359415648,-10.706289894725508,-16.89223562560185,100.01384792112826
1960,-0.10348837599518393,-0.019649319890391734,0.9633444966964713,11.569463790578197,11.374880934192124,8.406799973900267,100.03232019517111
1980,0.0287782505699627,0.02390163152193946,1.04025137258862,13.159574664604616,-1.0197638180915416,-8.00975089739206,100.00988276593337
2000,-0.06439374002812345,-0.035433708758410835,0.9906207807543574,-13.110791220308457,-1.995316817432979,-13.383276890069535,99.99932634521116
2020,-0.014648634725324843,0.01276952028868169,1.0067017869509778,-3.813297049651271,-20.695570918722158,14.242564868915021,100.00186681545448
2040,0.040499629742896434,0.015074006583155171,0.979482957849721,-22.639175289252247,-7.671098877670987,1.3413222083975276,99.99386116043213
2060,0.021251841711673797,-0.016830734414456705,1.0024537754491432,-6.397610471775652,-22.26087707833175,-9.705128565152986,100.00275445247992
2080,0.0399431366282429,0.0718904837609816,1.0372508603000588,-5.8719001556660775,7.374965590133092,-8.783749509454031,100.02683558975457
2100,0.07322451254022297,-0.0332977987619421,0.9767955106452264,7.629163326571826,-0.4526781026689179,3.0505599783954174,100.00776784467145
2120,-0.03245850063798924,0.05581385821252393,1.0604183668782123,-1.8493244711270962,-26.842885912434046,-2.4448580207901567,100.03042967854351
2140,-0.020463597113631424,-0.07737362891286988,0.9023226816878803,11.167772995392056,-4.974171305852721,-14.800062194048934,100.01001562729773
2160,-0.029010719094880177,0.11225175959365691,1.0342569289134587,-2.991577905073618,5.089484092720866,2.631409055366667,99.97865029070614
2180,-0.014008143039062804,-0.04389853573791676,1.1545685046077283,0.8262557110978695,-19.22841384393601,-10.186871267339276,100.00571290045258
2200,-0.04758165143562974,-0.04997211508481998,0.973572375750079,9.087225406699146,4.878267238625086,-6.037757316395035,100.0156238516482
2220,0.11938851188769761,-0.02017437126292411,0.9909796645623951,-18.391965349189547,-8.776899206254742,-7.061942911376461,100.01948874560574
2240,-0.006357408805747821,0.035318454496092826,1.024509846371252,7.865125607914886,2.297339285691012,11.722163620962581,100.00629232701522
2260,-0.02232159394234451,0.06074454954215103,1.0485088687180828,3.425165814272825,4.9043684868525625,20.270798417125988,100.00192477198205
2280,-0.055273677873172194,0.01832205492226628,1.0086346047889367,-20.629466625522316,12.315451125327511,-1.6717657554755165,100.02065264204764
2300,0.039882244976455046,-0.013820230813246737,0.9410661150572647,-3.643008326974301,-19.12724377075298,-1.0124150072842708,99.9740532275829
2320,0.0011885720613916831,-0.030330387238252488,1.0006507045428235,-6.901625844904615,-13.539843790103589,17.276166460556652,100.01913041786875
2340,-0.031136259277648227,0.016939740728533548,1.0064242137885793,-1.384631655054687,6.4360030054120205,-19.924100993674553,99.98191957374193
2360,-0.047061714246209516,-0.029840673365430965,1.1012183672791003,-8.531711406313939,25.026231309442423,-10.780201376183914,100.01888783887591
2380,-0.004646355170794308,0.056487808901065854,1.0182206269096248,-13.97014152834397,-1.6943419075403625,-5.499951653162382,100.01090436631529
2400,-0.00285517140758136,0.020142443396029955,1.080671258538142,5.3879970785994304,11.685682615916175,4.980094767527071,99.9847567490149
2420,-0.034918530462074535,0.029500522794647904,0.9854196461416689,-8.728515178695687,8.182414681663733,12.337902008019585,99.99354603742913
2440,-0.0492686573825715,0.038607525474410515,1.032484048174842,4.682829186037603,-12.229728496406828,1.2888369598774347,100.02155713816198
2460,0.004393106393656548,-0.012353959403056135,1.0845621786574462,-5.449670559628242,3.42538838958887,-7.275121482366812,99.99267881282613
2480,-0.012534230342666989,-0.01623441251996618,0.8839963487886727,-13.39094108800548,2.08349605155421,4.742543307930443,99.97290849890177
2500,-0.08281481663673716,0.03658040074982246,0.9357814206394237,-4.208728328792379,-16.6313172820299,6.518487569208007,99.98023742100985
2520,0.06020987541555839,0.05797939468576884,0.9024575781283934,11.248486133121714,1.5918521056437904,13.318938409055354,99.5709369577738
2540,-0.039077698662507675,-0.011794345469502587,1.0676605756323327,-8.549318983182703,-10.267159408834566,13.654939754575066,99.56991952399758
2560,-0.03678469010169405,-0.0097017937557828,0.9497252066571619,-0.141896970360025,20.243108977625116,0.12102442483359807,99.58806627156336
2580,0.004636928223436867,0.09788785480999926,1.070861129190716,3.886420444279926,19.251297985927877,-14.882578713008453,99.58001963982538
2600,-0.026649919818248435,0.00456408668215872,0.9596971926588574,9.676318329964491,3.431297582680222,4.3610098212922415,99.54551135530372
2620,0.00839781865840755,-0.02937080450390115,0.35077479962536295,53.82241224135666,87.46897043133175,74.88730139675512,99.55814081881005
2640,-0.027228574164541792,-0.0019035164264090043,0.33954866177841153,73.10871983857422,86.35676930145706,75.6004673878963,99.5505198078579
2660,-0.05534239719288906,0.04183837786079259,0.33442844879396744,74.899506446287,71.7472859592074,76.28759715358176,99.57400121533567
2680,-0.05459320138526019,0.07817511609989321,0.3557383819533476,76.19912658919654,72.2368866917865,78.37710072973597,99.56344054235275
2700,0.040499804977663714,0.020205578891496424,0.35810848970130826,87.05648271118685,60.87331587196917,72.84117841469589,99.5405560741555
2720,-0.05244790870807378,0.03185359676906205,0.30213534282090626,76.48550242543084,88.12069868528975,76.70047978422706,99.52562284402005
2740,-0.02807001443625422,0.047750781861676465,0.36510930882878134,92.61874106344823,71.59287365862144,104.58388100468434,99.57763979653708
2760,-0.011457207422516715,0.013705348144232066,0.23724357635540005,91.29931565464473,101.63154080310528,80.40188461519865,99.5626163664957
2780,-0.004261105318165943,0.06750551522216207,0.30444328142852217,80.66634284042593,92.70464920942399,59.126214863829425,99.56615480753209
2800,-0.0564505400310911,-0.03048545389465014,0.320291177797776,71.19139173075857,87.62056291569174,93.11231074002362,99.53631301769676
2820,-0.06667929974986252,-0.053957074034377966,0.31675268472783485,78.1830549117484,63.25996114068661,76.14200289416594,99.56155238215506
2840,-0.07810073773153169,0.024227674551726905,0.2541825609872615,82.14391912776875,74.87828202974788,67.18372873523386,99.54314818381634
2860,-0.0008435735375533368,-0.08164420453133175,0.4445675431252054,93.47882529786074,55.511857896504914,73.17393497293206,99.55059052371469
2880,0.08227547839795886,-0.09939067426611202,0.2549480229868925,75.89966911363427,86.52294381773562,72.33573595650036,99.5409049858981
2900,-0.022107908554830812,-0.025172455260206356,0.3243240402931735,85.51480606375921,74.10693035776659,73.60711456894917,99.550189415183
2920,-0.0217699771230491,0.08195509146871226,0.3851900601251474,94.95176319940609,60.64810707993591,82.7745036769849,99.52019453894133
2940,-0.06393261279686725,-0.012419933760305127,0.23057381977395108,80.40119575215147,86.71778298529779,74.48643285784043,99.52169571331868
2960,0.027618355613894908,0.023135591520473064,0.43703692446210707,70.55782674022477,81.36980303075448,91.85336007915785,99.56281501174122
2980,0.06869585664326573,-0.03369491988748037,0.41705525123337367,105.72662258640877,85.91535569301725,74.62589515684337,99.55051828142942
3000,-0.059929795981716605,0.012984320137874338,0.35631147512102335,78.660360204051,72.19997336095355,85.82019654621014,99.56487870752957
3020,-0.023259143714581494,0.044753394812449956,0.4093014374739171,70.72414266989463,76.60134676484859,89.31839650413949,99.57743180638539
3040,-0.06011409160141175,0.05559330729971086,0.3187659864371871,54.266786900338474,79.97271941022099,76.41184783194134,99.54276640386341
3060,0.07635440962204965,0.05497056805574677,0.4173105418849936,87.97876371732889,81.45363039663563,80.97571089547128,99.55768541769791
3080,0.04540163567831358,-0.0069919553958919176,0.36004375848382386,85.76381280350866,79.78011112571009,70.39209484197016,99.54233745384077
3100,0.043211889894594846,0.04774749719510572,0.3711514981169835,69.98703130215398,83.0274409614687,77.40729454191133,99.57827160267247
3120,-0.036735023421342876,0.018025420533915516,0.3650617538643586,85.73049149061248,73.88332640023154,78.12895896000951,99.5501422174857
3140,0.012812150984295901,0.0573376268217518,0.3071036101240979,97.03874677955568,65.82381259432168,68.09822704438372,99.57567083963103
3160,-0.013989554789051312,0.0061699120589617795,0.3929825589106676,93.42495223024451,74.47655456146119,97.21911893581434,99.56369965900505
3180,0.04567128120387188,-0.07851798694346013,0.2696117188332174,74.72389319981774,50.971725578844136,58.65956075293745,99.56787296189034
3200,0.022721175434751648,0.0361567415267851,0.37145884229962534,85.77051927159343,86.03753973041212,77.16866922459081,99.54869975416014
3220,0.009360875689681752,0.0003136565187770949,0.3295733331572264,64.70870372524108,79.55979664686389,70.76541557140094,99.55794898333345
3240,-0.05160527973987773,-0.07250502575679503,0.32058275957742155,94.17771847406206,72.76552953681549,95.02662015220149,99.56629571203811
3260,-0.03128547211748212,0.018609999998084423,0.3759177274093478,66.7700345748254,85.86351341781663,85.94879173125373,99.59312189565003
3280,-0.03193349898507662,0.005966465666958104,0.34835285584826226,77.22068053426409,64.78703332046587,74.80236653221006,99.5460137805046
3300,0.015299839516335659,-0.05600799338421392,0.32165125415809503,73.793488203256,93.68791633641649,90.23854945151068,99.53183121947978
3320,-0.02217444339097948,0.0036122529554662576,0.3473490800574091,85.31015452057335,81.9035226979217,68.02178661793069,99.53524258398956
3340,0.010788786332519576,0.010731732515068036,0.3320120599758806,93.14069459449514,80.48796511724439,69.40105673764499,99.58304139249937
3360,0.05466300727271376,0.11350013383512647,0.38271720356333055,75.29267464976161,95.54033833008963,59.02550735761002,99.53274922262348
3380,0.0045004761076009175,-0.030560340936354513,0.30304299842121696,88.95361088514458,75.47175873365877,81.04692598737196,99.56752225423443
3400,0.0017862507110935806,0.022869345569772243,0.3138643824378786,58.195189144028426,81.1736753046924,78.9637426566126,99.53795016232402
3420,0.06595342395752979,0.01535697972676502,0.37527223873877125,87.23336136374847,81.94092611300616,87.23613713002979,99.56136586397987
3440,-0.03316845040712879,-0.025241872463425248,0.410333031773387,64.0936535617448,66.09328074900546,65.65065658713507,99.55245950500023
3460,0.0693511472138265,0.10312168865057665,0.347131489460519,97.41789033450462,76.35044146317233,55.016830335663116,99.56051320874535
3480,-0.047529737433906455,0.030627771236775455,0.2722501225116903,80.63519082360803,73.6510705539944,66.18519716763649,99.5158955588027
3500,-0.05781288616383201,0.06002805310361079,0.35869513894353033,70.16025471983369,90.26681176295575,89.44796292102534,99.56242431496749
3520,0.12318448973861802,0.01430190319248017,0.3521343814864416,92.12445393347436,69.05631444344526,75.61516159412491,99.56251657494376
3540,-0.04105466769769217,-0.029283621602592475,0.35916694447246084,93.49798845655695,93.37931279230733,79.25471802018784,99.52108760227539
3560,0.02605420455079968,0.03474425112388211,0.31187901626679737,83.59819573015463,87.8532967681477,69.24312688288568,99.55168129270506
3580,-0.013428680406998418,0.0025748986215978972,0.3476739150705921,83.1470077602206,89.63897537409265,93.81011611805337,99.519423987027
3600,0.0009787732973737036,0.000656982137939264,0.40309627109639906,86.55839387024146,70.34304303566338,88.93835512534963,99.5342868104273
3620,-0.061378065684665695,0.03167897135003512,0.4359286160561694,105.54811450675447,68.13867953667166,77.10285561860778,99.54927893652031
3640,0.0050015176113440895,0.10269485249472743,0.37599045856152274,64.25670697371439,53.21433285511691,68.19993419654168,99.56484818623501
3660,0.12336432487624133,-0.04552954158230547,0.3398833443750479,82.8034832695945,94.79477786540222,88.19452993164991,99.5582863627041
3680,0.013581914293690892,0.011823463178484607,0.34119719859517905,47.35415295804508,60.91317189481264,77.01894681013003,99.49570617325452
3700,0.11511491432477863,-0.03150062023010766,0.35670003307658105,59.99408311107883,87.39486675425098,94.81923808350656,99.53971752393716
3720,-0.08923869109004759,0.004457760075754004,0.3278286008052911,91.50559152938418,75.12105453085441,69.06717384463124,99.5310914987637
3740,-0.11913938213040652,0.03768585187297606,0.32532882047024747,100.42510323456054,79.39567043610325,86.18587869604445,99.5450714698532
3760,0.06028976168960037,0.04581326430866035,0.3576918580547764,62.36412792024232,69.97486012240823,74.09389775530579,99.5380313042265
3780,0.047149679908127684,-0.008104262267294061,0.376013764582411,82.67772877886007,84.58067834743883,86.36340760026604,99.57607909570802
3800,-0.007362865493490771,0.01650614401929255,0.3553718849685226,71.96440249448497,98.45237392629431,87.60639982261158,99.53811405460976
3820,-0.006614772433000189,-0.037319054704785026,0.2957423961638191,89.41877638545286,64.65370703508661,53.680562421083934,99.54414995980768
3840,0.00878548286604854,-0.00353514712239496,0.4562994174651628,83.46463376796112,73.75588245782791,74.56670892586638,99.54109741956543
3860,-0.07551580766390978,0.009603233265487022,0.3235655505817202,81.28688520644467,74.51166742945408,72.84935234805648,99.56855745101343
3880,-0.00902829401873234,-0.047581465522125665,0.41110518629329507,76.56354478523575,70.04488497006504,75.6351579377941,99.57312526778396
3900,0.01710885507901207,-0.004175605724444152,0.37632453919559405,73.49279165427853,79.1528436279311,69.6081321397041,99.56163960753504
3920,-0.025745791186768275,0.03827992249758873,0.3307497560281445,60.358794140804086,91.35600241073149,79.33986685648023,99.58951931607838
3940,-0.015575891852281157,-0.08418172291843373,0.35967928451717857,88.27612905035292,50.683363200908545,90.53870244770391,99.5417191922596
3960,0.019763104311920035,-0.02966220541440799,0.4236634459999708,74.12804551715384,93.05774964920514,75.07025087378823,99.54816511349613
3980,0.017707794643312694,0.11699492772221871,0.37781450444999926,90.95768429568449,83.54506235894344,76.00936139171176,99.54410835434793
4000,-0.027296256352278465,-0.04528909916004296,0.30654143675566903,70.40053607696576,96.71505521437213,73.43379269257085,99.5258873204456
4019,0.027081032190076015,0.002269858002492089,0.38464288385333817,79.93214296800923,72.31143851230172,67.15324704676816,99.52563155027455
4040,-0.09527503349469413,0.058643189098411985,0.320847289384916,62.58396857398674,83.84170006798671,71.50808118662768,99.55705095087416
4059,-0.10863651221795156,0.024257899509504893,0.28856004506478006,88.16804655687443,80.37209631144381,72.0406754316904,99.53922499051302
4080,-0.028613528250092862,0.054847751174345684,0.38925156739132183,89.03832071576255,80.39399159720037,59.15066964444782,99.51754980090048
4100,-0.009124694126097729,0.008055701168732728,0.3864280072266443,73.11652984555597,80.13083505645791,83.42913749998203,99.56760527747053
4120,-0.027801472280714487,-0.08852612031700482,0.3262261802095694,86.4330969332815,77.17359117481563,85.21226643769465,99.56432499069334
4140,-0.03944914206829363,0.05120705589156328,0.30472327758906226,75.39337642601058,80.54695284901284,73.53520227946984,99.51147031221915
4160,0.07566462740360835,0.013502991338656477,0.3693236471808175,82.9535567482951,78.5283039151994,69.23164357649011,99.50995034221323
4180,0.02087568931151681,-0.00828303920820178,0.2718400546809613,94.01271251136917,81.62810343676824,61.19980334506862,99.56387802533615
4200,-0.02155577542967867,0.12266051947557516,0.29876343596720134,93.60039807941645,94.10760709027807,70.24060598124422,99.56490574815315
4220,-0.06419625201297739,-0.03457887307552791,0.369279964405768,90.08982796627515,96.32716100821136,111.60116701705947,99.53627528341674
4240,0.02640298351869126,-0.07659472157685014,0.3752748929593231,75.6918264176691,85.53174471452512,91.67034398248038,99.54117014668498
4260,0.05528883482643259,0.04104432468816862,0.2950862093830233,58.41967507653159,67.09549979589985,60.06498711068893,99.53555886213049
4280,-0.03465919044242741,-0.018737467144331534,0.26183616166503015,73.49632093933357,73.09921862364489,79.3434306809937,99.5240996487523
4300,-0.023996235525757626,-0.09339345102704444,0.38186625212451514,76.13534534438713,73.2218123800105,89.97707163092431,99.55516424557312
4320,-0.04637743657601156,-0.036068674207999626,0.3933112392666783,71.94550293780819,96.33836327191511,86.83449484162844,99.55602936221071
4340,0.06182666616868135,-0.05607076639915781,0.3421740508474008,80.32518704861653,66.6249361358085,77.87516390768555,99.55265640642699
4360,0.04991240118247391,0.04125625887366103,0.3997550831424529,92.40671799354847,66.93504973385816,74.82869755905713,99.53257960471977
4380,0.12536896355381463,-0.08934011557586582,0.29141151804779863,75.19575932660662,72.56913146706952,104.46857098295077,99.5424773966269
4400,-0.08244532989759376,-0.019007066681822234,0.29224904259977164,84.27943347337262,91.82302971475582,94.50921784593193,99.54477143429565
4420,0.02902368817030637,0.02404192292692366,0.3068963567254008,78.47340453699962,66.10427784002056,89.72248405231893,99.56432033916285
4440,-0.03405897961306826,-0.004291769907733815,0.3791921598018185,88.5493683044013,82.90842203031008,78.51557107064272,99.54403459519794
4460,0.02574269824117774,0.04210231225468566,0.40783027979435543,69.64898691205279,93.6148690861423,91.29889154641003,99.56872975930483
4480,0.0023807697378475158,-0.027901408972178993,0.3600244595299134,99.37571388568745,89.87714548325238,89.41752960072746,99.54201922813405
4500,0.005918157702206991,-0.030816039564435318,0.41204699397307176,81.26217947036064,83.5919718176906,72.23492450958238,99.57968534993748
4520,-0.06965025532810024,0.011713424037123991,0.42869512440366003,87.63851910555577,71.46739373320331,66.04548478387731,99.56426897704246
4540,0.04699705889087791,-0.044952903370881356,0.38608116200227943,61.7456591776652,75.11441139620713,96.46747671715698,99.53689945480771
4560,-0.0007339206116963402,0.013760452986571019,0.3907244103060039,93.39962896520186,83.65857551464171,56.076402126816006,99.52581318334194
4580,-0.08075952064397157,-0.14268711855043306,0.35683147679483923,81.19493454696043,91.82490519592503,71.94144344285246,99.56069215945503
4600,0.016281038295887156,0.015313074633463873,0.40291298602544035,73.49871090938083,70.17593064195599,98.50380302225116,99.56284715453604
4620,-0.013422329703422982,0.08344409367228693,0.28695630549312456,91.90811434976746,79.02983503754007,80.73525134048307,99.54847264111442
4640,-0.02125556970488663,0.06860034934857548,0.2889508672826828,92.26200757324365,104.93423054308434,74.69605748305074,99.5588648065659
4660,-0.016358551603242726,0.049623553077671856,0.41636549592080274,73.79832983539119,74.88746929546551,89.25029173955092,99.53774825440492
4680,-0.03194437141362414,-0.03059602425080927,0.41497290629285977,86.56476133622967,80.06260494588268,77.86731673813408,99.56428702358947
4700,0.03625491712785835,-0.03432350270798362,0.31035699480687307,59.10110357364182,72.1139245319389,57.36043104086998,99.53587587106617
4720,0.02837224363472329,-0.013948738533817107,0.43056819854292105,96.86961079601781,77.42328333781197,85.14726705828097,99.5525139141139
4740,0.015145622937333007,-0.02582022588521863,0.37890748248492995,87.93203185635596,92.44061447474378,75.72762362420487,99.5303673181715
4760,0.056213012379257715,-0.051623200673517014,0.35192558293837867,78.48624492816246,82.37664437165044,70.45492361596745,99.54056717653866
4780,-0.024925633393584626,0.06509374358774508,0.3616263856650363,89.27902437130605,99.15453252399928,76.77566347755177,99.53722490871624
4800,-0.030954243334657496,0.005107035532202777,0.3314051970858673,88.86156873110733,67.9217953107275,86.10488018393664,99.54034183574805
4820,0.005068536900852518,0.07586446400570371,0.31348595257009626,93.22060050399556,89.27309846384429,77.00625105392132,99.50500558806716
4840,-0.02237749482842516,0.04794168390526088,0.30467023091742806,72.86537191579835,82.78495665452658,89.8692211377818,99.54077672881668
4860,0.021720480235093556,0.07030489921172454,0.41557541776282836,76.2707684880607,103.30508529839179,76.50001009473118,99.5808259678458
4880,0.07389018433892791,-0.02751498345969934,0.31971335210489144,84.79726636351948,87.30398349688235,91.93623688262454,99.5437230243149
4900,0.07773532691941201,-0.01046506187545003,0.33516398494975336,106.69118297442084,91.40618497725487,80.48521479894,99.5414807493802
4920,0.0226763296966505,0.031205531303680364,0.39723954023732816,78.15566004289622,95.25743110502475,60.20692977490596,99.52543030955752
4940,-0.0060826488006158535,0.017328540644262775,0.3949704477290916,77.71838533229632,69.87368634347894,82.72186640037853,99.54384757837843
4960,-0.03621813382971212,-0.016599492277885257,0.4458872575173145,57.92673740830149,77.84331263555372,69.04489883359501,99.52088532210655
4980,0.08411312965533559,-0.004868896237326351,0.39244867225221136,102.69932631783576,98.60444074012165,94.50310649145626,99.54382413244373
5000,0.07933568143222217,-0.016937056950965115,0.3181206391470167,87.59695612931458,96.21905730961407,87.3142176473563,99.57975530581807
5020,-0.02105546740164438,-0.017445697312498277,0.3740409466808906,52.41684576096444,97.79128282673824,69.69359744116859,99.57321594436632
5040,-0.005783954670249232,0.06705990962780146,0.39384593054429695,93.07988526744626,100.54990891459121,97.13890163752677,99.51422748917116
5060,0.044798907712593594,-0.09736565213462312,0.3570056037710411,102.59351629784304,80.15432015831811,69.43693573914562,99.55126625357879
5080,0.02317996833493205,0.049617577982897315,0.2821606731352024,76.13490584671226,89.7265421440256,72.72139687820591,99.54458670338447
5100,-0.04211424258118476,-0.044799200170669184,0.3205474011138523,66.48209784241324,81.61192772915831,79.51769010557446,99.54990706180033
5120,-0.014316439474401272,0.005221152100301369,0.3314041408991742,76.49310537774608,63.94463670981562,86.06623065207197,99.55832342215083
5140,-0.02386041313527609,0.017860669468035873,0.32541905606574345,88.03963915427096,80.46939339001688,62.119661985840125,99.52791636581836
5160,-0.01859580069469668,-0.0681605032180693,0.3505486307261691,69.25758456047431,73.39845138934886,64.26596936910873,99.5575413239968
5180,-0.05351309002890186,0.021941810219473543,0.3478247014188205,73.51334239144279,74.91287314476112,93.41927723437597,99.56525170743936
5200,-0.06471153907903328,0.030078227458015135,0.3022450079249774,73.29497401951049,88.23514858465663,81.43913804654365,99.53056648714613
5220,-0.022179757448017385,-0.059797289744052275,0.34437639225911154,82.34942838439746,82.05797855615033,72.07188806545868,99.51464064964696
5240,-0.07975959592681245,0.007384425642045835,0.3505555447130023,72.05704858355017,88.01698245287498,95.5306169326559,99.53764110003146
5260,-0.05481058448963494,0.056095971170379524,0.3852487817162457,87.25097339463429,96.75633843441462,92.66222875496041,99.52246037416876
5280,-0.02967975808539441,-0.05373572029190193,0.36743882360358227,68.94284035402237,69.58104898204365,89.9959804339863,99.57660351311233
5300,0.018382800179202033,0.01791187578407422,0.330540997666822,84.93729868872553,84.11926938394488,71.60001617069564,99.52440486504412
5320,-0.029649486770235173,-0.03999360422820026,0.36664348525694984,63.05476843696126,66.59668452470812,94.73452952661629,99.54905488154617
5340,0.08596299971908371,0.035136378012655775,0.3007618667079383,65.71393983798566,47.18892710655987,82.69884301755023,99.54838000109622
5360,-0.04778569724874567,0.06254497386133094,0.3553887482067925,72.94637527792958,64.42391145562273,93.14866313839718,99.56403496188355
5380,-0.00680810442752186,0.03979661020197211,0.3363649334783356,58.94809014506097,99.64416970934649,87.31682156182957,99.5014703221944
5400,0.08098644519230384,0.08628703810873058,0.23350516739844324,75.82918711506744,75.40391267838723,76.99266960022442,99.54063334952819
5420,-0.0280084437112859,-0.06146941406522294,0.3390756382847335,82.44282163975689,68.3831126714788,66.97836757904967,99.53762060992999
5440,0.05284041541638893,-0.0008633619241041985,0.26242955005877855,67.45402062303745,83.5663130410519,74.72249814073773,99.55350152738143
5460,0.014497209779904409,-0.10159443896871137,0.3251827941018892,65.18229404410948,76.73585483684235,69.55517471110691,99.56450575234898
5480,-0.06153051199041968,0.010470881139633027,0.3681477053999202,77.91215159625726,87.47589893294449,89.74965818567696,99.55352196254398
5500,-0.008801970783672728,0.03729074495423866,0.27534113582086833,86.15571237127988,74.33452309507328,81.9712550499874,99.5774902957753
5520,-0.003646380796258449,-0.043739224264559284,0.38414036058164575,80.16820682858516,85.06616739910898,58.71820498283391,99.51661674355394
5540,-0.09014702280455592,-0.08948515307949773,0.40408055059510745,86.16117546789036,76.46139852247654,85.84578624250358,99.54970287140198
5560,-0.032506155261049996,0.023862212263142914,0.3795923357901622,91.16199723375394,78.6639949649415,77.41153587375419,99.53210354373648
5580,0.01200961984015228,-0.01793466804261087,0.42933637754805687,83.2869705098548,66.34224688181985,107.64941180964846,99.56427600872767
5600,-0.03340668165681293,0.028584812768663106,0.3922105376491122,85.29339096012487,76.6988028394982,86.09968006156474,99.56444562308656
5620,-0.05733830816795943,-0.03947801458536202,0.35666661565783775,79.38022111954012,75.76460605089068,47.207149296526644,99.55256575515934
5640,0.022055058429850838,0.010917472326558646,0.35874610258154105,63.271627231279425,87.51110942569963,76.17933293963299,99.54396816789276
5660,-0.057857485971345136,0.0511224987983946,0.3987478492089063,69.7124447987631,87.45150396801716,88.73674956749505,99.54584807061826
5680,0.03896455548545246,0.06403963708065881,0.34663573837912626,72.08508324967315,68.6533554881526,90.78596060907181,99.54727108195264
5700,0.05560658616673217,0.03127180645291348,0.3341244362011021,71.2860847917199,70.45878023804187,91.1932734105821,99.56835241645106
5720,-0.027531774416573125,0.0292525309470307,0.3377628153515885,76.89065515485952,85.08334282203575,108.5982511072969,99.54113781972018
5740,0.004579743945453735,-0.014279876765500191,0.3650875406776038,76.96558519337982,72.98829488428561,82.54589746066078,99.53216557583863
5760,-0.026920969210644394,-0.08252189347425998,0.27268976960034613,92.17403049684724,88.99990458040733,97.6972702119765,99.55484592297215
5780,0.09241438059427501,0.002148034044006524,0.3713753562991063,103.69525041819665,86.67428276110944,100.84891731454874,99.5785707100784
5800,0.026838038438142326,-0.0017339033115383769,0.34955919663132834,74.08544432385958,67.46115411492593,87.3656201467076,99.5577150872808
5820,0.07552770783844803,0.08816637438479141,0.33789745970285046,80.74000617763245,70.83505191377563,86.9725245496593,99.52228866834008
5840,0.0746571126491072,-0.06449160853214449,0.38720442996168014,78.57286979541463,82.19808218574238,69.44709057933343,99.54804778044736
5860,0.010773134231050906,0.05859113144900085,0.33937416750181654,70.45652733961,56.38208123227872,88.16280698724498,99.52342234590564
5880,0.023913747636445937,0.058098761393379876,0.3026644118500764,82.25227580161919,91.47032559280353,79.30459308578821,99.53465885985857
5900,0.02354297313907816,0.046998086054840287,0.35984900558101124,78.25524041060854,124.99509554161227,104.40235860146917,99.55572331619685
5920,-0.06908019782061227,0.002344172683726083,0.26681131323663726,78.17732879717968,79.11981573516894,76.29846612302184,99.57985078114541
5940,0.049006941132582596,0.013442612913834195,0.39152416102066084,91.22900924453691,85.16329030940175,82.23866612403235,99.5402502193948
5960,-0.062449227736437185,0.012075830349436874,0.3423379891268614,105.44050040264412,58.39617005589933,84.8643785662447,99.56792154688677
5980,0.10408247458463848,0.01620578067074472,0.3606362506752777,74.78517861039202,66.4372861547689,76.92428653366808,99.53172045409451
6000,-0.090776071203955,-0.030343954090680744,0.25270520316535416,100.80505834936312,75.55417241970439,86.90516400025622,99.56947504277369
6020,0.07643464159566249,0.07509439341531285,0.35875666041975324,79.1032083584055,84.90569734425121,101.74468531714501,99.56500213216232
6040,-0.0726066088977222,-0.01841989999655391,0.37948956397401806,82.75260165816357,92.66727214265457,77.22910335302352,99.55580002909225
6060,0.0034147750991886843,0.06785188789439402,0.3611841251480225,82.7740015125865,78.90643045588656,79.94423447868697,99.54756971685718
6080,0.04781645078379631,0.06513472242146955,0.3198797469536317,77.4838580897623,74.20612238143674,70.20274262252926,99.56432787784749
6100,0.004682466038183192,-0.02402419796576198,0.2841599142096649,73.49517395835876,85.9959523036663,71.51421280019315,99.52723985845135
6120,-0.02661845117783046,0.09406739699271736,0.39927031704582794,92.4791320094739,71.27457322121226,71.63446884042708,99.57273342304923
6140,0.03126426863261078,-0.05388040990280266,0.41332094550435816,74.65353511921889,76.77028314662567,62.771129897221186,99.54937826204917
6160,-0.00473802845886966,0.01989631803581797,0.33586818668235274,70.43442449866637,78.21288220693376,64.11408460286928,99.56332614809155
6180,0.006339650954063452,0.04925066243544001,0.36534792329423144,87.16338897474189,86.70048363615886,97.49875741030168,99.56674484962154
6200,0.07752243458546061,0.021781581774484082,0.3456162602840137,80.48551329365111,74.64807816381581,78.58758504774865,99.56687542020849
6220,0.027459920169478264,0.05612460116917365,0.37171080292409436,77.56559788945881,90.67097616720243,60.63744682647574,99.5617958656476
6240,0.0027313577621191553,0.09679334041687197,0.2709964341358103,78.21310359029641,77.44751178556744,77.4093459726717,99.5655199764624
6260,0.04240503268171694,0.008440343468820508,0.3412057499331944,70.38492226399109,87.16322249213596,53.41835730761235,99.57224096905284
6280,0.07592835977941048,-0.010044628684674022,0.31645675381291644,74.58083988156578,95.17519860068808,93.80445140399779,99.55663683493944
6300,-0.013226871158092951,-0.0011535845561650362,0.3834626651203209,96.12065569848116,63.90744538671994,76.92952906186608,99.57300774455611
6320,-0.03237119582759059,-0.03371983615631584,0.3218336860909874,76.26607659236754,88.66482117192652,80.28545958530394,99.56872901350643
6340,-0.08991080674393016,0.03625534735621037,0.35530984491410167,86.68723041503384,60.436586382156015,50.76233556868956,99.54014631529903
6360,0.04316422174428167,0.023764228311926282,0.38710377483757896,78.22264193147305,79.26057565481932,88.6564594050317,99.5626905050227
6380,-0.00015963096488188673,-0.031046176464626526,0.31594727317316895,84.23172737506998,43.32481567058541,81.43592242415374,99.5367587401143
6400,0.04175057764648332,0.030257855876940073,0.43224953068005306,73.1820880421067,100.60528161578952,79.25828421504717,99.57755703287597
6420,0.009725002951459458,0.06472605957919293,0.3101104335281054,86.13355569550279,90.77810348256843,80.91566879718535,99.55357022052097
6440,-0.0661712865712912,-0.06418081020055819,0.35760464854443114,71.42427235900351,97.74248002831123,91.54290938847909,99.52349080833564
6460,0.0018712131672575954,0.003433730793036903,0.3371159941411735,68.64397581834501,72.56750471257828,89.08018140598429,99.58029455061961
6480,0.021947221134382452,-0.10870284716093877,0.3387180778775588,79.44058323326486,95.60295555790213,70.4988057546073,99.52942735359598
6500,-0.019118973539379552,-0.012469989734628394,0.3606381361521631,68.182974137379,57.2680062650246,89.65500449248358,99.5577393912151
6520,0.015091759005470369,0.04408236041174541,0.35949757834475277,86.1012395077274,75.83624844975026,81.95646559666481,99.59443948829983
6540,-0.04258256763371877,-0.060733704078350194,0.3293238253531121,77.88723023557536,66.12682309106026,58.48541389713297,99.55524718622999
6560,0.0759315701550116,0.05228296488728551,0.3391733584475924,79.78525434901604,90.46067755722429,79.87183829179273,99.51180774535158
6580,0.05564985140840826,-0.07964884989709313,0.3258086590198945,72.00148756057541,72.03147037356473,98.27474345019438,99.57634771054445
6600,0.02596701051389242,-0.03462085858122885,0.39987918792787663,68.64485316320628,52.1164259602964,78.22748465676523,99.50339019380498
6620,0.041007840556205793,-0.01617716715491891,0.40700661443801334,73.63830743892703,86.28363697399213,72.98916924470065,99.53401984580701
6640,0.013122351273525547,0.06104886113515007,0.3417595870399224,76.26566180282416,106.50085894383582,90.12809359527957,99.53445818743262
6660,-0.05050394916772555,0.00795156316000304,0.27728888134364865,81.87840700463522,93.31253614666495,74.28144686790566,99.54419845248441
6680,-0.1428755026174982,0.023037024016703232,0.341933263140763,67.58568617653674,88.02159941758651,70.79012083141586,99.54412968588771
6700,0.011341346364956604,-0.06334157485382749,0.325436526636197,82.91894004435137,83.54585236942,77.5091849670817,99.52454705271019
6720,0.08629424459121426,-0.0167454067984709,0.326116299662246,67.82869048777681,63.17218925875667,79.69833764612494,99.55302175186705
6740,-0.04060014595462047,0.10337438678659172,0.3350308781277355,65.92624143326859,98.75363222819558,72.29572643596387,99.54547739975636
6760,-0.032590418090434274,-0.09438468935495146,0.3282817040854358,88.13473379888408,73.26932065639103,72.64992340348957,99.5228113273269
6780,0.04515448175753501,-0.1476594912395434,0.31302864305617506,103.68573228208692,99.60732128935214,85.41494772061688,99.5632422437509
6800,0.11619695531586936,-0.06623636591901562,0.3523484710592923,82.08364094590519,86.80153691113763,78.62666418661534,99.51141264286218
6820,-0.0005943374175345398,0.06335594432803957,0.324455960320902,71.31652004183674,77.39349651791069,88.29184120051585,99.54334344597946
6840,-0.0011874155364461785,-0.000831510297529421,0.4342058111803207,91.39933484630545,94.219896804418,77.57755406712549,99.57674619304281
6860,-0.02804127873483145,-0.0030502832228580566,0.3014231181434707,87.27811156354485,73.6586429583287,51.88956752015683,99.51326945734488
6880,0.08508986159720382,0.01743636355072144,0.39476794065647325,83.26082992096659,93.81005146441669,84.16978687297664,99.55167541004657
6900,0.007901063638825518,0.07963127799601301,0.3447396576638825,88.98446309245897,78.34058570002757,86.8863651354928,99.54061166525378
6920,-0.06380435691176481,-6.206726425425915e-05,0.2940423166770805,68.72653638873254,95.69271844056557,71.66641829694058,99.56098182310862
6940,-0.08746151822003197,-0.013362198529013374,0.3525616867522506,84.51793780659597,71.02393155941837,86.00473383342847,99.55278323729095
6960,-0.07537656262600717,-0.040636414314770206,0.3292852544504981,61.493589203973556,96.3574658079528,76.67448035093898,99.53486946193942
6980,0.04153540752418933,-0.024487284796590868,0.28792960379451504,86.4506123786617,78.07068411136875,73.52960848783653,99.54339326645791
7000,-0.02646076928815197,0.007991855935535476,0.38308062713512014,81.24736717497875,82.497971154806,90.27818274797714,99.55834362767622
7020,0.02850309075701334,0.05423326504737465,0.37640650195852315,86.99394802808654,79.40770053117933,69.70325405131132,99.55938444001804
7040,0.04838712183796729,-0.0407571228492999,0.36680498407584045,81.03495134762042,80.33953492000587,70.27983354479139,99.61674056400122
7060,0.1655553701164931,-0.05913802652284836,0.2956881152544132,81.84540344516218,70.86846391377163,62.48885588920018,99.59603953137601
7080,-0.02757304650962932,-0.02442695875840785,0.395981465687658,83.21320043714182,67.17218769572428,79.6443864193771,99.51899376144254
7100,0.06741655520465956,-0.048216276727671245,0.28514172141560107,68.96016830606277,82.90805107729621,84.12113811115901,99.55975955607296
7120,0.011596338433327049,-0.061047787624988116,0.40013641438911113,75.20675446552944,70.9076117089975,94.47711548972597,99.56423726824369
7140,0.11112563988657674,0.024661572142170865,0.38171786249634343,70.63034409559287,76.67459635596427,74.72765662116515,99.56055190001983
7160,-0.003910319985491242,0.07982092926711565,0.3390930959068169,59.59996140266168,72.97222611102185,97.23217649634991,99.59087752406573
7180,0.042801690445544216,0.005660682031605893,0.3367485716087486,73.68869485776153,84.14759586565191,79.09472894146491,99.5571583952225
7200,-0.020888046826275042,0.027163097247929147,0.35739208607888395,71.3319624824721,58.99893165263485,70.84407017015668,99.55616992059421
7220,0.03096157507958862,0.0011979433073305065,0.3719512480551377,94.32406164381273,76.11648366052563,79.4958993884983,99.55153937782336
7240,0.04627039885402326,-0.09303380656025169,0.2601338785873824,92.13825055156582,79.66443712601514,76.98244831193205,99.5996178009918
7260,0.016723698596494734,-0.0018244948364626566,0.3867534135773899,93.7796530173805,65.89372680302131,97.34388964860783,99.56027648770507
7280,0.07496856025541314,0.018880892136157925,0.3090990422662584,72.25837901840288,61.41806012575755,67.30302698909628,99.54248345095169
7300,-0.03168633816141569,0.07994054017206237,0.3331739488140189,86.55016674621886,51.82457870459298,58.08422660695859,99.55582009111647
7320,0.06808765912121315,-0.06793633727849843,0.34430845000965565,88.63668379541079,80.62170781241255,88.59432786525589,99.5338520931832
7340,0.043994864623297235,-0.04756333722000153,0.37020839031873976,74.9657856691766,96.68021361476495,99.93735819523525,99.54241717208366
7360,0.10456172676344595,-0.00349518160671349,0.33051700938169726,65.3431260082386,74.5291503954667,87.59811349359707,99.55211814379587
7380,0.007899400545373218,0.07556205789863138,0.29355973594802165,73.68969063673313,94.04852519290388,63.293467823611046,99.52548860719712
7400,-0.05267886867714743,-0.024047583122689186,0.31956949818061925,88.41948633451798,81.33217547568609,78.34909210549685,99.54419932449579
7420,-0.00990921058200769,0.05576636644475778,0.33742073035610765,81.44226184865184,53.07176500013861,76.44629592919529,99.53513758411908
7440,0.025302574523838918,-0.031140291845388576,0.40256258448747195,101.28087362917299,87.82399783407075,74.58822427527033,99.51811441596502
7460,0.05738589765902372,0.030942506948099663,0.29081290270203636,81.61049836154919,78.96253808208131,105.53146043870174,99.54734271677856
7480,-0.0018307206766032598,-0.04470096565913898,0.3773132734715512,79.51223449383541,89.45061467249226,80.0911655011344,99.56396362344634
7500,0.04017604729015748,-0.12559711920283997,0.31793053800705334,64.32667199298686,66.13792819530332,86.2054118723844,99.55255482755508
7520,-0.04019564482937473,-0.040547799401949094,0.39053193140584896,77.34970970177365,76.86747027366027,93.86982217736772,99.52857367938763
7540,0.10988400369593708,0.00899715315844288,0.3877149685492313,61.037212883810525,82.98102005992666,93.24650354485058,99.5402966163606
7560,0.009315250908474897,0.06871739297444217,0.3344290932636413,63.32761415707903,77.35125448775304,81.40877461979153,99.56056235728413
7580,0.012962977095797369,0.03265133135335166,0.35387803170422605,71.91991284150774,66.1138937516213,72.18200816402675,99.59030009646175
7600,0.03006232005504807,0.010663914456389208,0.2424754990833195,59.19901113300248,79.36478116830229,74.6511132611127,99.55751303115669
7620,-0.021736927392858627,0.06677230518772927,0.40696476336951243,94.42090275903374,66.8474567216551,79.82173902822154,99.56500851399315
7640,-0.010850096217947663,0.04067466899198141,0.3237314673302128,70.55561461162777,70.51707489258308,77.96443946267645,99.5540097568043
7660,0.04359048736036284,-0.02785046293025637,0.3301225618180603,89.59070973260503,91.44062232875783,69.85307800744471,99.56775943798786
7680,0.004742313297031944,-0.05364682311805413,0.2915763364674172,106.85354349241328,89.67661772223022,87.57135590612094,99.55944973313247
7700,0.024560910198779776,-0.001130253787004366,0.40621812120183787,67.18700051683025,66.2379127145551,72.65393876809468,99.56450570912848
7720,0.032299624506782997,-0.07622707390627374,0.3059424491350613,76.97648517319494,78.6444448045576,97.4745846369771,99.53174850639341
7740,-0.07814456034670814,0.03662951795886929,0.2155837210995646,83.43560662796762,95.32689863255274,77.13169560605459,99.55126546634676
7760,-0.1332705384761974,0.022168227365261993,0.3607084064847851,78.8921704574907,83.44119442140493,59.600798691815676,99.56225959896763
7780,-0.047455431011943355,0.041266265376092744,0.371014605408256,91.83048078024773,72.88168352930671,95.20162559044496,99.58519562822451
7800,-0.008362198915005772,-0.03676810005041459,0.3454763639484741,78.26313981295678,69.54560399536419,86.44250306730252,99.57863480163657
7820,0.040687630294803975,0.08568849537419326,0.34753017692177,74.30033849453814,84.75825807797452,107.26713423208452,99.56961200723816
7840,0.028192843590203923,0.04557952427994871,0.35678712104848975,83.48056569439095,90.52654082939365,92.47283244392155,99.5560655011774
7860,-0.016978822517608863,0.0375063797717518,0.3166176576832056,78.38406511461879,74.21702114498252,77.20315844190372,99.55568497348956
7880,-0.04247959372967864,0.008323103549681497,0.32649296408332523,81.32264962102612,57.36479965720888,86.19276487269141,99.55442190073772
7900,-0.016661717535398524,0.05132882088787433,0.3700077203768696,68.76664976268417,92.48850937078845,92.98165611432265,99.55321939170567
7920,0.02373690153721939,-0.06413307108246173,0.3724891126979611,75.6306023187657,73.99227501943571,67.3481054095526,99.53010605563972
7940,-0.02656016722853793,-0.005706342572405678,0.34898900059773286,85.50713484678448,77.06374151089646,78.94857466624512,99.56149228031235
7960,-0.0445221586301033,0.024067543410706563,0.34623315287245277,68.95805152490884,64.04400383669051,87.38148455588438,99.5606684546639
7980,-0.0756327000586336,0.02390913236953389,0.35980215346782246,77.68637975152758,81.30700076073796,74.65250942749628,99.56909166379482
