timestamp_ms,acc_x,acc_y,acc_z,gyro_x,gyro_y,gyro_z,baro_m
0,0.03187253040503021,-0.012720958858365848,1.0200542639494046,-3.8559624719748475,-5.827937739201962,20.160697543055647,99.99552018283075
20,0.054429063230971124,-0.026407580466304894,0.9875970340223444,23.646322585268585,1.8622039378270772,-15.09318536877219,100.00844918033697
40,-0.057665196026837534,-0.061601322737172594,1.0576329986514963,2.4026209828847964,0.5046359066876773,-10.536197619859417,100.01913423796748
60,-0.04585157038303738,-0.07543019312256567,0.9977387709681432,18.352894768768067,11.946446091150356,-16.910876857770457,99.97864804729973
80,0.10081705854905061,-0.04097070585544861,1.031869548771205,10.601209794345333,-17.145680247328304,-5.201673089563672,100.03324092218926
100,-0.00869998784196082,0.06667520364846415,0.993622601260495,-10.658256559912573,-8.908894649331248,0.012296397521027508,99.99697891231597
120,-0.0316672857904889,0.013377022065059491,1.0783099286170483,-5.684502353739328,-3.793375426098912,15.760725345551384,100.01551688522156
140,-0.04105662026944601,-0.04223346925992025,1.022847012530547,-3.6117685888331534,5.072772613906157,-18.421798078715483,99.98877279468678
160,0.08790809106150209,0.05348465636183473,0.9996521595767298,2.3106401280263196,8.365234176568457,1.482507242903693,99.99480259798425
180,0.07403242681787567,0.021032201084421647,0.9873782774413601,-7.057609096367278,12.612696219801599,17.432167936877775,99.99068704215401
200,-0.07284050958403557,-0.05397534045454411,0.9714299157501662,1.8012060566274257,19.19436077150254,15.808820284425803,100.04644743019476
220,-0.02280428659294474,-0.06285119568122277,1.0317829370037745,3.3866628486608725,4.199616597851308,11.922822262639238,100.02007031193159
240,0.004838368867445548,0.06359419766075147,0.9727068148288176,7.412405010142292,-12.517204663366996,-2.1730442719635255,99.9734279216571
260,-0.026227886942476367,-0.05658142157494577,1.0187337064093611,14.446385228758214,-16.781303769038885,-0.13517252368496546,100.02865645712049
280,-0.03784248707726333,0.049709221988774324,1.0388376925045657,-8.723965539785159,4.461257334539104,9.188623952363475,99.9745458911979
300,-0.031547554654909236,0.05224766941410898,0.984465963517713,14.802299465524941,19.761317384145674,15.610187084791466,99.99592627881943
320,0.04092989650382619,0.024549845957500236,0.9660200782660318,-6.159760298452946,0.9436898938654271,7.392140081327976,99.99746531160818
340,0.05905578965556575,0.08764774846556928,1.0712590075374941,-4.9299674326814635,-5.152781501119832,-10.006070096429063,100.02003627220273
360,-0.05578683624288533,-0.04511986021879074,1.0820097324980291,8.979203773076136,-14.400907897687304,9.977372426527838,99.99297710539396
380,-0.05131616784065516,0.050562200820874995,0.9931296150684147,-6.592706090018478,27.578268486922703,-6.800697940261761,99.99202404597288
400,-0.018335265615210008,-0.02013888743392814,1.0195684311106568,2.8291805023720604,11.667997951668472,-16.962240212421758,100.03174232955004
420,-0.059680742052819646,0.09928889492250545,1.0097248690957406,-10.793835812986242,1.3407165614722618,-4.646169099745107,100.02314868349586
440,0.0441700139873381,-0.054152164796947046,0.9033562022531303,-5.989253013381127,-6.4190402225421535,-0.10152018056803801,99.99740831141054
460,0.017709284874490788,0.05116748626362691,0.9937806823744028,-7.798426416982354,16.802005510950828,-10.305972987538393,99.98697472329617
480,-0.03249939726610643,-0.0003627628706012118,0.9667398389561406,14.920704503670294,11.502244159967075,2.651001171073886,100.02466201986815
500,-0.04338483748518074,-0.03325237927675558,0.9032657193720022,-6.075283549755627,-0.2927393857475753,13.275238135117288,99.9890042051852
520,-0.10215002221302719,0.07665947086267456,0.9960566116052629,11.255988054910256,-1.3488214794069833,9.34313920584126,100.02262296118977
540,-0.009197088502638886,-0.021838906787160304,1.0319887957543161,-5.191869674523873,16.819645530177816,18.76925189702815,99.98539890186446
560,0.05378869112762707,-0.03945440052252549,0.9954619624230724,-9.594365227600964,10.884099017017581,26.93287526542207,99.98677198554925
580,0.0058762342042582875,-0.017659485917795863,1.0036971681683373,-3.873664068756425,-6.180181782673204,-11.033404748639008,99.96879827324022
600,0.036145701392298286,0.010371689431028628,1.0887693847638504,-0.36935077713316555,-26.2572407518061,-7.185138200982362,100.03342949535859
620,0.01398915572392673,-0.03655337460435019,0.9992510856704216,-19.330367288121767,-7.203524548114296,-2.024741137378657,100.024159473227
640,-0.042026093842353104,-0.02358345269185212,0.9535916079936912,-5.949785618306892,15.148872764394934,-18.80506615564531,100.0278591343497
660,0.07564389322488185,-0.007158314791057308,0.9665224381960986,-10.810141265778505,-18.898238171512254,-1.9579158430169878,99.96885044099996
680,0.03611455052133895,-0.04509456737911345,0.9749362069712435,-12.693529299506437,-6.888644983348959,18.79678125080077,100.02642881056285
700,0.025525294156236472,-0.025892765752803217,1.0366370406258976,-4.902768069564142,-1.1561333231799675,0.2329491059652382,100.02892713646112
720,0.051197990927782225,0.005913312395953233,0.9870321456116316,0.8981887820050256,5.3858741194304285,4.92826501357572,100.00221778593917
740,0.053710374362749905,0.043910678765066706,0.9095461411506274,-8.78280756410512,-1.2186716897853584,-7.0632251715691625,100.02375979726501
760,-0.020931894841513476,-0.02193087399642309,1.0162500610787149,-19.729710114471267,1.426548059243664,3.5392377227977394,99.98770220053098
780,0.047025930163750285,-0.04908627184996804,1.0642373185336416,-3.056873694356103,7.125066304372614,-30.459619249335148,99.96531826560714
800,-0.007952848873396005,-0.007796145442743665,0.9750441810918556,9.867782241044683,-8.264204424149222,-17.906350857867032,99.97306829332483
820,0.029496604021646014,-0.04376469335070211,1.0189569047464457,-10.517850602653814,-13.49833287155969,-5.347157881275645,100.01651821646429
840,-0.07207260068687375,0.01154832264706278,1.0094244765640061,3.918147475488933,6.85197616508999,-14.915941147432342,100.0273056212946
860,-0.00501383534815501,-0.02078023001573742,0.9977911923644277,-8.966654496460023,17.575006039823464,16.691840071192647,100.00808577883056
880,0.08683088748884377,-0.02033313090088049,1.0056534902495173,6.223951221932595,9.848655388959774,-12.869056170735462,99.98310383341943
900,0.026483785127172883,-0.061637285931072316,0.9726912422912576,-0.7572879852530765,-0.0860987489276285,-9.601252452825905,100.00500149686495
920,-0.044066189048926986,-0.010584822623634391,0.966640095012543,10.881726380081458,2.137695778222753,0.23394926900941848,100.00565278839579
940,-0.06450385640916174,0.0005459683608641728,1.0242469527796685,12.388747552608038,9.538133998946979,21.721259977442145,100.00750191050538
960,0.009482689978244403,-0.0009707096296666898,1.0139415606167428,-23.08231648567475,0.5360325396467895,7.8077075918146654,100.00414431496928
980,0.046777626654131585,0.0541873447626172,1.040745521584157,1.6671450777953525,-1.2612652064122558,-3.817738293824128,100.0345898017725
1000,0.015266095349358938,-0.04309960525048766,1.0878008644255184,-11.543627360038833,-0.255338522843937,25.15363996230394,100.02189511406944
1020,-0.05117487826111192,-0.10464642600472279,0.9632785474735566,0.37587211340969745,11.704288264177332,2.274991179688785,100.01497919524492
1040,0.039952290575315574,0.03314842503143658,0.9149899701134353,-13.805596110591665,12.041500198846936,-5.340699948319565,100.02222192571863
1060,-0.015067150791721107,-0.007616214744443475,1.0360017249117535,-10.804191802217225,-11.884030657447484,-16.221220664398494,100.00550861203189
1080,-0.08411360926953823,0.004445950815765298,0.9639033692515123,8.713749744862469,-6.383831557415163,0.01487081264043381,100.00399279748984
1100,0.014105820594987252,-0.06777111202485069,1.0104764072056807,2.787615688677096,5.959946374060807,-21.74368729300089,100.0078520781719
1120,0.02232518027280777,-0.05712929442138116,0.982310545274645,12.0733781845618,18.321108802728222,0.77048446000221,100.01269359876262
1140,-0.03497361528552187,0.007496966121789152,1.020555268433085,15.646983853433396,-11.994438960486342,-0.03659690485091961,99.9981744105882
1160,-0.034712056251233574,0.010512961424629022,1.0045234369985114,-12.25961315858231,10.86500678572433,3.723414280958801,99.99460567683985
1180,0.023903361993265114,-0.011602649956742359,0.9614683509837842,7.578292808189143,10.038617090978056,-4.393764140952225,99.99621332705384
1200,-0.0328208429478222,0.0132936274383766,0.98179734229024,14.119621278390731,16.609521239284177,-4.143500639486862,99.99476315450558
1220,-0.07028148770214886,0.08268640339419264,1.0757743021774422,13.255172002348331,1.6443345382189114,7.177380417728198,100.01388314953574
1240,0.07695231314649859,-0.045747754448134156,1.0202204044838195,-19.452128562283878,-3.7431263499254026,13.1596852540285,99.97182778243914
1260,0.03443783330165255,0.013335785626262107,1.0593304622201325,12.270627853366879,-4.651800273591182,6.628429215971961,99.9763489722639
1280,0.09377250665928072,0.06201057055259153,0.97377150044758,8.624319044595437,-5.559107176384163,-3.296488247152839,99.9630385332115
1300,-0.06803323024929987,0.03861217769042732,0.9531272197428986,-11.433706686058706,14.280780036267375,12.268349632378676,99.99494467188991
1320,-0.03690438712043415,-0.019204246486342842,1.0406033698601798,-1.269377553153308,-14.347813214850772,1.9197469587765663,100.03119913657629
1340,-0.010814127927827703,-0.005690833161831707,0.8930135103884781,5.406601993972683,7.256702507086876,-13.289035992679683,99.98555096254546
1360,-0.03753133501861097,0.07576447125164304,1.0250223528222795,-8.622651660487815,-7.209889531894126,24.778981118456002,100.00170353615772
1380,0.00950694722894578,0.0077362603152823315,0.9958353028133415,-10.675537267550835,4.718291933000538,0.23470449337973254,99.99272953156276
1400,0.04664873217707466,-0.009284521262902667,1.1085477562622232,17.012423848802634,7.136522066495676,17.14486017751318,100.00714030702972
1420,-0.007182744535350608,0.02698789672656858,1.0348780026569089,5.795886523130342,-6.57982847355361,-18.232761641464524,99.99949443621963
1440,-0.016776090545199608,0.03377691008402622,0.9671244334299016,7.356441276993215,18.906509584363832,-11.914414080921016,100.01503064021968
1460,0.06539604059855078,-0.011816519651416793,1.0984613569775068,-4.272482312142808,-0.3552028596188903,1.4987763299278463,100.02950622886674
1480,0.142431717649811,0.014895359086487148,1.014360510657507,-24.510043647045606,-22.68025307682435,-0.5481045815097069,99.98807583886968
1500,-0.08495943002650169,-0.06966176934363683,0.9519567441764929,-5.375279477959083,6.995492077989162,10.353184916625727,100.04667696608585
1520,-0.01815688630839707,-0.020601047602995096,0.9999986857759702,-13.732233805604256,6.735377405748832,-2.24085313492716,99.9942033576171
1540,-0.04094887551024629,-0.08775493439329853,1.0294231414332733,-4.400491119606226,-8.53701069700715,5.974091679594474,99.99122471064396
1560,-0.0011548617970746427,-0.02772950642203788,0.999773410107748,10.753831399429682,7.134454088789621,12.785070444448872,99.99339593102847
1580,0.04048389166990531,0.02298052252724442,0.9587882557161549,13.907480438280775,-17.934284490780875,6.109495793142458,99.9656753745171
1600,-0.05462574282238756,-0.013100318736556161,0.986304129128706,4.332710673392856,-7.103775272149591,-1.7246986927113994,100.00477467138326
1620,0.025806827686157413,-0.028408338962418567,0.9954100474755301,-11.558082435583106,-2.6244652246865643,-5.956329815490394,99.99300695769183
1640,-0.05159159761951137,0.03225436262169259,1.0858317830168316,25.86741445842444,16.759197827136408,18.70818275636666,99.99734397237927
1660,-0.07524923969995073,-0.054456715556601434,0.9673765603548695,22.773459661697643,-5.408032607199447,0.6250306517618658,100.0136728569561
1680,-0.015925855710933735,0.061181959652928934,1.013570291019818,2.249184394518564,-45.86696560328058,-4.414983044174009,100.02241907272402
1700,0.008192500389484379,-0.027324384011674915,1.0274054242993218,1.1662696658410052,7.6968606297352995,-5.5445175060128316,99.96852003656198
1720,-0.00602367653873882,-0.02335912680009526,0.9571308227961077,-10.021712747276418,-0.5952810853291239,-17.844853527367043,99.97712647818018
1740,0.016749459551685244,0.079401718244626,0.9424421425655045,4.280981554062445,1.3368663643709515,-1.3069962989939885,99.983965049468
1760,0.09313236052233682,0.04051646456154729,0.95264373782447,1.3087585423583539,15.36725199640067,-10.698880374481865,100.0264114218188
1780,-0.004308726058016669,0.0012571789059333063,0.937622691651884,-0.2724374438872559,9.78242357125416,-23.262537437889456,99.97397715449844
1800,0.06101029632110684,-0.04615052087926011,1.1323148404712187,7.478986755194986,-1.7701913038305777,3.3658346202920404,99.97920645241874
1820,-0.06975278064180275,0.13158113711139624,1.01349466849161,15.427390447135924,10.121319776570932,9.675127681224886,100.01679094503268
1840,0.013781455606067656,-0.008102883592284187,1.0874002651069965,-8.835463718388484,-0.4164964746743805,-5.579542068961196,100.01057027859592
1860,-0.04144405604380373,0.031795421341665034,0.9303958020383412,-0.0746175167159863,3.7466577184026155,-1.2433266500331648,100.00355237832115
1880,0.006156938161988105,0.013175180909684649,1.0372455704393557,20.580784743411925,-0.41016496713223355,-8.317718031634056,100.0175154089245
1900,-0.024799539251515564,0.03153307613088844,1.0911015166922549,1.048464917804485,5.501375321528956,1.4967361833637043,99.95961607939705
1920,-0.008457482730094919,-0.014681756344956266,0.977588630517509,-10.446312660577583,22.166154733939926,1.9860386738930018,99.99071922036767
1940,0.050606280818097676,0.05195585625198711,1.023796022387009,1.1005109415874512,10.33963245608832,-8.93556735515567,100.02084210206964
1960,-0.007468541610368345,-0.013164092791474541,0.9888063373918298,6.920091191368778,-18.074692687757008,-25.253594992712635,99.9944652849316
1980,-0.008365402867072777,0.019280154399433955,1.036251586136431,0.357066136755421,-8.140081986552499,4.781343528240252,100.03800290167725
2000,-0.028849136218111512,-0.00938744566173616,0.9498364499327532,-4.927425769338437,8.152954597633569,16.425346372291052,100.01021985553683
2020,-0.05755564340485797,0.004514155998929936,0.8936804862611638,-13.187276714607158,20.07315490258458,-8.037185786675513,99.97384489601065
2040,0.06522288899115451,-0.03637826174627919,0.9928095644068667,11.117031243192784,-6.7471793366078305,14.085074727977625,99.97938385617168
2060,0.0015432642809722306,0.05071855153152502,1.0062563135003653,4.867222253570889,18.53907624155949,-4.394993164615023,99.98948066137714
2080,0.034994283588569056,0.006828409748064196,0.9980346390344015,20.784207061081897,3.420275780213226,4.22075686788786,99.97297027229148
2100,0.025761364980396537,0.03629963544681503,0.9597070884786183,-2.427745138480516,-3.745514962566621,-7.728650383340039,99.98648410698833
2120,-0.0627281002311165,0.03254243753648993,1.0027924696140713,10.84054316017929,-14.219020554339968,9.742950872144375,100.00254141079256
2140,-0.03624991298557508,-0.0976275753907721,0.9705605342500906,-19.70611644047108,-0.3283268260581423,9.882111291604508,100.00782559133756
2160,-0.021644465788489744,-0.051650671048834154,0.9631120238443486,20.90186421810835,0.9193142039620622,6.422598849320197,100.01173582712228
2180,-0.04548466618637852,0.02439412609927945,0.9934400772739118,-1.3451750930922577,5.468329638204025,-15.490954540495721,99.98892511220953
2200,-0.09481058722513376,-0.0498866873010204,0.9283327805931797,-8.276609440230347,27.852039011035668,-3.415976423218655,99.98623012177117
2220,-0.02560032436705839,-0.05720573717359093,0.9669203405186806,-5.6079335919855815,10.318007722830991,-11.167640280535002,99.97268118622873
2240,-0.03544663258287757,-0.05669468605829046,0.9212362331922448,8.695357381249151,-4.489621576331919,3.4974640452208865,100.0229140785497
2260,0.04752994771215573,-0.024222875879115677,1.050248158130947,-1.6150031714497413,16.246175646986103,22.391426554723342,99.99313466929296
2280,-0.005737509455957757,0.10133471478996839,1.0507353626303577,23.090997415335792,-3.248911167291487,6.654049757688222,99.96861278098832
2300,0.08874876770271718,-0.034378243723073534,1.0171035617442623,10.800351012952103,3.697686255493262,0.3167897548514321,99.98268475205268
2320,0.030038898320159886,-0.03176466774775318,1.0161711080775018,13.244094332020532,14.605208603074262,4.497543039598972,100.0147894866163
2340,-0.10177531819325931,0.049620545138829686,0.9865049770521168,-2.225442364606314,2.903556763581074,8.222117013942547,99.9841969399547
2360,-0.04529239825137389,-0.0032640557447989986,1.0339677861646104,27.297151505172636,4.794840043751163,-20.027227510641776,100.0037833228511
2380,0.043684423459012287,0.010337809870021605,0.9264248937738861,-8.671979700997653,-3.0898640908974806,5.795691860326824,100.008143199366
2400,0.022248633481711313,0.008497421776836251,0.9624183555544958,-0.3396770328718277,-7.1846310946685765,17.315412026643205,99.99409202390653
2420,0.17236506743931754,0.045503463217726,0.9856043713411113,-8.710082019625844,0.3864338573447967,-10.418911647706876,99.98186652255042
2440,-0.022170466759192806,-0.026398177369958448,0.9580565850659798,-3.842162837729862,9.555902718174739,-11.192783378543801,99.97457505522402
2460,0.0775036991930973,0.049448555858602916,1.0401974687450202,-0.10326788027984996,8.690155234897691,-7.130690056037163,99.99215438038118
2480,0.06644576891575905,0.03603289244656837,0.9841875779735544,-1.8220970095264044,-5.164017382442146,-0.606616259141141,99.99301490126275
2500,-0.03967968461952875,0.01614471579009312,0.9754047826309619,0.7012127955197329,-13.526617752701403,0.6924668255234065,99.99714526082343
2520,0.016394622433727753,-0.07267815137390345,1.0508355995804766,-14.365806526716415,-9.450390891663751,-3.4699430238405036,99.52957300670558
2540,0.018095491502129274,-0.015678851720092455,0.9807129047165015,-15.18400563137708,12.230119782874297,-4.792612191019117,99.53099434529325
2560,-0.029938857818747486,-0.067596466736892,0.9866266251122882,-7.156368805368464,6.2926108167857455,-2.550763044542296,99.56044413535308
2580,-0.06465675541303517,0.02821347918732354,1.0531639064377534,-11.822047255418866,0.4637296782689078,3.6218298293844033,99.52856787723036
2600,-0.038016098376085196,0.03568669707129619,1.0264075448902021,7.604258432681582,-25.869476832415522,-26.70488502200837,99.56861994305783
2620,-0.09356932947145001,-0.10494784807913293,0.36247028687848154,98.87445242456134,61.700285523125295,84.66167350924795,99.54893303440403
2640,0.07493269810943963,-0.09744093375427831,0.36752962674712697,61.03583854386996,90.01447787116655,89.73768410758558,99.52849729005553
2660,0.005597984104535631,0.013093506888845483,0.45663364573228604,84.26615215273908,84.84162114569571,80.48211942196323,99.57551037572301
2680,-0.023092025563142257,0.036026349031666016,0.38265414130356845,101.75474696565897,85.73480531854145,71.24110407267136,99.57913116040088
2700,-0.019078571901704124,0.03054429379017841,0.3959081684779835,78.73307691450168,87.72796420775708,78.14659793870116,99.55900513891488
2720,0.007968535514861607,0.018523193904370395,0.36844419464685685,61.22627728863219,80.20296240113284,80.83464566337456,99.53050448536499
2740,-0.037226889643000076,-0.021153785869793856,0.40017899350111175,89.49499329282365,79.2125369884287,80.3337028147702,99.57567044302836
2760,-0.0343692330182435,-0.07841397427037294,0.2819862083610889,63.950166678862395,68.42094943186868,75.94468464423686,99.5431267847782
2780,-0.016854901001136274,-0.009858404459859249,0.31814169573812157,58.16976506454608,68.3189550984261,75.76314801174398,99.57324351161505
2800,0.05689491413882698,0.006002637049527675,0.40566074428799237,75.15228426630124,69.88694808681784,92.19984629521342,99.57095104546539
2820,0.02819621810704123,-0.054669604665119324,0.2423707799325432,91.63474989566355,89.10674996300986,69.3872988828415,99.5478480787546
2840,-0.09035718044675901,-0.04364817597192512,0.37761577112541167,65.82702764133528,82.74923090499672,86.21591551743082,99.52903058911988
2860,0.023149357917195728,-0.037498146059920544,0.4435873052895122,72.46212573464426,61.284844713360386,71.7472563969337,99.55089080455082
2880,0.022822550821980103,0.01637273427931719,0.325734429017688,82.57614735340994,95.30305987950251,80.17450256765984,99.55997986183594
2900,-0.071069010112868,0.07099736414245451,0.35236849952781873,101.11493661564617,81.25050318490784,84.94357639506907,99.54961447287994
2920,0.05665305977165944,-0.0008781541211130934,0.34834555870137107,86.59278677593417,79.27080804867944,80.12160716581306,99.56600292207814
2940,0.0716084008386273,0.10814034625127654,0.3531248454513289,63.077508670818744,81.89821806528576,79.04157443750408,99.53497171468958
2960,-0.029254564829444094,-0.10414971774861843,0.4316094447974018,77.27994681642441,87.46944539330768,100.25638308206786,99.57253609295532
2980,0.023232255814680598,0.08404719379842863,0.32924281236580644,88.82281083204387,83.5363056331848,92.94829204659985,99.54494249463505
3000,0.014791993498310368,0.08240510048827582,0.34722937532633863,80.67816855134396,85.94615317130022,81.38653989319437,99.53795423924727
3020,0.05544783664795419,0.022056782992119515,0.359553573266067,76.73956981748128,56.34582287837445,73.7455185282594,99.6329676696146
3040,0.05982363063632126,-0.04195744476294315,0.3404977235029277,60.04229705850938,105.26622081455459,90.05141336709926,99.56901605109792
3060,0.03420018779670475,-0.06485595278460317,0.32137779293414886,78.38005617726783,80.25341575147426,88.03486148101412,99.56920124409918
3080,-0.016809365166475358,-0.0079332577941305,0.344954160782404,76.36800689419539,95.91435533748816,67.05177889129916,99.53792969101606
3100,-0.06877769654713481,-0.032149443694800585,0.2431120849334425,78.15413686668975,76.50351976225309,86.8804404852766,99.54274364549345
3120,-0.05064985264636143,0.02312969423698231,0.3600010021152439,69.56076620625498,78.65534467884153,52.4710571829424,99.56539144682326
3140,-0.10230198272426423,0.0351618722516289,0.3802078985161095,68.05022586724347,84.22230772176695,89.34590722185582,99.5367250762632
3160,-0.06752018526656288,0.025501429786911167,0.3781082934747661,75.14305027218,70.02485442134542,86.10848543788528,99.56594652284755
3180,-0.0993244498927924,0.021576830720377617,0.3955706069106877,74.83762175139645,81.58745695736187,89.2590334545604,99.54101692191816
3200,0.03077895370798347,0.11800870620086652,0.42365152271219814,71.94388719243915,83.00704469259486,59.42999771111417,99.58170244779058
3220,0.01333235161703316,-0.13536606535365622,0.26879075871747,73.48730400892896,78.3686947469441,69.56881506636812,99.54925466919894
3240,-0.051055582117922105,-0.05714801208334777,0.3098867584247644,87.53081907081054,70.5257691597921,77.58091757024822,99.54562904658295
3260,-0.08928890012740877,-0.05071076915752903,0.32870194199293634,68.26829801916713,69.48305549809108,57.9881440522647,99.5349931378334
3280,-0.013878737801103323,-0.035999402622903215,0.3381243024582422,63.8960381368057,84.01160980876597,78.38268785500739,99.55059392813315
3300,0.03855890507673654,-0.013524100871181761,0.31387902977645515,62.6339742453187,76.51364825446892,92.12274982260412,99.5493073803546
3320,0.012111790882939177,-0.05620627413878137,0.44093689907145484,90.11811739415357,85.63506121126726,91.05101385929474,99.50616656190601
3340,0.014540796658880565,0.03671279859648803,0.33989071473177257,69.19733788371954,64.17950288169715,87.82773272792704,99.51606953733034
3360,0.0688416473150196,0.01665014632047024,0.36715688605748403,74.53961593228046,69.05139261676202,60.23333444523371,99.56492373077297
3380,-0.11639473107404104,-0.06036610917546963,0.3281253698794096,82.73189812993199,61.49175721158869,62.887635668150565,99.54387527879975
3400,0.027625483429693926,0.033122173074560404,0.34943115581381556,79.22407532387304,81.36970581678794,80.1998766880423,99.547998621163
3420,-0.061317481082509895,-0.03955718156985144,0.2793467969194125,92.21578584472246,75.83143696193348,100.29291204905466,99.55055875618623
3440,0.037280689732887055,-0.03576353001042978,0.2946155795480438,67.90863009250344,74.2471988685936,77.29911700331188,99.52219537846581
3460,-0.018035787347894246,-0.013242180754290442,0.38629067579266335,94.14696080330597,65.06542317214553,61.878419702211765,99.54386024736453
3480,0.021809729019668295,0.018578385889874854,0.3690038486833353,75.36026835170769,76.61516299596572,71.72914714126516,99.55779997601816
3500,-0.07088571314148459,-0.013155625006513925,0.30576165367635944,75.07289333526955,85.89932115372866,88.6561181190961,99.54450850974888
3520,2.1598555651821696e-06,0.0023054091400947076,0.3269488459105034,74.53948797702795,83.19474171170515,85.67959305923756,99.5423891715562
3540,-0.057655840871068,-0.0314361274977968,0.3490180851992413,81.38139891716955,76.48725352912744,71.99434849494978,99.54931559028248
3560,-0.06559613566092676,-0.014293065622473088,0.3640022486677162,66.52923566205763,65.69236418242374,79.67591287671473,99.49096463481273
3580,-0.05958601314071319,-0.09649166816634487,0.3827247810559945,74.26817417712694,85.47624931736743,87.43621357081119,99.55106127726332
3600,0.02152295567287226,-0.004729714582507197,0.3385331830732408,70.29982876672761,67.3270517170038,85.35920102704873,99.5715597048975
3620,-0.10677382006954513,-0.005879454123467063,0.4104859005332569,76.15907579539838,51.97968653360562,79.22408520066026,99.57165911993113
3640,-0.002402069849537043,0.11461373005609309,0.4419358257598138,51.76007946440553,76.5411700825103,76.10630602758835,99.56920320958977
3660,-0.03853025276788785,-0.05966821520357492,0.46107167075908007,80.54518275321831,102.48735625943337,67.83877276599667,99.58273251893911
3680,-0.0930193634483069,0.010785234568785267,0.4018276469823255,95.42400786027889,65.38167587654947,90.7189756584979,99.56582008767514
3700,-0.00015891176602368014,-0.05611920673504611,0.42132874269054776,100.08296917141081,80.07013240507499,71.73117999298438,99.56703982475753
3720,0.025622969383748834,0.09009909131098442,0.3091759583620475,71.97675037649547,87.59618506512007,81.3496196465805,99.5711234454844
3740,0.02893186323605991,0.008240467655149988,0.33061931676193357,90.49411269198873,99.41529127651,91.34891020700216,99.58284473874099
3760,0.011095440590582137,0.020637466811138455,0.34821302965756046,97.39807450088418,96.96496897636442,61.096573586427986,99.52209680208966
3780,0.03086817964646754,0.06347915175851886,0.3128681107090399,88.80622329025844,71.10918533008393,91.52162459415983,99.54619967307879
3800,0.014580927150851323,0.057584531649587295,0.25043842683394435,71.67284390200925,91.35604401050722,57.16746538515279,99.55678907745617
3820,0.013855211360600084,-0.03363095189580165,0.3157457845012973,63.87176310549173,74.06504430079646,86.00216446762367,99.53367409652846
3840,-0.054885034612111416,-0.043269522125948895,0.35975826128115473,88.89065029626762,106.39351231230864,66.4764649453435,99.56089710443423
3860,0.0028363386622954553,-0.034140960376954146,0.3489937674135562,73.19388222663636,97.02592013691446,88.80029307281475,99.54565554737063
3880,-0.011984317232353194,0.08948627487325762,0.33365378943359236,75.37886721480643,58.96587977221791,99.34831816429339,99.54212543140244
3900,-0.014119694690949817,-0.015591264693628676,0.3907716593465994,68.08210140089147,113.72662694014826,80.16253593958149,99.54776801985399
3920,0.03552284736969803,-0.06028761888996578,0.3863163508466481,78.78757487641704,86.63949453577213,72.31353236915581,99.58356500343695
3940,-0.04895017832339197,0.06526914866823484,0.3501118564341018,65.33570756863445,93.88530573458053,72.41743301643403,99.55971678490116
3960,0.062026013643315,-0.04310644837142327,0.41531758392841345,82.15329700620887,59.63566131919741,80.92663180406487,99.57009533558022
3980,0.1075761719680058,0.06749418610102369,0.23806125682279738,42.783686106297395,79.92953862086885,76.74547011297021,99.51915982702732
4000,-0.1253724521020215,-0.007309431408456176,0.3757614257316181,91.14611804253488,95.64113889489332,92.7824958430462,99.56906203758685
4019,-0.006444560171576011,-0.020897293339895612,0.33717800317400404,70.27611905155699,89.04607963610263,76.16461213495363,99.55329047348282
4040,0.03887918257622785,-0.12399324239747214,0.3413966032989031,72.41182951335927,81.68041246415214,82.89211338215618,99.5185463425389
4059,-0.07034148925945548,0.06698247432092182,0.29312342644564404,71.47541989036489,90.9396612254483,82.51455104545707,99.57001126386598
4080,0.0023880940395929586,-0.02160434360322124,0.33172648571897695,89.5815697587098,76.11974797732212,84.28259182125672,99.54137393361087
4100,-0.04727758103069507,-0.08541581450700098,0.4778177034371538,85.0073670404596,76.87735221494351,75.95956925758526,99.55813189677417
4120,0.013690677901794469,-0.06118223994096629,0.3087305016114754,110.18409773183726,77.35535411978942,78.80205995610167,99.54720830657983
4140,-0.02221928588625202,-0.0681704144964124,0.40255915048450575,66.78517772919847,84.98078706561763,68.14565958801045,99.55360714561861
4160,-0.011263803054263704,0.027388177650662805,0.38512621064431957,113.85410290944156,79.12049599115046,95.3555244070522,99.54317679088307
4180,0.03904908412161611,-0.04704946349589587,0.4202685441065671,93.31193324382087,86.51664766291826,70.42147556759514,99.54276808935079
4200,-0.04651130070603294,-0.0011192031955981295,0.389701268401015,62.85482177211954,65.74824789787074,90.0297729283531,99.53308763548003
4220,-0.024013558090045756,-0.016957003164022873,0.3522380224704868,76.6967819254144,93.8493041254338,80.95373938177212,99.51150338817278
4240,-0.03273853818144278,0.033865085996490796,0.44014319151554004,86.2868170518239,75.94335385124951,68.45747937218619,99.55272617242223
4260,0.03156126906578563,0.006221372160575297,0.32346270676159056,69.25446826909378,76.94801294129803,82.06407699998792,99.57128685771497
4280,-0.017313321968403277,0.01569711204329496,0.30046058148209465,81.39022591559014,77.4104844355282,82.40777748801506,99.52874908208213
4300,-0.024909118400218748,0.07185113628788631,0.271346105570736,69.35985300494008,63.473043131839745,76.03469721398328,99.50462816260938
4320,-0.11847781470204377,0.09842160960208945,0.412218946436049,89.81394524114529,63.24006473292658,85.40198115363842,99.54514251151912
4340,0.017855001922653185,-0.008564203368624701,0.40351676050862756,89.35980489632902,80.92481332238222,90.10410634294456,99.56221076428233
4360,-0.013315846832667505,-0.04805423914777761,0.2833525001059936,71.9518473709316,94.8007353524063,56.89368694095955,99.56571488790283
4380,0.12953465021164068,0.051122565516667696,0.38109042809732563,91.69050911750227,77.86846211498442,65.80467405512675,99.53964950776309
4400,0.046626849221081956,-0.010938774117373946,0.3627059566203526,69.64408261554874,77.84483396962055,68.42253391814558,99.53413295528783
4420,-0.019603783780684152,0.02854915599630949,0.3751070321599243,88.05118608782882,69.68892304894773,74.40303947266774,99.57293933173183
4440,0.042873233425877316,0.08887637650139783,0.4044431418457338,73.10813259682085,97.09487914472808,87.18454504097842,99.57452286485328
4460,0.007362391206611968,0.0962559112315991,0.2640511254354936,73.47506844974748,65.76998547639309,74.67788490190863,99.58205977207727
4480,-0.005362457102474382,-0.038345722040704716,0.26577695461930734,78.62521889837573,114.97348332319393,75.70186676756319,99.53804081910836
4500,0.009279856063370213,0.031654869861946454,0.37126503184923487,80.70668858285575,78.79286964881052,89.40715788554998,99.5399273382596
4520,0.09270734779455636,0.03229208461901911,0.41001207732725614,62.669534382150765,76.2631921369047,59.80759862300464,99.5337509610532
4540,0.09082954384742016,0.0954591021403459,0.3609996274504343,71.05259943794337,77.92150402286367,85.40345620182165,99.54993013451353
4560,0.07549449695220657,0.03816920122470965,0.3776541000078356,83.48115648273709,87.41780507328231,84.33629155793759,99.5384589354259
4580,0.01154244517902827,0.01799590340035455,0.3601731850172337,72.71603309403275,76.90685002421387,94.20293048577476,99.58111182148289
4600,0.030248548872537973,-0.036111916032882795,0.3764513928497675,90.28756875263696,98.30367580141552,88.74042262767853,99.52899044181184
4620,-0.09654117146122511,-0.01933257217136177,0.3537714781870527,68.95879024855394,91.54020007996851,89.36814033397584,99.55627512901287
4640,0.04451145880233612,0.0267714124639045,0.35648267746456413,85.5055767368675,63.70755698539737,73.7451810408267,99.55825078211359
4660,0.0646429535615765,0.009758158259407963,0.33091383559960724,60.57767244678388,71.33256207029159,68.58650139848511,99.52139978011093
4680,0.048721126060358416,-0.01309455987512623,0.32832613700714597,73.01055416608102,85.49737485763,80.8590489208897,99.54631270449369
4700,-0.03001037731720643,0.0064051180545908444,0.41958508518287485,71.83602144254434,83.6632017998681,61.88776168594466,99.55883420245391
4720,-0.06707590660502688,-0.04205147249439944,0.373495285524263,86.93455306070993,101.05518747681458,97.91328102097376,99.55884508345024
4740,-0.035608202790611894,-0.026844252202986738,0.30235451726923285,81.90427349306191,77.52262293424067,65.64823883291513,99.53382988261804
4760,0.0022107172617616675,0.02149077072383329,0.31452102891230643,97.48508369759249,92.93934344317839,100.58255430573286,99.55840075804485
4780,0.03474544941205566,-0.0442475087131273,0.37736209630444706,90.01125109047973,81.10031068831292,80.8768315208089,99.5641772638195
4800,-0.05315639427956129,-0.0052685126554194855,0.41300921214137987,87.84246618339444,59.74208561791666,114.04742787048579,99.50743800181328
4820,-0.08127086608644365,0.02812403221789302,0.3330259386441109,73.69353353447887,90.83896298239017,88.94803994978892,99.54138050641284
4840,0.042383953352999014,-0.02275319323272088,0.40215011159710345,89.24443742090543,67.30034696580078,65.5889523594969,99.5627897945776
4860,-0.009112133847790456,-0.05545634466727182,0.3740000508687053,62.68201625114882,65.72607090304177,88.86887380111891,99.5308888646148
4880,0.07092296195201547,0.018324402688334473,0.37810229890565006,108.07192649063417,76.77715477931746,80.0793853407074,99.55632610369415
4900,0.05641915211807155,-0.01303649841633186,0.3597657716744619,80.61116639207467,97.11764593646754,65.55539920715329,99.5060055846759
4920,0.04545428070129529,-0.0259346580802486,0.37777675872958505,102.5509682267145,76.05900440256393,80.18212110605647,99.55544690329423
4940,0.012658130951672187,-0.03145434281992234,0.33907698479905246,76.92865451350332,66.26553696001243,85.52402404394735,99.56901094274548
4960,0.039188804366679195,-0.02962784398585959,0.44404169177252384,59.7364897657239,81.82698175281688,68.51969881614467,99.5427811018513
4980,0.042741694600410836,0.0003707617796453295,0.3617157292577808,69.5572369027273,101.80922633336436,75.11795822627641,99.51450636324466
5000,-0.02003960103409606,0.08663755894427105,0.31664500829765396,81.0559402036536,85.58618926097867,91.87219773338556,99.5489781231822
5020,0.053993997484904514,-0.03491569085747388,0.25555810613151936,73.38106994564103,60.264013148864166,66.12768412361831,99.58260118098454
5040,0.020864485633874344,-0.03774286667352683,0.40303120069007287,83.76341754871824,72.44946689363609,90.67020287581727,99.55245994371475
5060,0.0238292170725571,0.012724459014181427,0.33208023282619087,95.39111304405489,77.21985683034494,71.61449109325905,99.51810838289742
5080,0.022517961173092616,-0.06629988325145879,0.325126345777971,73.31688330805007,69.81640229457315,76.82566465181365,99.53002853400297
5100,0.019280509246994388,0.008052739761120137,0.33708605822768384,58.724738498807824,60.923006277308986,65.9457712710136,99.57728904136812
5120,-0.008983329917351858,-0.0006250237042930595,0.359331059507065,82.42954649517392,77.85487317829062,74.5035039882949,99.60267045496494
5140,0.06548708302185506,0.032358259331641666,0.32209074033355756,96.02395707766186,70.8244444026106,91.60237174441163,99.56259397563215
5160,0.05013929280769789,0.01529543862006287,0.3948237153716915,72.98709993592928,77.60501681713086,66.94786612386973,99.55094088257891
5180,0.053167482481929165,0.05433105070894373,0.3550486045871518,88.52519364462225,73.02845301890142,99.56927069667381,99.54205363975747
5200,0.045964598927925926,0.054007359516441845,0.4658908682809575,80.1764552167469,98.30764470661998,75.80846156697945,99.51251207447088
5220,0.06312418449356358,-0.04403684021972662,0.32505103568407373,53.52575833068806,91.61061371694706,73.81006834590661,99.59180227545073
5240,-0.019013853442036356,0.06638816251975097,0.32997723152313635,80.88198346864407,73.68231784018327,73.70297648681249,99.55407579173404
5260,0.09799673121110525,0.011707876628456973,0.344279661663599,77.03567121383499,87.67053951180962,79.13640974810207,99.55280099538474
5280,-0.08886138144023992,-0.004556328450362482,0.5044102096192801,78.96430711333102,76.40050672412063,89.98058709272703,99.59318791351681
5300,0.024407230019630022,-0.009361801075916951,0.3332906162480562,65.67467791699417,76.1162528636707,83.81800666207155,99.5561719462653
5320,-0.01595438986752942,0.02175996860366728,0.4132510760908972,65.00186909148778,78.14155430497344,73.58604267257412,99.50914889190344
5340,-0.050678505348863784,-0.042860970267226725,0.32666553761166234,78.66005005340239,51.379409393383675,69.45747353839654,99.50086134582114
5360,0.0035819698766510993,0.08995599992264074,0.3220369478548799,72.1358137213948,72.3550103413628,81.60353734586901,99.6148696531105
5380,-0.035054490635761264,0.008898822333101755,0.3963181133805881,68.76589397148327,89.37529458122808,75.49213573265199,99.53335276132813
5400,-0.00964316915199969,0.06326000545632675,0.34763262187792043,86.3761646321566,86.56335869158254,81.02380372778286,99.54823974460764
5420,0.04088609634765214,-0.037991976733615464,0.43857365958324385,69.47570179178774,86.06175290219538,102.3894507349423,99.53195607804243
5440,0.01443750805654706,-0.11012133702619882,0.3530305772531217,81.56307752909254,68.71824824322852,52.31445278568869,99.53890401232046
5460,0.06535978093272467,0.008254646895460136,0.3323972171505822,89.39636449086225,76.25598677940556,75.71535008142703,99.51338721082877
5480,0.06442721443404079,0.0035211912391826094,0.3480079388283754,88.27172802340709,73.85539928406345,76.30690523535635,99.56843592775037
5500,-0.006187292498816506,-0.04755023550168541,0.3963527425767337,80.3104881352723,72.77677600615493,89.90377348422817,99.55415207502486
5520,0.06828607464682052,0.053959253177591676,0.40737286806883577,84.0453656648136,59.70061503917563,71.28227892976268,99.53895862579883
5540,-0.09529712749143024,-0.023677358946170454,0.41033083050486246,83.96819729279488,85.13726606282309,79.77633080871293,99.5493921384193
5560,-0.07673707172404717,-0.05180673169776343,0.3202725669808823,77.19488471765,66.53988340600253,69.15422822102379,99.5612431578623
5580,0.05492540631586651,-0.10094365604115829,0.4135641070463356,70.28584535077786,77.23709764346873,80.46476157612,99.5545584844331
5600,0.040438338260024756,-0.05584899091056126,0.4117967277125795,52.14415135414863,74.10557181728157,83.2567600297379,99.55415199075466
5620,0.03520590610104871,-0.0683883558641361,0.34852843010616896,85.4690418021693,86.85358115978057,65.34332229281648,99.54731192607208
5640,0.07955724790431581,0.11404535322298522,0.42722057425170745,84.25572012973373,72.83761378409494,91.39218057008814,99.55873379013678
5660,0.055504003780533356,-0.0987944473256572,0.37369653332100217,76.72623472303708,91.80193632739831,94.08546503866715,99.55991079375389
5680,-0.04211970503409359,-0.06774910185557124,0.22942152352305376,65.49868584149789,93.81913000327293,92.6264899404037,99.5234190998709
5700,-0.01890051198066464,-0.0036222681418803943,0.38704378802916,79.55719434082775,63.62710606631599,58.58180129212921,99.56246041917794
5720,0.09989633286383452,-0.005986411249620103,0.3752313066733883,81.15631004568131,91.80569135811015,89.00428447857271,99.50739969376767
5740,0.037677078506383556,-0.003214236708289053,0.41853283238050676,97.22194899325358,64.64267348073744,89.36132525546188,99.54643543695934
5760,-0.006522691606659793,-0.04327041423235832,0.3936218319745247,88.59619105212595,77.58665981180637,69.42524054612267,99.55244229507193
5780,-0.054936760048778135,0.023164336400024237,0.3545050672975661,59.72403394112523,74.06127868767287,85.1657448041047,99.56354180001478
5800,-0.018232628332735413,-0.07517176312387135,0.37525373912475424,76.58306084557098,94.86478877735239,94.49624515427989,99.54818667589137
5820,0.011955610976512022,-0.005129261788464876,0.3749443957662253,98.82294645656808,103.22605317611138,92.40286457771832,99.53737699085087
5840,0.07928531437753655,-0.10623189998558269,0.40518300277226155,66.8686594019725,111.73809757841903,90.12275193479873,99.55041345118113
5860,-0.014456609688848494,0.002083091601127683,0.3680236979842233,78.28978838038562,88.73257848654903,86.5533037447835,99.53691623814697
5880,-0.0077239993163413624,0.009129953647685624,0.3627616077030711,67.74378117748728,72.92824094427678,78.0612045887278,99.57035775229913
5900,-0.04280310917434496,-0.028332293732371058,0.29387196968960827,84.05660929240184,80.66717412751885,71.33350934387475,99.54345810805356
5920,-0.034215733610535204,-0.05477591927267167,0.36858140898101976,74.8266391408509,99.55654625682185,79.4516553170882,99.56259343471712
5940,0.03501196362429646,-0.04370128629964611,0.42019910025685137,78.6589655645216,77.07220838192657,89.20989679290436,99.55105123591905
5960,0.02165559183505688,0.025568329958206293,0.3615045884705485,78.5355316204632,68.77583243851205,72.69381687726458,99.56315486992133
5980,-0.0063074859680897,0.006334387942781374,0.38183820197649326,74.69204136020161,81.62657988806825,90.03343180575753,99.58021914423396
6000,0.020099285977469322,0.0049277575664073495,0.351896227619003,91.68100923361004,66.01219874178685,66.33748322542831,99.55310765620771
6020,0.08992910353994484,-0.009227384468017418,0.3212240681192442,73.87076394786067,76.84682501922582,67.72943038128061,99.55691714291031
6040,0.014714438717213014,-0.011037064576302255,0.3732493414802453,67.93876315362914,66.8699029455072,87.97031799809477,99.52744958829162
6060,-0.02292575378916985,0.08964829523444055,0.3372940535038915,71.192141957001,66.29454779295932,68.08949098636869,99.57540118081666
6080,-0.044462977738981446,-0.0651302856807703,0.327288775877317,78.2996757822015,67.94618960247051,81.29631265149658,99.53169444819486
6100,-0.028085844502362574,0.0002167821870839485,0.3648435624370618,90.6407338559238,80.6257786455407,80.82561959848955,99.54514416582724
6120,-0.023331109666916025,-0.04544947817157158,0.46158230087711927,81.98302929549831,71.70863096811381,92.57025208081296,99.52281684262996
6140,0.05340969614673457,-0.06722751934808273,0.31361039794885986,86.69390982507129,93.36087548677307,80.22271729455929,99.56058379232172
6160,0.012298801741378998,-0.004924993386645159,0.4081312384692086,59.34328786295015,71.64950087761426,70.11329797337271,99.53788958562168
6180,-0.016693529329327134,0.027751993829277746,0.3011442359082272,80.31319222405494,98.87125700403746,87.65055563643311,99.54531975815782
6200,0.06326092613332111,-0.013952881304738438,0.30652750819475444,74.57430914127639,82.94843890124389,77.36725814687338,99.57916205650423
6220,-0.0005172219805121156,-0.03253546907860557,0.4050781163806482,70.23718615125597,84.34850244219358,80.267569833853,99.5503469217097
6240,0.039350070381406727,0.02746415725290623,0.31187500425768655,86.25606931503866,74.51806629401328,84.37895324678,99.5452151803637
6260,0.02974921558620104,0.00027798609031551443,0.3112996905491145,82.66451045082391,67.25307349902464,75.54131033097565,99.54906180371857
6280,-0.01553585644929122,-0.018297719689265312,0.4570129777191278,80.42072479783695,68.18902805940922,85.47135295270792,99.58691657599576
6300,-0.002676484142337715,0.007810623135462708,0.3482529027464431,74.57656407501435,73.53811314765753,91.49601342117103,99.54271154609353
6320,-0.014737615268143295,-0.011036935100089426,0.39787146227419434,61.962180512124746,85.46642827636693,91.51691809196896,99.53051365209909
6340,0.04050072389239994,0.05257228382006734,0.333999794990513,66.01412265584716,93.30942205013545,85.1030440801643,99.53866098796591
6360,0.005547865905751993,-0.0090356801666688,0.4097913052236238,92.30006065020592,79.45479133828984,49.41724647822579,99.57542095960751
6380,-0.08833339705695034,0.041994198811241806,0.36450785710092304,75.57789393380398,84.32591445840914,85.45772784531154,99.54899304253865
6400,0.03647328960362053,0.00488098155319863,0.3004171085899704,82.75390525321265,102.95841185098226,68.49017316641059,99.54757995250046
6420,0.020071017906608087,0.006163523085190602,0.4095729083377415,87.92961893208721,97.37187077378306,89.09981342350608,99.56644029212696
6440,-0.09976796230766967,0.07984048718649812,0.33971256831208824,81.1198627397566,92.17017482386653,62.574042798062976,99.5266584666795
6460,-0.02474008384573166,0.05465370449683813,0.3146994156639009,90.88343447871947,69.44321661471902,74.08775370972585,99.5184432877513
6480,-0.03501071179707583,0.033353416032112386,0.32896388345895095,69.01149523941018,90.47990477724379,70.76220368125655,99.53792403706576
6500,-0.06095311432209943,-0.024359490666297515,0.28495843132161325,87.30324680425299,73.61862878704962,88.04962053421073,99.56400053760444
6520,0.13822916263064455,0.03330622631740038,0.3047324643113749,63.83184902420373,77.23905168482851,111.38353953448495,99.58713552511094
6540,0.027318596154256233,0.07453190836319727,0.28958667824357753,80.95125899266566,74.13835998204213,72.14086978574231,99.54348280382904
6560,-0.03971525274572384,0.022413136649351004,0.3627267251122988,63.53911319275622,97.52804056633751,74.07323534065574,99.51667052083114
6580,0.028863598265109616,-0.051474564956905604,0.3181885089326316,87.77316245845066,78.2900256734761,93.336805122094,99.5560065246093
6600,0.029387206212961755,-0.009995649515495997,0.4240690091362806,70.70139502326994,102.50677611327129,71.40398984681508,99.56632630769765
6620,-0.051400367541152764,-0.07083300149661688,0.3703385849727967,93.89445750196761,100.12274842707379,78.6356923490123,99.53990351010044
6640,-0.039227950810609216,0.017838642217631425,0.4944766395551224,84.44056315423306,69.01065114997674,86.85282593327409,99.56418460733386
6660,0.02663530441709913,0.00237332673054019,0.38606899900076497,84.98642437233376,77.76730345065224,86.74104186743017,99.51591478074823
6680,-0.03868080759390869,-0.01644999796585347,0.33012830307405716,69.59340343620136,80.78917467850967,66.28553556791906,99.53155534464776
6700,-0.08342538093401007,0.051379369412954096,0.3913283794139486,67.8554550814424,71.64233843636396,91.24433815828253,99.5404262898892
6720,0.04097066987939924,-0.013858411761964146,0.2578523544775828,76.58093350236202,94.57703736595109,84.71292913944181,99.5520267294428
6740,0.0824739614394101,0.007607304836090026,0.3175660699369303,88.49912795338483,104.82699046940539,65.71814859530213,99.52425932341595
6760,0.04943264561200464,-0.0714238972938936,0.3560685957912998,82.69484083329169,86.67515704440102,81.17597899045134,99.55438938699706
6780,-0.04461696497886148,0.13694680270748588,0.4157315715256378,72.7845863365128,79.28832736674326,72.16929107151743,99.57369812112168
6800,-0.08316239663139703,0.15539445158033116,0.31307765012772754,73.88313194210379,75.68777666436097,68.77212320305841,99.55451471287145
6820,-0.004422786240693991,-0.023540472100325456,0.3819213646716741,65.53094648300717,83.97491114443454,84.08107632456348,99.5480451691937
6840,-0.011780468207947531,0.06487832468204936,0.3138194098246037,67.88227132604712,73.24731885777365,67.65941496410451,99.56804770581957
6860,0.11702777965640972,-0.0007748490788871603,0.308365506113818,69.80099252273187,86.55950366129514,90.52524500160688,99.53975662374248
6880,-0.0157212495781401,0.04630019153769109,0.2824121717782013,85.3595129160299,65.58946289027207,74.34565888484468,99.53356233785837
6900,-0.02259694591292134,-0.05642177489015328,0.39071120631127676,86.09956932791944,87.097398508189,85.79161832963122,99.53511089691827
6920,-0.0018137678602524012,-0.041921269480001994,0.28789740845028344,71.40439739351326,74.62479572492875,75.56487443907154,99.50144956294432
6940,-0.04480028986681858,-0.041421828346758054,0.39163909202241387,66.88888054943435,85.41932059032432,73.36734891569978,99.54017274646962
6960,0.0034748796193308402,0.04103228433744528,0.2888424683963879,92.54783964122416,79.93888532318984,69.2454493492132,99.55506229846573
6980,0.0009446665085667276,0.032504134262908595,0.2528915584336367,76.6803569362327,51.219526861748626,66.85241812717767,99.57685113143658
7000,-0.03709958235787545,0.03342481384527223,0.2855630282586116,80.96349355529948,83.00146693093242,73.75768580070987,99.5446619817409
7020,0.004911820546357751,0.038879664259804776,0.2880823826128236,104.20566186306715,70.24197007179383,79.5579093350019,99.51829738903433
7040,-0.03255259581164084,0.021571306180122044,0.31616585471528424,84.47554452510488,58.29782191609539,67.92481449384104,99.56504172916632
7060,-0.0014288801333668705,0.01339023674609606,0.27218628802323697,91.63564132812012,84.85013911130729,66.87092930101437,99.56625766341925
7080,-0.012103105143110263,-0.03019021281419635,0.35652920749530864,80.72634163418574,60.93347233518837,53.97084140040276,99.51973452576004
7100,-0.04954950027516304,0.038143847054047914,0.34107036130289037,87.42497079967121,87.27243994340444,96.12189049216514,99.54469797093812
7120,-0.007905313150441537,-0.05549020344883482,0.39207722162865266,74.56741132439922,67.50213634204876,67.8991786100722,99.5461311199649
7140,-0.061521210848450636,0.021331186702978903,0.35508979594451107,75.72132760660836,113.88317948365588,72.70939150298203,99.55110676916924
7160,-0.008937410844826658,0.019161096531916985,0.32745393228029374,59.97840393432805,75.70507020784413,96.76172896920693,99.56171248451379
7180,-0.0719724057187853,0.003215402348471503,0.32722875982126814,91.69896534225907,77.57066694686014,93.18609097423433,99.53332260704325
7200,-0.07127265450123275,0.05333738459843529,0.3188006139487661,92.14297724485537,76.04897711683458,93.711283586665,99.56383768227083
7220,-0.04345002693514738,-0.03709588037023011,0.3216333454710106,79.32487770262657,91.4083774747807,78.66984092695492,99.5310138235264
7240,-0.05415798513160861,0.023867145014508165,0.33351739118493395,75.69336637927337,86.6898381071071,83.047053831832,99.55963023690383
7260,-0.016720675925101815,-0.04472725364520299,0.3160580904485973,58.99356723389944,105.37511063146806,80.29940172216479,99.50121790505811
7280,-0.05806103705570527,0.035076581490452334,0.3257940866352618,95.41764483128628,92.34700701073386,89.47894253395118,99.55522315284352
7300,0.03424165330434478,0.0005811795267060276,0.31795803224221764,87.36480419509829,89.84078621658877,79.96790215123544,99.54061967673486
7320,-0.04992067601337898,-0.08800250254769816,0.3687848321910113,62.88910744387471,84.64725133537839,70.07937831565799,99.58977328529241
7340,0.09898237563321778,-0.014089112529722001,0.3022776560252203,92.07989508681666,78.27356236782131,88.63934002575485,99.56550877659407
7360,0.05939811332938166,0.030104299498516385,0.39480129360442484,86.555070777223,89.59780619381034,84.37567213560042,99.53200853349253
7380,-0.06589271898942463,-0.04418021245473145,0.38688230118417427,79.4788024634394,102.4625168810702,81.40225506795373,99.53013844798537
7400,-0.0191939525714777,-0.01633668161125431,0.3284221884654045,69.40030494183334,114.90640886134968,91.98492009319293,99.54129055848763
7420,-0.027748702278558662,-0.02329731834118172,0.31815337476315025,82.78208874691283,88.92030074848563,61.87134592259916,99.57082651712648
7440,-0.043555424243500424,0.006173225474061493,0.37985814065254786,91.86606229204023,71.69517978198655,82.94491133585677,99.53158465392656
7460,0.02702729040825468,0.017124793588590387,0.39684805779125143,101.5582515805578,87.60105234393978,78.00554819715282,99.5562511226151
7480,0.027263113036127096,0.0022089388430324153,0.3811510942874345,72.80006317406472,89.97226016765126,95.09856289113945,99.57178713297223
7500,0.02998722515475883,-0.0011796406610411478,0.2825783194840011,62.21600085162885,95.05471702996923,75.96246018209092,99.54573730137619
7520,0.002359230247995759,0.03282997371495535,0.3738380490227863,104.62400917957832,96.91157158285911,73.40108023077661,99.54213478323538
7540,0.06415881732058538,-0.024575037063034273,0.3599332257126972,87.12316495548075,67.66019463906524,74.7679760518375,99.53372092642024
7560,-0.01239530795983932,-0.0907265865449128,0.28810232772815453,81.24904106858204,86.32634965251538,66.69549793054942,99.54323501307525
7580,0.009284144731496911,0.04851658338409379,0.259920047031903,92.91955651367041,90.02478740008388,97.91473286093006,99.56977360658159
7600,-0.08042012504610643,-0.07072985864656393,0.23137407928771725,66.72325735416915,78.61551314985573,82.10286244703265,99.56369771436638
7620,0.03757437386776862,0.026945271625173423,0.3856319905248619,71.99623549516734,66.85659405975629,73.83200910953649,99.53583524936734
7640,-0.027960438202512202,0.006296569390194701,0.34728545413774253,90.10796974521861,80.85432421389041,74.39425030382222,99.528020982217
7660,0.057009141401989816,-0.059533389460095634,0.31868965690297424,88.01619898637225,72.08829753614827,78.30852082783122,99.5480444415713
7680,0.015567325500941429,0.04533098416932893,0.3384057129401593,81.3949504325572,63.13241526179199,76.99802622520848,99.5157255827281
7700,0.02669306423603588,0.031939844947580016,0.4096971002310043,83.26479605584827,92.677831793677,78.88233480249369,99.54728135660827
7720,-0.0019061130728196493,-0.05420119290070246,0.2741541789175307,91.47533660225209,69.00107041484446,74.99206021560325,99.56522170701206
7740,0.009765563605543972,-0.029191662210341075,0.2943877110566194,78.8914039126855,88.74025110948445,64.49219229445453,99.5478963711689
7760,-0.02341396820271244,0.049961137562690876,0.40542168427965486,97.14706888090944,95.58157181109794,77.83978012882253,99.54120957628304
7780,-0.03327666810370248,-0.011479916955447596,0.38537285574045815,90.61610538392836,89.42540262901731,74.61152047646047,99.56154837956989
7800,0.06278021754771716,-0.09344652932763514,0.3301682459685961,87.81783998277616,87.01142889687893,70.27111717534706,99.54247422131546
7820,0.052169616003056855,-0.02630955779072505,0.447280164608517,94.06656866408898,79.43006122076625,85.31964444442634,99.5879528717825
7840,0.025073227407090583,0.033958612280950116,0.3756318288077842,100.24241688187197,78.63058508948792,60.53594372362295,99.5376817089217
7860,0.059815049375269436,0.008076156690685978,0.3642520255063503,77.35179700440429,80.65380139544952,78.92608712735762,99.56346295521706
7880,0.008585443635085488,0.10888565447770915,0.3037538403374994,59.44551332954521,76.09064941977537,98.79982609462577,99.55443426587732
7900,-0.002889560827289809,-0.06763108772251028,0.4501945649320026,75.70366536352958,81.79636682061185,95.41578265142962,99.51893695701585
7920,-0.002771940657371052,0.027853216253284054,0.3217909294966277,100.48435988643101,74.17268157260939,85.31768678099743,99.56501162147372
7940,-0.03970435207559942,-0.043170198522990505,0.2811700151635247,65.86529025465691,74.64224491091213,70.25157898631417,99.59887842315419
7960,-0.07226444398767147,-0.053951354133396884,0.32002714031854423,99.59837857448682,89.22837473130313,63.58944870093412,99.55132783466571
7980,-0.020051100639950525,0.043519673455526084,0.2661934293025835,92.12724351746328,59.12178059425705,79.9158648544999,99.52787085686144
