timestamp_ms,acc_x,acc_y,acc_z,gyro_x,gyro_y,gyro_z,baro_m
0,0.04402439358193229,0.017174555343773993,0.9841392014474535,8.308215011052434,-11.899162156834748,-5.887516649373749,99.98083914724799
20,-0.04891249348002433,0.036584389556602724,1.042847539598244,20.16211632454341,6.166692117644346,15.035893489397655,99.98097979987328
40,-3.395297561780259e-05,0.009374917748150748,1.0344998218027441,3.8453763281675486,16.066439371111073,2.9149359235598036,100.00583326488326
60,0.08394880372028404,-0.032314948848868034,0.9665738100543685,-10.584078249160516,-20.542475398457462,-13.11146783894206,100.04079865808781
80,0.0007278770816091165,0.02445083063365496,1.0028623700929833,-16.069687852316363,-16.576218696104515,-11.511416409336142,99.96645481361563
100,-0.030114773301864503,-0.01944309100819692,0.9091189713593832,-11.09216703169697,-15.41858594679941,-16.11925643073015,99.97474293355572
120,-0.05844404180358817,0.10142009818015917,0.9631249040458714,15.99213277239271,12.977485872733943,-2.334269321039243,100.00496341531277
140,0.060976148037481984,0.035323149930676666,0.9959720654223009,13.248704307416414,-6.62194006180011,-8.04158850918133,99.99300456322625
160,-0.00012499179481293405,-0.03556579370149654,1.04761956672544,-12.821890797393626,23.24362153879843,0.09060667509090257,99.9780040242237
180,-0.10010677537688224,0.000396920915060687,1.0209923078320455,3.8440709434008093,-0.12490100548433532,9.094670825273576,100.00087679109885
200,0.0313452787230683,0.0087233006215964,0.9968863781013552,-2.5093703494755686,2.9792931988903786,-3.490810462431985,99.97373986980848
220,-0.024965689231390312,0.03541650138594349,0.9632426285610562,10.294496265224405,6.480648585901774,4.404844362384244,99.9782941473076
240,0.0016020308039613454,0.019100922314817068,1.0602859793499975,-10.818729713301874,-13.261351221072708,-7.044893187163275,100.04571947415808
260,0.022346624752182596,0.030060828999761643,0.9343051452019577,12.883967191152024,-8.844400043861881,-4.015168177842573,99.95012090019033
280,0.03829510098613497,0.08230308996264432,1.0462019680135368,10.953426133436192,13.558953330775164,14.505434739944942,100.03781918758273
300,-0.015516359321017793,-0.033637508213775084,0.9680850957935978,-26.968735663901498,-5.452853498170758,-16.963895769019153,100.02943421217255
320,-0.0841886842648765,-0.06835479746216729,1.0616166904554332,-12.81899160050523,-14.47350627549914,-3.2475539893440937,99.97867551163674
340,-0.02401760833746701,-0.08816656055470183,0.9495050854612176,8.461839944633864,19.745435065757395,10.037362532219845,100.0090849382288
360,-0.05968593343926426,-0.015798720796960385,0.9936934958608441,-11.770346591726593,-6.229718576213752,1.7526470276847381,99.99873767619955
380,0.019738254110603336,0.06871060555066238,1.0734783717996565,13.012068073488724,2.072267528545023,-4.083873167664658,100.0039535411349
400,-0.01477109266953635,-0.03150575222225172,1.050808613292107,2.672439868959543,-2.354335066268675,-0.9561026298073269,99.98779591586293
420,-0.011702735045168772,0.09096401289402663,1.023932471163211,-6.600399431192939,-0.3595209338665562,20.689173645690126,100.01473916945967
440,-0.030417163377151574,0.037176155155202145,1.0350971018894304,4.625264305009553,20.71968919244603,16.427302596652268,99.99177573577484
460,-0.05713548726501053,-0.03316127651319341,1.045709328792934,-1.6505446310488854,8.531570607593128,-0.06749425434489024,100.00802201802126
480,-0.013677938205323651,0.033799824554758474,1.0573683448052775,3.72137441715138,3.3452601525132057,-12.093432034273452,100.01403314407506
500,-0.0037411438195869237,0.047587233793999394,0.9247393853013335,-11.262063106155484,-0.6357020574753007,3.640266347692682,100.00197564332228
520,-0.0007269425652469232,-0.016351120303351133,0.9837547465923843,-8.08193738020173,10.646665127494003,8.068199892088707,99.99416108660715
540,-0.08893718246407488,0.052635860701563536,1.017263676485764,12.505704882104103,-4.736973297136647,-15.625318040324625,100.00425512194283
560,0.09245173083021935,-0.04843634836487567,0.9533197075743436,-0.0548661091585159,-10.741995252929073,-1.8028361797188062,99.98766766210831
580,0.039573668347137915,-0.01225608609916527,1.0806800071152063,4.021137948529777,0.2686685633175373,6.912107208948598,100.00513848723281
600,-0.007813229389912926,-0.053028910237327656,1.049772129362339,-0.09035116521806302,9.048808876101564,6.505898913423014,99.9842758827472
620,0.03095707494104549,-0.03695039936683336,1.0137405219281124,-2.7413823894053495,2.4870728518317136,-3.0652613478440762,99.98118276669858
640,0.06119166186555106,0.025217722363640335,1.0605154532211607,-1.8718279785608178,-30.99936294607793,5.852308489123184,99.9747655702068
660,0.03454655567066419,-0.07895221317758382,1.073338328030544,6.88491461699476,1.8753591001967371,5.468612832265771,99.97642028023591
680,-0.03613954076495731,-0.006395483119898637,1.0073114181373561,-9.649596529088395,-9.52118128939705,21.99540308575085,99.98804475887152
700,-0.001970258817067258,0.06377207660579279,1.0147517097982635,1.8404115581713258,8.534204410423195,9.057602645632866,99.97075362573588
720,-0.024470319178845165,-0.007139073888575318,0.9383559562564281,-0.48397256866975424,3.391663972532778,6.796195005403016,100.01018044303297
740,0.01411611929678621,-0.07866032262087645,1.009652019688262,-4.761846776582214,5.156403211354114,-3.4394436526850396,99.97164992136325
760,0.011155079355425524,0.011950180463416936,0.994104788037513,29.969574987496244,3.942483428198367,0.18396748313496475,100.0160791564203
780,-0.038739594400443916,-0.03171522489490198,0.9275482592080325,20.774636203012495,-9.67393345208843,-0.9641284813448752,99.98918337778483
800,0.003975297286665212,-0.07901642403486347,1.0567154730739587,7.211886823025095,0.1690951043985094,-8.732164087577042,100.00216260088992
820,-0.06420870518471263,0.034098810068320905,0.977441504040771,3.072980275084414,4.4529616419700115,1.3475241362928168,100.00279544412345
840,0.08442460530855281,0.025380963247213523,1.0064308786339007,-19.16041050850778,-5.944191630660397,-12.826694471042051,100.0214758690335
860,-0.016754514621649282,-0.03511831673486534,1.0644439893148219,-2.0586956564227954,12.338488672992888,5.762686534578969,99.98514102787506
880,0.0272065965077555,0.050293961021847855,0.93673413108477,25.935787329941483,16.963008517626587,3.2138202682001933,99.9702169771172
900,0.011163510541422587,-0.1204386695665935,0.9908384733966779,-2.2746172273412686,0.07530462148011917,15.445763293506282,100.02718173858119
920,-0.028300577742245772,-0.012370903522282954,1.0598201787978008,9.696681186205485,2.7488347956064656,13.064205837747252,99.98625122100958
940,-0.03079640677361526,0.04165595157304101,1.075331672507825,-2.4732176763379936,-3.8781551915395958,13.266950061372054,100.01691200400813
960,-0.12245495132183802,0.005317565850160722,1.0094776272895634,8.806162948317265,-3.1884573881404545,-27.279068708105232,100.04381677329675
980,0.03325497319548389,0.06200582036612963,1.1460628750810964,-14.952977528414458,14.082043011237134,-5.649294259923436,100.01029163842051
1000,0.03351788209872743,0.0015228781683195869,1.117487670359228,-7.042051340493593,-7.172827517597083,11.214448961087076,99.99399922875935
1020,-0.012375882774718933,0.04673588701036823,1.1136346364229865,-20.48861098961067,8.036352433162357,-1.7948973932823011,100.02984192225358
1040,-0.08559851474484709,-0.07238391436642401,1.0859494106965673,7.457290709738056,-13.548512013627583,-7.823104903472316,100.00355043901452
1060,-0.02021224206503296,0.05303228294868926,1.0002745307457508,-6.9506710178227085,-6.620765041730747,-1.612728232204242,100.00103580907312
1080,0.15450901599733363,-0.025617857567590635,0.9552957065213858,-11.524092439465289,3.8807409360188982,23.923875213686348,100.00742206290694
1100,0.017104080134078176,0.021800678626659444,0.9499535740784355,-10.673663887808452,0.174986053493427,-3.9659743261696425,99.96854516959188
1120,0.06851999478783831,-0.01334424021861616,1.0587806534016457,-8.918284288510037,-19.705067439713666,6.186932393287853,100.0146460762723
1140,0.038025589477062485,-0.014330669732156976,1.03925545169052,3.893952011495081,-6.454190650479266,11.97101417234182,99.95493094650075
1160,0.07679182117556137,-0.06744293582960063,0.987635493986678,-1.93500301687471,-6.859204675561782,-3.449151396310712,100.02513287238544
1180,0.03176310019808387,-0.0639807738679689,0.9795020344142994,-28.66030169051197,-6.205486634537616,9.013362051497996,100.01973229638033
1200,0.013764698261135586,-0.05326298891527031,0.9564728799857454,-7.969558068297859,-10.25976550031025,-1.8650448403686304,100.0012600599844
1220,0.0052919194886595555,-0.04886261927445596,1.0182990445953366,26.239644765009967,14.856301833475193,-3.283263893946142,100.0012950781557
1240,-0.03553139460666454,-0.11231392343965048,1.00945522132187,-10.766528212940756,-19.706688601266027,-12.88528393457613,99.97763920424121
1260,-0.04278789833636197,-0.004052479059899162,1.121737519769988,-8.662749526658711,2.90797383984447,5.795821918151396,100.04719987177408
1280,-0.05526868623852166,-0.009628478847995722,1.0445567883119349,-13.348737515606624,-3.2869946457161254,2.727892028989159,99.96636187465363
1300,-0.010126532530295178,-0.03093698942812443,1.0240528315927535,13.785818980820629,6.0013971782029385,17.959733395634643,99.98210287267749
1320,-0.03832598575881818,-0.011561630761861327,0.9707859529018518,1.3313257793100455,13.57753359943137,1.9563439615764016,100.00038997412268
1340,0.06900351234840964,0.06647133420312262,0.9368167252416736,28.3466298229652,10.596840485594722,21.710449853980123,99.98762844339777
1360,-0.03226532378998342,-0.005697804379464618,0.9417470128138985,-3.483474186101009,-18.169913302785375,2.0587479234886024,99.9813630677875
1380,0.03678594122230536,-0.016494974243778274,1.0004261277756301,2.4833081622214968,23.01236484200951,21.67144578243545,100.01269045539874
1400,-0.050840223740459135,0.05548038992732157,0.9580799304402124,-14.734192202076933,8.933968161480816,-17.084283542260582,99.9656861026709
1420,0.09822857375598361,0.06576882044830919,0.9095036670201904,-11.826824546854567,0.5185479234102605,5.007756228549866,100.00314735636155
1440,0.05268299440902389,0.04440093707052234,0.9707812752671873,8.443293810875826,5.138034798014726,8.282598855566821,100.00675729512858
1460,-0.025860014422242946,-0.039062722943462774,1.057992534983427,1.5106007395962382,-11.906417029876444,14.581811635526503,99.99784769422898
1480,0.07481549359065968,-0.015445949307757717,0.9796263725045723,16.433326409829725,19.408652483995674,6.858188826734487,99.98776105019158
1500,-0.006280892665588337,0.0343424061011289,0.9975732943607994,3.0368596980761033,-6.6139337437896994,6.785474127584054,100.02562949584967
1520,-0.009414229556112728,0.048074374081682164,0.9690645552734081,21.08017874419707,15.786272636668778,-3.2050136924120327,100.02442900314597
1540,0.005786458622015301,-0.019361822173111335,1.0669948011296586,-12.007271130392741,-4.7084645085024235,5.542086337257681,100.00387295403685
1560,-0.07037415882020533,0.011368693491322315,0.9675358089116447,11.980608864806623,-16.47302244951494,12.919015798854339,99.99731973031385
1580,0.0385827893787287,-0.0011010369565775183,0.9970172913068958,5.409666123155495,-2.1485880473046794,0.5245432559233706,99.99938778604194
1600,-0.02841704353201457,-0.018559941337883776,0.9502747996154388,-12.701300556526693,-9.415119374108196,-19.923399031652334,100.0121078023749
1620,-0.005988482606182274,-0.04608884444758029,1.0412266275703053,-16.912884266056597,-16.948150453544788,4.3000186765389,99.98527200429054
1640,0.00862597719014957,-0.05257914681663661,1.0421192810417081,11.957010409758633,-1.836661857701197,-7.685075950896577,100.01544369533829
1660,-0.007236021166367089,-0.00030780278307677674,1.0840109382060166,2.4600592884361037,6.024490118416681,-9.491143931205194,100.05089042822172
1680,0.04303946723634614,0.08181638390498029,0.9453747731549633,-9.069694783419122,-4.946093816456295,-25.173387644928663,100.00188264300385
1700,-0.0008008509825636895,0.02603071481910074,0.9967315275831222,14.618294953981056,9.061256833302762,-1.9151360657738783,100.03918304895691
1720,0.054782280265129005,-0.024506243929700206,1.0903747375168584,-1.3228737027655404,3.0010556535685615,15.94325272350986,100.04373514627474
1740,0.01858525289474384,-0.005233776164493139,1.0635600458723449,-7.607739523644623,2.0262703040190266,-4.063727740335732,100.00753844586558
1760,-0.030941272982410874,-0.05356922681477514,0.9774767603999045,11.125239036177566,6.637735340800004,-6.747130726281798,100.01281245863989
1780,0.0062379500857274554,0.013505602037058749,1.1378615410545772,2.6715503290665885,-7.83984970226474,-2.6743462410398386,99.96523266190964
1800,-0.050016420709359855,0.02824577122243729,0.9543697606556246,11.52488726198606,-19.043721184275604,32.06287380323158,99.991547250608
1820,-0.06685999646300704,-0.03530446905195396,1.0453872518334941,-15.594391417003507,-6.267174222360206,-14.39076038445291,99.99589623827741
1840,-0.05861746613499096,0.028265774916533926,1.0708077287168687,-6.212197174270633,2.131561591320393,10.55441820218946,100.0148726938012
1860,-0.03272829089131112,0.055994626142728134,0.9802125717654109,13.646882206998413,21.583926257260337,10.191969177957263,99.99205373220762
1880,0.05449060705954966,-0.013711739762013456,0.997166851685797,-17.708112700027122,6.282707461407979,3.103551658210109,99.98652772599473
1900,-0.07715242659576334,0.0852902065996921,0.9957133688797454,-7.257313107223172,10.768480240052178,-16.289188663120903,100.0050658419335
1920,-0.0374810050790278,0.03434204372769597,1.0491465816813146,25.123626161242605,-7.857856141119979,19.043158222838347,100.01652857608191
1940,0.01465728368445283,0.025709752158754446,1.1147554059019966,17.54330650576085,5.151902345231024,-11.485677652838017,99.9975324632427
1960,-0.05840277385239095,-0.006162814952528222,0.9830338149647943,7.339267154190107,7.972993577550609,8.081848157155978,100.00639230544186
1980,0.034628768120107074,-0.01251625993558721,0.9059709125116377,-12.179175730773267,-15.840265790996717,12.753463321150628,99.982264162268
2000,-0.04155384496599538,0.10342550521478322,1.0274556875266894,-15.947636947227345,-13.413535485034497,14.724799711511677,100.01288474862126
2020,0.062269349362137516,0.021926633363584754,0.9448467399850303,-6.312311802645084,19.01641462749817,14.071221154893479,100.04075817306104
2040,0.04897236648759309,0.009816811345690391,0.9629597578808674,-7.432716222026316,-21.29521487845045,25.829327078051037,99.97632898143837
2060,0.07801922585273588,-0.015039262096741363,1.057129690158719,-2.2498282072656375,1.1284539396502085,-0.8268575356376213,100.00424228322034
2080,0.04051566166975831,-0.021639849383587303,1.0374485641629079,7.114331620140393,-1.13703162344884,0.24643484672941546,100.00507808432201
2100,-0.01235263716819045,0.09808645157981372,0.9924427709589861,9.315197469899356,-19.237118047704303,8.663403956167025,99.97337620869374
2120,-0.033065012629891984,0.008407730050555033,0.9249693143172408,-3.1494084132511135,-18.925461397779213,1.1722872928133885,99.98823555753545
2140,0.0022785331138816395,0.05559997248843151,1.0399851145511096,14.611262746663463,-2.817149985196714,-8.619184344427676,99.98318163148626
2160,0.05444231401140525,-0.059797941844468294,0.9722711120613443,10.770234180046685,1.9015643140377638,1.9980700848602644,99.9611660065895
2180,0.06268856494814344,0.012016382742029513,1.0050411317249655,21.86486168550831,24.253185129003143,7.205347325157476,100.0396137740576
2200,-0.04471233133974272,-0.058971336507216615,0.9920085153120134,-23.26360873076309,-10.31869800511971,-18.383001538590626,99.96832620595926
2220,-0.023788947766607824,0.042840348261081136,1.0282155434526947,6.370128704194381,-12.937471942189514,-9.310694954174593,99.98224200340638
2240,0.02817158214342503,-0.04361494527300934,0.995878100205156,17.77978261761436,20.45036493366473,-6.393591226308159,99.99587606522563
2260,-0.059139745392899956,0.015793091984686643,0.921067930289251,3.0094984252060586,-6.346859464583739,11.601940122530868,99.99291166980696
2280,0.035852295218223716,0.0570307813985433,1.030382233682866,-2.437493668356372,-35.137199661100524,0.036112134327968004,100.00376417504802
2300,0.01118407632532791,-0.005213266370473119,1.09601147566228,38.01365650256092,23.32337496559247,-29.121118783726914,99.9808908846525
2320,-0.06087320301015632,-0.003843108467713732,1.017304038700525,-27.189837616250067,24.99335585016283,3.1300612012226927,100.0064238037262
2340,0.016335360489796454,0.028469499760695884,1.112516100767357,8.452651009320782,-15.231802616726245,1.7515461652860849,99.9629925359962
2360,-0.054486915965661166,-0.026919750207637344,0.946810510155713,-15.58158742194538,3.732424208892481,9.14086850026319,100.04268748246648
2380,0.03945416163152455,-0.06876378163895307,0.984520574879298,14.95687751355932,16.101926543831404,-21.032238478553836,100.01776519127513
2400,-0.08542868431443645,0.05379851792033578,1.0177262898874646,-12.524965829122637,-12.647081909472183,6.041802378283434,100.01943531724268
2420,-0.07557171236353394,-0.06700760313810071,0.9368118803505043,-38.77596537855078,7.410487480570326,-7.482667367262585,99.99294851743903
2440,-0.0045297969196433025,-0.03288279069178055,0.971660032212168,3.0349245276518326,-22.714006800128757,16.97487361385627,99.99840962493599
2460,0.017570702517552644,-0.039637141698209304,0.9876494376582359,6.041980826645268,-9.186657470311276,11.753257204025939,99.98790376956963
2480,-0.02135447740944314,-0.012099529938588378,0.9400386129332774,-1.0289523714020716,-10.640466783049774,-4.3687721381471984,100.04014170182518
2500,0.04337556270958301,0.015308897317163395,0.9399072379886736,1.4049476403779761,-33.255086131614995,1.906395690979409,100.00411683146861
2520,-0.038729350311208575,0.015831375787463162,1.0061476792707384,13.725215230598394,19.686730281210785,-8.826684847640205,99.56796154377462
2540,0.06122278373064939,0.07889381175489774,0.9737342611245908,29.14768162276068,7.8725859060620875,-4.0395767143141885,99.53556994358708
2560,0.028843136460471153,0.0751345550918251,0.9789484556576937,-8.987837700891117,13.57010991652246,7.725311406964781,99.55726096855028
2580,-0.04666532068000734,0.024530686367256915,1.036827593611537,-2.8716548802438533,-4.319480788585071,1.4289657346665003,99.52957078271517
2600,0.00709393525659309,0.08515103632491047,0.9943430913868683,-6.968348365394875,9.939227888431247,-20.23639294936703,99.56645642634643
2620,0.0688392819114768,0.0025123615127784706,0.3747664551517854,88.24855333866752,63.602586355183774,82.44715397604668,99.55279587347181
2640,0.012204924136962773,-0.05341239749331779,0.2812788728376248,87.74140749771757,69.88122694106829,94.76801407401592,99.54219571374013
2660,0.025503965995975084,-0.10547758784602229,0.4796061211109765,89.87443634385276,67.73104346086782,57.66720417551604,99.53610329060074
2680,0.06653758091876326,0.03387142905678377,0.4190147225461822,90.23564236035106,87.4095339074615,73.31095931986394,99.51506388353533
2700,0.023406489086184534,-0.034669807486475204,0.2714898364537396,79.58461614840898,96.4124251154561,89.19595474726745,99.55416004065437
2720,-0.02933684948354517,0.10656565435918311,0.38850721191727927,79.56414946522409,84.06811387659977,69.27220284394642,99.54896579749361
2740,-0.0642073911158424,0.04948260207651685,0.30533858313622214,88.15294073660984,68.11043239230975,84.54571025129745,99.56776370138508
2760,-0.009484275234708787,-0.03406493540764525,0.30667186026844007,68.90679911358558,75.81143948443858,89.0721342884809,99.58632221472678
2780,-0.03340448236685078,0.009451402722422307,0.3788506160671893,71.16322063905146,77.57320884483141,72.21443593455051,99.52981890386896
2800,0.0676094093249702,-0.0440879460036769,0.3542108732427173,74.44587169628184,92.77429217387922,91.0380500266525,99.54532147283616
2820,0.030448156280682755,-0.07254028477263266,0.4155114241267707,82.0872085409518,92.80952741192156,80.26096888981719,99.55879156902402
2840,-0.06708677620977498,-0.01742944097486805,0.408310336234699,67.4029360267341,86.39079093445967,91.17373781322928,99.56773029445509
2860,0.02065889052928945,0.04060441082268662,0.30331807735914257,64.47372652125908,90.37701626021007,86.38828782044442,99.51547238643
2880,0.07169163722828893,-0.0067848238170038835,0.338379540198668,77.70429214061005,85.46509532603875,88.49729897853118,99.55443836971463
2900,0.05958814929267812,-0.018379447752088274,0.40325790886996743,98.73539562843729,79.70603549234627,85.89783554241752,99.55131415729582
2920,-0.1040006629160317,-0.023664552959599763,0.2512177231088834,82.3618941116166,68.53099763167464,78.28738106832256,99.58725165025736
2940,-0.01592408252910078,0.08405445233472904,0.4242741722118856,90.43849072256293,77.29747380782561,92.33642602251408,99.56129962627175
2960,0.03562984536062641,0.052149219377571866,0.4014716450865044,58.92442621397671,86.93029010658498,93.92565450375639,99.53401552203474
2980,0.005212993679135708,0.0033933079598443884,0.33930653765550756,76.67863499251962,90.66613933264183,104.74452726686029,99.55460778467057
3000,-0.023283919566717215,-0.049138864858977435,0.35006982421685534,77.9225694803001,84.32637063735815,82.76365132899778,99.57624900069322
3020,-0.07660441083147224,-0.034525512993249,0.3400573443800933,82.05264515095844,75.6547135535433,74.60657710998693,99.56992692431051
3040,-0.016601315452838494,0.09010359534889761,0.306393822044824,66.71297186428271,82.51022316602665,77.02004376817041,99.56472074272993
3060,-0.013070821459949856,0.057938815169393545,0.34361964149142105,84.57553573664437,75.02297478323788,64.54665148949766,99.55479223155565
3080,0.05108560625743979,0.05561255354287258,0.35759573399451455,68.77972968649438,77.04149918969453,68.07472622673465,99.52769368858351
3100,-0.010190928466713841,-0.06192584369215179,0.3445770922297446,77.3077055868483,55.82718534606925,85.05449119753264,99.58757887362276
3120,0.07074021555352468,0.02481669299956308,0.28944631704218343,66.01485294106939,78.34478310331141,81.15469388330906,99.55294195642603
3140,0.017627542227711828,-0.08497671163392118,0.34002336158111174,87.90948562056909,71.65775603834422,87.0559148322367,99.54951515573684
3160,-0.007920283862314208,0.06011084197380972,0.42708931595063976,68.07284931832007,63.62103639133379,101.73367552961344,99.52377666782661
3180,-0.0840407044153826,0.03410628930333584,0.2878882221263009,62.27132850033131,63.66723494344915,86.17677699166745,99.53303995549678
3200,0.004786073502568092,0.06540956296228646,0.3458466510186291,86.4415278342201,65.03921636578774,101.40760871311802,99.55171875708453
3220,0.024187333008093847,-0.0397648644577903,0.3983871141656142,75.0595069710623,93.057829067646,86.37718790645445,99.54482891986119
3240,-0.007587530339984496,-0.13748546614908314,0.3438948010561543,75.14143584243132,82.74589464400316,80.04332032738606,99.56412979325492
3260,0.0632520756559765,-0.0029755634605823865,0.39281023503028767,78.27049126212718,62.80505046797295,70.4644013396846,99.55388446003467
3280,-0.0036937939202918595,-0.12133172254582719,0.37620711764720116,69.17545501274637,69.3890953243009,74.04501991553747,99.53502186289813
3300,-0.001149654095148707,-0.01239345063450003,0.30939883898462583,66.28732119087213,110.31270736791845,87.25912641012675,99.56637826643751
3320,-0.017087991694500017,0.08660180265888108,0.41245017162367026,91.46086906301733,58.59536237134718,98.0205734569213,99.53042563077477
3340,0.0323736598519716,-0.022496476602530197,0.34437835997006266,71.27083561489569,97.49391659059475,76.8683312991313,99.55889004993107
3360,0.01664851702781436,-0.05742053644265038,0.31168129493083063,84.66528097951283,90.42044170356269,91.89736921097222,99.5497457683853
3380,-0.02355379557692189,-0.0016109038482332442,0.33657040716952347,77.35843233899428,97.93761904773541,78.98774513941606,99.53910353497822
3400,0.055189455472442576,0.06855898977593515,0.320275133215308,80.8631992686117,96.86208391174308,80.8820791425756,99.53352085658335
3420,0.05195710841311432,-0.01858727918630481,0.33039408063319825,85.70622682741252,69.50916589826184,62.56808155955652,99.56439615969438
3440,-0.14719613522054034,-0.01499722411625776,0.35210858603421386,73.1625255418683,84.84943370780962,95.95530482428359,99.552300908559
3460,-0.02381595863897458,0.010882529542245944,0.44294291936429064,82.82473673948849,81.98116769724356,85.42145070396631,99.5574866796452
3480,0.04749365150882559,0.08780095948333562,0.3307702952957242,83.96668362363373,71.92800777435545,89.05639748204854,99.55190482009037
3500,0.007880610999731462,0.07620764183644389,0.30915586870862083,101.09666604819573,65.55083079461943,80.3549710148306,99.53530980245519
3520,-0.01136409099457257,-0.12279634877435192,0.38857420756913713,74.85629153489558,97.84031839610928,80.10125976866647,99.54434346633451
3540,-0.021267434385946027,-0.03951960258834721,0.34365833022428016,86.57364218160097,98.50266236469295,70.23871263704606,99.55895437870068
3560,0.0037578363540548133,0.029248375433333248,0.3225751032918159,74.76360702272336,65.9544539180559,86.04048976523863,99.54164348204586
3580,0.027164075896479224,-0.013676915152366366,0.2932009436825936,85.38854117739089,79.40024337039215,72.10980197261766,99.56046856280365
3600,0.09241102122667208,-0.04730087677299959,0.32210383140744975,78.50084876424367,82.68621202834628,73.76838345672795,99.55513922439802
3620,0.03661468413329269,-0.09346563999161563,0.24284400530513806,76.9940363345902,59.09797869241418,88.78368204036452,99.52702274202294
3640,-0.02143993536111954,-0.030406023017318692,0.25100138346561535,75.01610039845951,76.86164700725558,87.85496154531987,99.57660621409235
3660,-0.05539091696465678,-0.028767906294293728,0.29461402809918924,61.224915852358194,83.30019078448404,86.52223364083238,99.55051312087065
3680,0.002799294753584543,0.004524016661090482,0.31819136218025396,93.66778160976446,70.43313772372542,89.03442486172491,99.55403556533125
3700,-0.021184719299293303,0.0335376436742917,0.42618715649138966,82.7722667621596,68.61827498918375,65.12308378469145,99.56436463707652
3720,-0.06736387601368281,-0.01931305576235412,0.31528289350685657,93.6319260159148,86.45600578595771,78.12696432600669,99.53981659688239
3740,0.06648631711314283,0.04837965845244641,0.30908326570758154,73.682849800664,83.27181452342248,104.8962935180324,99.54863644249626
3760,-0.02456499204872209,0.031250326891675444,0.37082848219077197,89.76500737217961,85.75076619212541,93.23843347974342,99.57261744022938
3780,-0.1086392166390362,-0.08140926261850881,0.31790451117894475,79.05496132058153,87.18050459200839,94.08211665182893,99.56813808311108
3800,-0.026631694673761815,0.005422818701924672,0.3583324175078439,89.09878736765505,75.0649923474059,87.64140750963992,99.55914006814452
3820,0.08104031569443076,0.12676013887018833,0.37889329397691024,89.06990867861175,85.45393843704005,101.25192126634354,99.54303764626246
3840,-0.0013710023003091652,-0.06277012773406405,0.4008336758840212,101.85578580132112,78.95389278998582,89.23271503976805,99.55998384866027
3860,-0.0021691197172064624,0.03245906213123872,0.3237445859847571,104.76524973684784,74.25922717373795,70.07079344089344,99.55454831575565
3880,-0.021575715830257025,0.05166465351635413,0.30046388036470045,87.77591148740386,65.02601456955946,66.81366325915593,99.57216960318588
3900,0.09655431368872305,0.02769226939341904,0.36905510050715196,93.7117241742344,69.83037600103906,69.12411365309384,99.53928065794334
3920,-0.06912021312175494,0.013481846311473398,0.3389945532379353,86.45939612369638,97.74441477061457,86.48968304735165,99.5271438643994
3940,0.02276859678103988,-0.08601433343120878,0.43593908503768614,82.69369228777855,73.02940993601892,66.34755162766074,99.57748715305554
3960,-0.004915062442487145,0.029948551145661896,0.3668044966725091,67.71310947356893,90.24499867083068,69.99191145193704,99.58547431751612
3980,-0.00267884938970173,0.06924142312653278,0.4296693892834362,66.62956268468739,97.41177113838211,86.80642151000711,99.55698567007644
4000,-0.04264740845429513,-0.004790953673310568,0.31928752285000916,62.826874637260644,77.35299976445796,68.41945448106324,99.55351654252873
4019,-0.01789640773952944,-0.08021192872242981,0.299423362657944,65.64794652784875,69.86086541901668,96.0148730574097,99.56317899610386
4040,-0.009078040054095763,0.08718356997471291,0.32894678212088957,107.54925885533159,77.14523907580161,54.89225894066972,99.5499827705491
4059,0.008439588075710203,-0.03735987442838922,0.317636090771188,68.11961722983135,72.97482740462678,81.38577129394861,99.54334504586916
4080,0.04957978512276773,-0.023549019026566018,0.4183729717778238,63.32696159035051,68.36383030556044,105.05681084312391,99.53998937296689
4100,0.030857435573340305,0.0064463654884960395,0.3467412958400173,90.21545883295717,82.3883995323874,74.85348284287221,99.56860935964173
4120,-0.0187497450898353,0.053591238500905886,0.2899585835912022,69.13715935530578,90.67002300853966,62.56632267922876,99.57070558890956
4140,0.030086215094723253,-0.010378700310690745,0.43983690776666884,84.38811371144678,73.78363659618104,76.91651104418666,99.57585884362494
4160,0.0521697748352982,0.021955920764120854,0.26303361891608706,69.35802309564079,70.79569270169023,70.986412628296,99.52632997926277
4180,-0.13500281056348207,0.0428831354177193,0.3407333038982282,90.41615329628061,51.51470748051408,97.43915233181595,99.55612370983778
4200,-0.03464045234224294,0.008364907528534478,0.37141855670385426,105.76015909345884,88.8542241559718,79.59238490470462,99.5186788913582
4220,-0.026728745636498016,-0.07292600359750902,0.29453581560856756,82.2177127291441,72.9818687117405,93.43268202338363,99.56412734395583
4240,-0.03521452121101663,0.033169570844829244,0.3745342565791111,76.96722554905904,69.69028118915207,74.92473300382528,99.55337213312104
4260,0.0018014895036060907,-0.024151251755512037,0.32893711528310876,100.4338433312871,89.71857457507485,90.15429009544279,99.53387244810482
4280,0.0022197062731015723,-0.06327120758363951,0.31645064416412083,63.32788487365546,101.36015205270982,80.8320707059624,99.5614340209196
4300,0.044440516034517284,0.012547792515660412,0.345568168893122,87.65454476600675,82.80524406508857,75.03820910324023,99.57077799195787
4320,0.028381185108487146,-0.06251274220581178,0.3867340152418795,83.82105229037218,83.23362063343579,86.32902555867192,99.59028721384871
4340,0.007847853781764778,-0.020209756043828422,0.24232566526103483,95.50593454587471,95.44844173660712,71.76589724699801,99.52626121534452
4360,0.0777554428699137,0.058915462322409407,0.3307417034365595,115.77397278427735,82.18124888959689,83.98727238723191,99.52313296637908
4380,0.014633244557296227,-0.002325870239611913,0.44491724779117753,69.67919091303216,74.20492462041358,70.37474266529644,99.5518747195129
4400,-0.024279295435831613,0.0018638057463922853,0.380045309040027,78.38612699406394,83.23063036079249,76.01438572702372,99.53516416076319
4420,0.012251569291641777,-0.05364573548545004,0.46679601174711177,77.42086591315537,95.96799294127905,84.96929251155782,99.54442884567648
4440,-0.06421414386744477,0.027974915073870732,0.37431205955161945,58.796536349767365,61.825129971816864,46.70056951779834,99.57595082953567
4460,-0.1387685828811203,-0.003987517732673466,0.33753754643970474,94.85517634263913,65.79684990607203,62.41085781201771,99.50199336817825
4480,-0.012736710034545693,0.0761767789690929,0.4478815987623957,58.578686618302555,72.58165706532147,85.05001790889501,99.56867620756945
4500,-0.04400523711881035,0.04161136791523427,0.3042758060137247,87.0317226103676,72.39484385800408,83.45480130013958,99.5407565620284
4520,0.02842725320615937,0.007799595032104405,0.2839167059223793,82.4350748303377,95.6256013100969,82.37053167244252,99.50978390824947
4540,-0.00924042968995942,0.005758897440650118,0.3794199106192033,84.58801161445045,89.41466977792733,81.22570849925908,99.55729670429658
4560,-0.020270876385122833,-0.08361209500872163,0.3363127415451894,67.63678399042497,77.32080954545356,92.85999450813108,99.54723827718279
4580,0.0732165561951078,-0.056719575857743156,0.29565072115852337,84.50761863729481,91.29666437299035,86.36646929022723,99.60435994375608
4600,-0.015518056227602207,0.026042782344502715,0.3838380492003533,58.94846171151193,67.41370220862109,60.42790768711109,99.53221352044656
4620,-0.08032485029972515,0.1265124428919073,0.40560305303418415,74.78378595125302,94.2713299670056,82.15912131279474,99.53992820612432
4640,0.018396785661249283,-0.004641244661728255,0.3771532217656369,66.91835844816171,69.41772587464429,64.32971801236528,99.5486055755635
4660,0.006005154577599027,0.007571947929201736,0.2689927029238368,60.59657555083361,63.113437588780414,67.4280718588453,99.55737779958254
4680,0.008451638662257687,-0.03206668660246211,0.35880942354415846,66.68728328060432,87.44447608131136,79.64930440851553,99.57368376137815
4700,-0.03946132753653877,-0.008165071996823505,0.3606507637017172,71.63602059886179,68.51300437857756,59.550638432116415,99.56278455760363
4720,-0.028717302425629754,-0.004686917437892901,0.305541023111508,89.58166557158286,83.44434350728626,67.93987620229693,99.52092113086832
4740,0.00013267989110122573,-0.016609955897498103,0.21917971197220795,70.62733858848313,81.1253846887423,84.36540659105633,99.49881289562987
4760,-0.029852741134847257,0.03935274769140168,0.3591357210385478,81.07340768847115,68.04478918421711,64.28683374423167,99.5395276166739
4780,-0.013151094678552475,-0.05707632289646161,0.2852655420953303,74.30112971245092,88.73811570684688,57.034521478887925,99.51892585517733
4800,-2.020057841555764e-05,0.0022739275061055557,0.37829296511105137,73.97618360551431,84.44466433943316,67.06926249721752,99.5350091651081
4820,-0.0657521537953253,0.01740137553049959,0.3363230366291674,85.28397431034773,74.6193926022977,83.30635335541984,99.55020990961198
4840,0.013774567927001814,-0.10599945856904208,0.31822661661515766,78.53839715106355,78.29432291712556,89.50642937885875,99.5492881526125
4860,0.04760989568376569,-0.03142139378251175,0.431317186106046,54.86389993859898,70.17863055174547,91.60429548075686,99.5511044050886
4880,0.04327576297522315,0.03148492657039852,0.3732707497347379,86.4419831220674,75.06910111160207,87.17920008642452,99.56466865196853
4900,-0.07303965301689123,-0.035820978805791125,0.3690710424233008,86.31522272583682,66.77717698080987,85.05025830748647,99.52755667374045
4920,0.01059932057494322,0.09239725902682312,0.29626517054510426,94.84152975038072,93.70592211574143,69.55650481627265,99.57353703395228
4940,-0.0026716075432641996,0.008478013325861991,0.34965027395212117,82.78358251083957,79.59043074104761,88.74769405699648,99.51523536424428
4960,-0.04075151791128814,-0.07603979558412077,0.3871892403301438,86.05476740751268,76.25394830709143,66.0223235119326,99.55170382366566
4980,-0.05485098143416986,-0.006721316338396341,0.27022700377702685,93.88451933217453,75.54625961696208,47.96204540694514,99.5613051976142
5000,0.03903408529766757,0.031009021741132493,0.3634961697692394,75.52298188748574,57.978301493266706,80.42632509830817,99.542837137908
5020,-0.021730545230954322,-0.00901324002500708,0.38475474144480604,75.58581675024692,88.59349133768268,60.13686246317143,99.57333753474178
5040,0.020095346094804137,-0.009760885058204239,0.3514687483444581,66.62814800819416,81.25266195410822,67.3865643434323,99.57474619015561
5060,-0.051049908710083816,0.017336291763084995,0.36042070201806237,96.0355353690818,86.47437613771169,95.22761808473736,99.55083293788074
5080,0.02195617109164616,-0.02760431444270166,0.37312214224723345,52.8658219662488,84.46919630498711,88.96161044701019,99.5430660235233
5100,-0.005872270082089921,-0.0046989220636665325,0.3850095886658146,78.73889413916113,91.54404185083968,64.56647778508967,99.51477826802234
5120,0.002478176980609515,0.03321581315305346,0.29469300851362706,64.81454939324591,78.38667922852302,65.141589456006,99.54183085166322
5140,-0.02754526737815909,-0.009951180548583329,0.4259881112173824,79.34572802518022,87.10231827515516,91.42807995960868,99.5567066518924
5160,0.01971255387430315,0.08423075094342074,0.38006102552209886,85.91908224549684,89.19454241439576,64.39292329110302,99.57040150069331
5180,0.049901040320094556,-0.048957233520571776,0.3045213536554499,73.89128218060064,82.42682560326217,92.3303764361444,99.51539764208505
5200,-0.014330536339676537,0.02881380811998195,0.2785085354306932,60.80446422516749,78.46584851964055,75.47772963181328,99.56859186578457
5220,-0.0004929982601215412,-0.06261675963907237,0.3474620131167326,81.25745366923029,59.73138420468544,66.82535365587691,99.54637773914075
5240,0.02359529937312581,-0.04659356119757605,0.3043078000486577,93.44238967008661,82.80457172396632,58.99559230203859,99.55543731358624
5260,0.007606224719150331,0.014573741146188113,0.3419631497681098,76.51906404092193,54.13648313731055,82.0029439437552,99.62209305899918
5280,0.0343100104070215,-0.06673632112890165,0.3043460589043538,75.85483583515008,82.37330201443453,73.47049505083004,99.56756720249595
5300,0.0503892740546652,0.005468273687448106,0.40784229830206775,89.01752355841504,87.8903948350584,84.31993819248127,99.54868796648834
5320,-0.05376025461353846,0.07101753333689514,0.25721769019633367,95.21570244073689,84.05346534501952,78.45145781456928,99.5317379303623
5340,-0.03568406263906287,-0.026978920294823735,0.4188328182246723,77.13020704956762,88.14494128808767,75.9973921608811,99.57346318105435
5360,-0.08168982152051313,0.09673967336233158,0.25962032590909007,73.25739301802184,82.21803159968526,66.13223901500245,99.57791037487385
5380,0.031174284253359066,-0.036557278914919396,0.35709285916866773,87.15735203167343,90.26297072267148,82.68597376435541,99.54070421235733
5400,-0.04038874392184583,-0.027014712995049695,0.42372279815448566,77.70026786207438,112.62226836558841,85.47781347585142,99.55134300891693
5420,0.04613498973417598,-0.005474582263859804,0.38585330049878325,102.44523591219664,83.67794741894356,66.75740007523967,99.54573818986051
5440,0.031579522364705064,-0.07976134543753555,0.3387246742293191,79.20688993976236,81.195184646389,84.63313898304257,99.52446950710858
5460,0.03729682241242268,0.0009853237701482004,0.34745917462506876,88.17103530040234,97.8275323135713,68.65764302839331,99.55072871012123
5480,-0.01651496209873162,0.0845562798206747,0.3641409899744853,72.35690706935104,66.43898925224086,66.00441345262067,99.53624048611006
5500,-0.030413749591018197,-0.039458753789196055,0.41433624904040045,86.2770689720291,87.95565159844072,87.41166019331013,99.52788255725922
5520,0.011247277363085291,0.0267805880106808,0.4203541211459685,72.14403673324952,73.14502594067952,73.97526386127043,99.56164711313984
5540,-0.05274264323851344,-0.04749732324565863,0.371481719207172,85.83045123296351,95.25537096508907,69.54834702583949,99.55772282186194
5560,0.042861660523872754,0.010993834228893202,0.3474650459313935,79.86878990304824,79.22824359241159,67.93589445050412,99.51881139252869
5580,0.04186058726151723,-0.0602475732680966,0.31633014904885737,104.5471920912251,75.17360497104764,80.85288496119689,99.53340406520604
5600,0.05011676467387301,0.07221698650733814,0.34311916089251954,88.6922189243168,91.61827046728222,74.1204339853644,99.54319885955482
5620,0.016466354081269754,-0.07486387317399688,0.3199995294566773,78.05689963171955,85.23548487802184,65.84022160881695,99.53439579291093
5640,-0.03343943745176527,-0.014099352344866806,0.39977027781147567,76.24399233754642,83.03975285697979,88.48828867964744,99.57762377965354
5660,-0.05614315963551861,-0.04622929024709288,0.3266543430153742,84.41976173499908,71.01490836451796,85.22182667676604,99.53219815592587
5680,-0.05153406314938648,-0.02762089869679027,0.38779924251398185,75.44239081732312,64.12976831875218,113.76291981158455,99.53137553029433
5700,-0.05713209020012368,0.008069916103796291,0.3435730972231664,57.12021532536009,66.98571172115558,61.732065280952156,99.54787424794137
5720,-0.01155490751776833,-0.020983528204046573,0.4613430969808707,84.88415700234405,77.99449411343696,79.51722992687934,99.50729029187833
5740,0.016102431193119975,0.08362585875888741,0.36279282356910014,84.76193110617326,93.68347215433128,80.43472461623269,99.57316600363184
5760,0.06327294246940865,-0.02980099885213557,0.37080618756221306,76.83565683443732,80.88322929279656,74.5118019857575,99.55564728819674
5780,0.005827143170869801,-0.07503916511669899,0.2796556921061816,74.66342958816907,72.88792256598502,110.12069253011795,99.55651529407926
5800,-0.029151148935642142,-0.025258649953561703,0.3744731613403558,65.80697811426086,101.2877534986026,92.06850265510325,99.59065822728783
5820,0.027681229685175498,-0.09935981186116138,0.25804930513323915,74.35863307695847,87.4546791270893,63.089122933405754,99.56733084824336
5840,-0.018526015372145026,-0.021601130180640887,0.3272762381079572,63.7402738855532,97.93051015570914,68.91582333817311,99.55037894320128
5860,-0.005758865548007182,-0.04343062347675072,0.364956530000021,90.76417282792328,74.44954751109316,81.12373161258398,99.58384982535749
5880,-0.06339874522072737,-0.05014877556049148,0.30613929743183843,87.19751385637556,85.43850238764524,72.23120340571245,99.53733302167893
5900,-0.05595760055751943,0.003974204846953527,0.33814747996896427,88.49707631329585,97.74939932488951,96.81765660537685,99.54888135267092
5920,-0.031127563647377732,0.08208187362834185,0.2640526731339081,78.9124594282179,73.63476261919445,91.13142509168703,99.5514446421975
5940,-0.007827439282742996,0.01375302616671003,0.3206003106900961,54.994212819250905,54.21545336349138,71.64976784644564,99.54691941161238
5960,0.02214275624343781,0.055468012240641754,0.3740581012233787,74.57086993507099,94.51454769656695,88.20476304168612,99.54203310387868
5980,-0.04560045287435925,-0.043687047256430245,0.37243794701798144,83.32458789417355,82.33069995053663,97.13445823353861,99.53177464694323
6000,-0.0003231000068403158,0.03931283206611656,0.4020188566619372,60.85997853636901,70.72318474554412,74.5889148914399,99.53435188755037
6020,0.04694098934307631,-0.026571025820360875,0.3712673799999815,111.58614416797217,75.41257458348367,80.66147581172278,99.51957066835969
6040,-0.04338467193314824,-0.02969252961552872,0.3931757333589902,94.35307067847498,98.160566413069,75.04515084900149,99.5115857180026
6060,0.03984755485418115,-0.0015087605609391068,0.31217545524826196,68.78025302853399,58.04031164360504,65.24954779677321,99.53703125716552
6080,-0.029789935936453293,-0.0520269216685044,0.28914028399009845,97.59966607298433,80.21260235564435,78.03966597035087,99.50501716904076
6100,-0.024661433029393033,-0.03142853520969054,0.3404402831583282,86.41299809818025,90.71974363042848,50.26340537058772,99.54817450020738
6120,0.009856307774437134,-0.002593986115764127,0.36357455355921153,44.91592848455252,90.97669817128306,74.01043075470899,99.58176874364709
6140,-0.022539692581802332,-0.010056710913540814,0.3487541339529974,65.57043984225128,79.27185817062713,72.1955532504443,99.57215467910312
6160,0.029595009811866926,0.02196490885412647,0.28824869026159816,108.57973383972985,68.38738058371653,87.26499782087073,99.50516831170613
6180,-0.014154126404140148,0.008451363437261866,0.33781860298859445,95.40478549468341,89.83322565854445,70.60065535929948,99.53468675209771
6200,-0.04510211262099807,-0.005752221803318514,0.18702962166822154,71.19721920679366,82.97154090993314,73.17861355073612,99.552418088343
6220,-0.044114362880125435,0.06931414660825909,0.2901840961337055,91.4174703788748,92.79428204605375,94.17746825733651,99.56830976841718
6240,-0.005132598192234173,-0.058037175957779644,0.3712013267521259,52.88281807368021,86.21806453552546,72.32384816794014,99.55920830494023
6260,0.027631665792589494,-0.002571257719218907,0.3862198147461642,78.55255632513258,69.43216590524003,85.41593701895859,99.56270751731513
6280,-0.055901737145342995,-0.016220762010406776,0.34036498079229555,92.30040548901898,86.5239916978631,85.5396651540463,99.52823389193587
6300,0.055746898991759275,-0.015481064575546218,0.35959296757370585,71.61973666851313,85.78826232917595,104.04378936970535,99.55459240643235
6320,0.047147785311706186,-0.051472208536842805,0.30684418168890953,60.783031424205404,76.8378154396285,93.69217804835766,99.55524039711099
6340,-0.07802231146157101,0.11952974601794533,0.40099396386462555,84.16413100536083,88.42825427774882,79.79640272895962,99.53852532492604
6360,-0.0011753784109195722,-0.016692749998624423,0.4269543007416673,72.69103628419282,79.40359891966135,87.73850809115832,99.56809110988509
6380,0.06802762253714477,0.023790392018245267,0.36245769454994503,83.85509945511043,83.5557210734924,68.75278236635947,99.54945620755198
6400,-0.00821124794097084,0.05667108594326719,0.28241611469010197,92.05380487304969,71.99482636699662,88.09451126039546,99.54282399084508
6420,0.010141278540027568,0.10568628500193034,0.34444737420106947,73.64235160737213,94.87616614481105,72.45178253023757,99.54367863043024
6440,0.01852744535810169,-0.00574453200109581,0.3861045910178551,76.1942714349596,59.80685956571094,80.40555928912754,99.57804278234093
6460,0.0021617085235564534,-0.010181511777817287,0.41143085453290357,86.8722161302593,93.0507521688279,95.98388056736681,99.53627253350345
6480,-0.061592789324240386,0.09380146870330956,0.43895975553835753,69.18189229877562,86.40214791976679,82.49386516781506,99.54627448746135
6500,0.07475419975297976,0.019297388800021867,0.3487969122990349,79.78268734091752,86.50013643303403,73.4566329328477,99.56590825770087
6520,0.053852899359276334,-0.040561510297518456,0.2945727575268952,58.41048195873198,64.73574608616264,98.4356731787592,99.55424418469607
6540,0.01784817544906162,0.035023306070802646,0.3501658257799131,73.69050222535319,70.20539084766136,65.45563097518477,99.58009529517015
6560,-0.008781590168524865,0.06608427252363255,0.3909884889258055,65.5246109797625,63.68984640771177,75.92582211847356,99.53315454321258
6580,0.05847658658555384,0.04777561354664832,0.3335528171429255,84.73413017609853,71.42678658330291,65.51853670222715,99.55732538516888
6600,0.024545030013725832,0.025008556875225064,0.4266455110183282,66.86097850336677,93.8335783120724,79.04726235199325,99.53524220905561
6620,-0.04595130836147233,0.05930877662787455,0.4114533879211968,70.65554006206126,81.30565318675897,102.85490039930184,99.56261543316185
6640,0.04347697816032185,-0.014304289398982251,0.3995560304939801,93.1680323322401,97.76411912485196,93.16669221292119,99.53784051746312
6660,-0.0013798455333296506,-0.04246676899843062,0.39832929164657976,76.70317718551453,74.15750042261347,60.293180781950525,99.53002347186742
6680,-0.008173208681194899,-0.01941368966605944,0.4270399593843125,78.7793594914812,84.53414337111094,76.45472770294724,99.56575438488868
6700,0.02182735067014372,0.0023233161005488195,0.2134975173973999,62.777342702682006,78.6326152839762,71.54636819215757,99.5307328576061
6720,0.03938698545722934,-0.08942024809951483,0.24947839851620773,93.29463588171025,77.55328051356175,98.57139646600663,99.5631075440556
6740,-0.00879699764449355,-0.014628810938360296,0.38464605557533715,71.35478669387416,71.74532620804452,73.88880371811122,99.57177502965305
6760,-0.057313085175280526,0.005603710152453736,0.3658435811448629,79.3006669387024,84.20055254747838,51.82325768410705,99.53241802584353
6780,0.02297276614698146,-0.041047076914207926,0.44705057602447873,75.78925701992544,98.75550784616493,93.41954156541246,99.57120694831525
6800,-0.0036860410575864783,-0.056084803658647646,0.31995914914482787,49.10502759046682,81.57601285438959,74.71773908731241,99.54922035720503
6820,-0.027187142141449135,0.08495508856296054,0.3902165874945401,89.26388213211696,93.98725584790883,81.22119424503751,99.55613444358346
6840,-0.10191731573435801,-0.03042547902745001,0.35942775868034493,70.35341734079954,69.6009090925125,71.98420941333696,99.56946652777806
6860,0.03304184731000579,-0.07147603233007979,0.3755450933791831,97.56855927961368,81.31942951195464,85.86670136749922,99.57143097922082
6880,0.06312353509542422,-0.07331516189429661,0.31912934169322676,78.66971643121757,68.71990750143298,75.56133968058714,99.57509758405214
6900,0.009730948856892234,-0.0758576307867276,0.3120838021331024,59.192216578842,88.59338557277476,82.19273880210974,99.53171961587535
6920,-0.0012529916286905056,-0.0016809030733802432,0.3956504672178123,64.38719336816334,64.88763042989483,84.27136914751257,99.5574699938125
6940,0.02453831076393896,0.023124086291830475,0.32982424209910993,77.26501733624276,75.17336026955996,91.6237272987428,99.53930561847444
6960,-0.006013651443190238,0.04308380915354658,0.2949056762405087,67.30986818863116,70.40596678182095,78.13215764938137,99.54018318502939
6980,0.07881499595452704,0.09161719677250352,0.3937543740193311,82.03167246722423,90.96114124585499,88.40565760576159,99.56784634876772
7000,-0.04437587216491795,-0.05553368224007843,0.3126641975881621,84.04664426785749,99.07170756693921,85.37397996461263,99.55886029764855
7020,0.059629899778393114,-0.031268448261277816,0.4208044792102724,89.55924792523079,82.0988379734617,61.64786092397603,99.58277648769096
7040,-0.02956390243337191,-0.026075094631248404,0.36249103885665074,89.79704545792909,90.77759511072888,72.0801876856374,99.57943088087784
7060,0.015583329927660334,-0.06007302904392395,0.32092071569522873,96.21308092386707,64.35142457433844,88.15821413139285,99.51253434638552
7080,-0.01733316451333232,-0.01298858367683426,0.4214997870740504,100.21260319486734,86.33835514429661,99.41385208629532,99.56328668683834
7100,0.01476473619487628,-0.07011773246153971,0.22245438521650976,86.2905400051718,73.09902328355915,99.13605696332192,99.52664857251838
7120,-0.05067068948128835,-0.015840006129339366,0.4067443938166093,89.9692152366368,96.18051248842349,75.33080551467214,99.52644032618308
7140,0.04046406330243902,0.005315622467795277,0.30800071701750176,90.47160003923767,70.87249180832511,45.30580710704789,99.57423266949854
7160,-0.03734771890963289,0.031522212164055596,0.29722893466587474,78.91091160885159,80.86689476684207,56.89246573320662,99.53328536250106
7180,-0.009943127285746079,0.021045983463346563,0.2383403059412597,83.6478810827807,83.89571167695954,68.01039320598768,99.5537578856627
7200,0.07267523600783661,0.10959434195020885,0.42299491555800417,72.81666419997018,74.5661084193433,87.55532023170194,99.54886736376241
7220,-0.006963200271243023,0.01357705321737767,0.39482244586566906,73.71473899777652,89.90383179837993,98.4346279166086,99.54914430990932
7240,0.01705601343971957,0.01261112504423955,0.32668968460793063,85.74147426401632,109.82888359487498,91.92705595990047,99.54744228614575
7260,-0.0995088302305897,0.03543699389118559,0.39747486751731875,101.33290023689335,71.0705845730931,97.261696988313,99.58840348124728
7280,0.032681635782999215,-0.05898474492272309,0.34923054039081625,67.1410220487916,89.1609001232767,60.467898099574086,99.51143496952841
7300,-0.021496496048528754,0.04400826229289659,0.39981571404146576,81.19634272540365,76.11539597898981,58.940654554754346,99.53170402637623
7320,-0.03748141099171575,-0.024309675558842975,0.3815370326168577,60.35924407960306,79.05566165206399,82.57763143504393,99.53653394841163
7340,-0.07509346282645507,-0.011513552672612427,0.32898640120502315,87.33349942591843,97.31542678653192,85.21271516754274,99.57702239564127
7360,0.09962724677761597,0.06101654185667166,0.3500331921762155,72.28954857218265,79.78120008051445,94.22335108799595,99.5380450794584
7380,-0.06159824944208603,0.0179504127191699,0.3739597050010802,82.52183426824764,75.45477052814091,78.1566773444577,99.51058044087951
7400,0.0720383089260516,-0.013460914894102408,0.33608834237577473,77.84431998036784,89.26169424113931,58.6865076819967,99.53044590492682
7420,0.09836390312637401,0.02104078654059274,0.29601956396870666,77.14894366484661,77.31189648996275,79.6897078932665,99.55773590230595
7440,0.05535439824871133,0.03612050507093271,0.3565191717850789,81.25775842374748,76.78111853642245,68.48396069666852,99.56814753180106
7460,0.02582470721643465,0.07550704980246536,0.33130826902173943,85.63245822852356,91.30829592806103,98.91729853940508,99.51615871990799
7480,-0.01422322365045087,-0.007540626062535978,0.37739817694750805,60.175930360385564,97.9880680253018,82.15902822884456,99.59086995498238
7500,0.0020983839713280207,-0.036965101242311386,0.32359483910842185,89.5086187077433,85.45837544259544,87.21455437772265,99.59335800995956
7520,-0.014451193540727809,0.005584274409123353,0.3738932320424458,85.62189899374032,97.02359927351169,71.00178054393905,99.55496757228217
7540,-0.009093672340948229,-0.016531822419993857,0.3928354875551659,73.81926063049055,93.4799774379659,85.52231474066353,99.54620071376294
7560,-0.0764451421141441,-0.014369406768363341,0.3335308405580343,76.4245251422706,78.24201007731787,87.29699814997231,99.54624611582798
7580,0.019844109994174255,-0.01718655353822327,0.3128498851770474,97.99795442525414,74.9581734841164,91.0566680323483,99.57792450433242
7600,0.016957412479414482,0.004110082608980772,0.3362845173898421,61.02459937113596,77.74031037809394,60.30121901732517,99.54745787388585
7620,0.08395828662955263,0.0789896095944268,0.3393694010857466,90.55913393480407,73.69684151223616,74.06698126294954,99.53131636051299
7640,0.06684269395658356,-0.017183223384756037,0.29641622785094357,88.87179736406627,89.81256210618884,72.19745483415521,99.54512248530853
7660,-0.01953942434418539,-0.0003139907957863587,0.3496419326636863,93.59173452482624,72.47818149071405,83.72878113520446,99.51927674306717
7680,0.00911449352625226,-0.042864429566299087,0.2818880996899419,73.795078508952,71.97144586125904,87.5201706096308,99.55202582877683
7700,-0.039552253854526806,-0.04793691703703881,0.39517451479519294,70.63555887602443,65.01928954429198,65.85140344421114,99.57855297091308
7720,0.031688293904826345,0.03716534539927425,0.3058321268416964,83.09405467604266,105.30165503564564,73.47987127991057,99.5602717330555
7740,0.0524933479458929,-0.06402951282246916,0.3195040361663733,78.5717055845188,52.19111270937909,84.62843302865566,99.57300692545661
7760,-0.022801919114078598,-0.06278888157628208,0.42181672631360223,81.10718982669965,79.16741671557745,67.7362553055332,99.57968970220679
7780,0.022050583136808417,-0.05448385030814065,0.39323808381694014,71.01166635174386,90.66273168984009,77.92021312354366,99.5326234755216
7800,0.06477534961104507,-0.108047810733344,0.4004626767996493,79.98882004718479,90.92827658467385,81.90677972987837,99.55200130663205
7820,0.03469844278877357,0.011459387081499784,0.30803522535824607,115.22940146632067,93.3924885498592,73.22457675858357,99.5635143268395
7840,-0.04524078065518204,-0.09736245477584647,0.30187930997220247,82.72164999468474,79.02648760482751,71.4786678551238,99.56296213425297
7860,0.012590259520947854,0.017595064132358944,0.2851177110327021,91.71182918090867,59.84304891500521,78.2118071268969,99.5697243322959
7880,-0.123022684050992,0.001419351854701639,0.34678365565861596,62.37412697967002,87.23711352732863,75.91346950821195,99.50999575396457
7900,0.007991521027025827,-0.0616675497023359,0.3615725661269334,81.35062118927476,74.50223880647764,69.49629741184832,99.57447189582896
7920,-0.03499289267166333,-0.03143902326886337,0.3700477589583957,63.38556015310763,60.00840344246873,71.19024389130638,99.54615209510575
7940,0.005899898510409529,-0.07476971378399909,0.2551012791176204,82.07786978988302,95.18738866508951,72.89262886088575,99.5700874311638
7960,-0.03146838470569751,0.0067336599994445474,0.37193558109137714,74.01842418844963,90.8410073160564,99.08009043905457,99.52700179112854
7980,0.03947231571607684,-0.035299113933059977,0.3431965004310794,56.65671331249972,62.17363811415116,70.1471104923397,99.55864728513131
