timestamp_ms,acc_x,acc_y,acc_z,gyro_x,gyro_y,gyro_z,baro_m
0,-0.040827560150560493,0.06731906057957603,0.9792089842005193,1.2840397499561143,-19.58047911681273,15.861551567803712,99.9905890470447
20,-0.041696264295590646,-0.03285017601473986,0.9944323986648972,0.9922382151952103,-14.121468906674075,13.87619382001404,100.02057752900299
40,-0.056033075189712116,0.13146927450222853,1.0246001241057499,11.774441472468965,-17.40279155932079,13.316921472731956,100.00684281167496
60,-0.019352217198856075,0.11730116031126865,0.8984875311895,-7.341917530055051,-11.746211567444409,8.802124308438266,100.00061114322368
80,0.10561877251843355,0.026489461754919164,1.087806027848792,-8.83143447881899,-17.66770024052675,-7.255041782431093,100.03960069705532
100,-0.008282605941721853,-0.0974762295540802,1.0473503796755337,-5.309271819111732,-0.4986036263430771,-9.76079936471561,100.00645413581455
120,-0.07106279575118042,0.04008958535104605,0.8689703836237587,2.398661995572193,3.6702282831017907,-0.503489193156839,100.01114869656342
140,0.1388802646281722,-0.042065721183987034,0.9402859374787682,-0.5303763228092254,-31.052716408470996,2.344454924405057,100.03389132547936
160,0.06456811612283131,0.0023971520652130082,1.0732335825510855,-12.30434591214669,-19.845462835447467,-2.251199351455586,100.03986966175296
180,0.00036773834104345855,-0.04065027462498034,1.0071822224555715,-20.637627324108372,1.4584879181844128,21.013100406920593,100.00610660536329
200,0.04775221192461366,0.014485250784349242,1.1158277024990237,13.896983366936052,-4.573505991166087,-16.518654102861678,99.98715909017558
220,-0.04423909180067153,0.06895761098304902,0.9711601078610216,1.6833049702754113,-4.729382296800515,9.810540770910563,100.00001960646158
240,0.05084142683195349,-0.04140091618696776,1.0565307469407488,-10.333302527487058,-8.991560961328975,-7.478317817597439,100.01653904482744
260,-0.08632169083892077,-0.008949214540575718,0.9829211712185967,13.544179944523693,12.646053898738312,-3.0464557945240927,100.00412482611125
280,-0.00898211486971211,0.07132833370011918,0.9853366310303323,8.766203276672764,-6.695715908553318,2.9304199454382136,99.99534298244767
300,-0.001449731510840309,-0.07360591335316868,0.9531959592964514,-12.469537586477,1.9851402398588935,-3.698955096921217,99.97139006962551
320,0.016052139881913452,-0.05312457938609869,1.0608392719711837,3.3118084319660483,-1.7438157493372934,-4.579626934982802,100.01169306457473
340,0.043042801254507074,0.025594054114551863,1.0111137392927965,14.372871498086475,-7.978977680382425,-18.85745250559341,100.03544102130097
360,-0.049252395972984836,-0.042867369623623884,0.8944692438665489,4.364700761465016,-11.007207908939028,-4.461220301207191,99.96361653526886
380,0.005105829382958983,-0.04023893526121829,0.9299188114619269,4.625834242151477,-7.162429720650078,-7.89407022768658,100.00926580890827
400,-0.07910948351989333,0.007920712013770164,0.9794755174062588,-0.2447266563081001,15.417119682492826,-18.513922988560537,99.98616767869329
420,-0.005519647112935826,-0.005366618057311244,1.0101667480527776,7.0470032182332485,5.326481224918826,3.619601551983468,100.02425382472043
440,0.07089386105969155,-0.051991487988943874,0.994166847590026,1.5632982722175992,-17.847690189803465,-2.665870012047675,99.97056913079057
460,-0.10357891252827821,0.017392723781244908,1.0293717182343207,-8.393699457109882,1.7329354481781007,-1.8235966083397104,99.9994760437467
480,0.018645823554468484,-0.04412123915332136,0.9721897697385886,-14.17542034184411,-14.628143847876473,-12.27989778564763,100.0243985153101
500,0.07393907462820612,-0.09413285427128742,0.9806763004726408,14.288674594019824,15.265924376707197,14.110313163858024,99.99584743010278
520,-0.02207409475792523,0.0024478419381843064,0.9239503327637022,5.364547180054541,5.0927415106506535,8.189251587939001,99.98939879437118
540,0.014419448689059845,-0.057297086829573345,1.023924895214355,11.469017135019147,2.233184157337477,11.99910490239187,99.99149179603786
560,0.04422153644446691,-0.025111990276439733,1.1361624153922376,11.775567692690476,-9.44287689104043,-12.729082850306902,100.00875706894968
580,-0.05877811355127315,0.06181916372857571,1.0052885146288975,-2.866516615525012,-3.4688876892104092,3.103729761518616,99.99494075251198
600,0.016838056051075127,0.08564621390567356,0.9257159872261254,18.111351774318923,-3.2305874755902115,28.405196529588522,99.96964831959664
620,-0.06010050705627943,0.10119862959398117,0.9781387980916245,-11.298535848404516,2.149129996698818,-17.023805048493937,100.03593636110108
640,-0.02001236800498448,-0.06112896385034672,0.9930465934760194,-8.08268436005826,3.4964359826161457,12.845415683071531,99.99920532414114
660,-0.033328834281796754,-0.12528871004424513,1.008653835292606,11.097716995905113,-11.366328628761064,1.9515645134109536,99.99183246920575
680,0.04240089532682423,-0.03754232788130301,0.9683011838702731,23.296345719287423,-19.375032496321985,-16.810876683855263,100.00492892021865
700,-0.020666527996094947,-0.10945738892841093,1.0431432138899304,0.2514740940275917,-5.531622419944171,-4.700235896747591,100.00267559098099
720,-0.08080301357306081,-0.05104133960613988,0.9679338833269768,-8.138054921059672,7.467826367140683,2.5978063871136756,99.9976386293703
740,-0.1295871622781168,-0.05156273249345148,0.8843654589102617,-4.1905250709293576,14.507805746903884,-29.798917401198068,100.02085435431589
760,0.021873478609042846,0.030633358582252468,0.911471722769754,6.811163417426069,-7.036226483266251,-4.310907599213849,100.02890055566955
780,-0.018789961229110464,-0.06590910074620702,0.9306018013305891,-7.5328829521025895,-0.03841161457686245,-12.338662216825472,99.99532622394781
800,0.02342922081263392,0.040057838662638866,0.9237006717537728,-2.805072577637433,3.544462898400103,0.08188655730041183,100.02809678716184
820,0.06489629867205518,-0.043587723982018295,1.0772956924037083,5.592294771376611,-2.351309397997101,-1.3979262216066157,99.9528104576071
840,-0.03254704054681672,0.08047659190397458,0.9655612167018132,-7.750080742502622,-13.601414901140718,-6.626511105968327,99.9813231114877
860,0.04508047288408426,0.012381831865605578,0.9413805480978923,0.4053112063854744,-0.4253145823159553,0.3506913339756678,100.01116947353556
880,-0.021828638926192634,0.09483567383937623,0.9926390453990707,-3.2990163160806163,-4.513202444416381,-8.300197188716254,99.98920857858221
900,-0.006637346884025253,-0.008239829098558587,0.9984609782473027,0.3137194188647192,-10.282480387958952,-5.5009263583024985,99.97589723982264
920,-0.015682103238092184,-0.06180446780455054,1.0392458607059425,-10.56680483798781,11.79673322567497,-0.27797531174996776,100.00627554839117
940,-0.01249213543267813,0.04025480205934231,1.044385658661868,1.0066145426675954,7.821502196229168,-5.1567191224819515,99.97821729549678
960,-0.12684554946141538,8.5992064591051e-05,0.8989322974325428,13.310265692471551,-3.9657908896588348,14.647210946357408,100.00556535793216
980,-0.020237112877268135,0.06416952388857365,0.94825331817176,-14.764097567764797,7.611257840817432,-9.017705403530229,99.9750283432535
1000,-0.1258199647246489,-0.04691992044594742,1.0658368394628748,7.629463878741253,-5.675660523930797,6.287276479302308,100.00745941617274
1020,0.0030761791913653403,-0.04912823912415638,1.0439952934482282,-9.971444937684964,-13.725855623123568,13.43810757925598,100.01911014058446
1040,0.08948119517707677,0.01626866937911802,1.0600610213271255,19.514566605871554,1.2153889862769864,-6.8999381722731625,99.98610320364321
1060,-0.03669889830741512,-0.057740799395138,0.9902771899814987,-14.415451176923485,-10.421795868826447,-2.998455742215418,99.95189129355812
1080,0.05965908047487281,-0.021767475108935744,1.0396341832461231,3.520466724278182,-16.597253801087252,-16.318766898930093,99.98924479759185
1100,0.011717876519013102,-0.12384292397513322,0.9531719229022398,14.87078292406045,-0.4699188384337145,5.908303519366367,100.0010227817262
1120,-0.009391221450893938,0.03816712651971977,1.0436601935064862,-7.2552914033216656,5.5024941504591744,-11.121915904886492,99.99295420264366
1140,0.03133709221292761,-0.016219757141003804,1.0638117894999863,-15.192051990526547,-5.901414232648426,-0.3012317323945417,100.01096201491296
1160,-0.017701839610063504,0.0699514081852874,0.9957293484034129,0.44927100787102403,-1.940393623635079,3.365552188508498,100.02461572899728
1180,-0.01972819271526259,-0.05310122812965931,1.0196789405962188,2.863935665158556,-1.5017046253454525,-6.048156497368717,99.9880661957072
1200,0.04531203214155726,0.02238413810050993,0.9663932470507622,-15.334880676711373,11.742460201987953,-7.054054702091712,100.02661080600951
1220,0.022535029073843,0.054205621665721015,1.018196181218791,2.7147623787722868,1.3657291078666636,-8.64641814639946,100.0126270313238
1240,0.04485169864662106,-0.04239623059960415,0.945929321840851,-25.87553390829929,12.785671475389819,10.385274041185875,100.0016232736104
1260,0.04314554945054652,-0.026343920071358946,0.9675214383304386,24.578931993588302,-9.793073193656236,6.981397932904146,99.98192123286233
1280,-0.036892486754695065,-0.040724526298228744,1.0053880102356503,3.015203808062345,-17.577554145147356,-2.677973416991431,99.99497380977404
1300,0.06760889857728773,0.026961764610341193,1.008679763983597,-1.0662891664079466,-10.258082961558067,11.837013274829603,99.9758026166742
1320,-0.033239327664088464,-0.05986386925290578,0.8379745560543805,15.053471398393905,-7.7867904224993465,2.672271461468166,99.9928802028996
1340,-0.044201882693426356,-0.030434603091498653,0.9642148974760406,-6.463147966883287,-18.236867083661426,-3.2709170089131625,100.00757235037356
1360,-0.08489746927347994,0.09123686469636776,0.9580577957196009,1.927655702884579,-20.471194211334243,-9.589390929266637,99.98837748091502
1380,0.040662682683423136,-0.02635986192591567,1.0670324551690384,-5.885176457506501,3.610170431536237,-1.5380432475793289,100.02976510610097
1400,0.03497941355897443,-0.01839257447336122,0.9703210440851715,0.9670416617201376,1.7193768546426824,11.269642238015813,99.9817785816876
1420,0.01809669481006838,0.007154982725214604,0.9555615283171632,15.135195009330538,-3.2484008430448057,3.193955175516482,100.0123078477964
1440,0.04763698430291918,-0.007903190417967068,1.0242567025543277,-11.773891189476213,-14.048880678583512,4.805592046898552,100.01827024345705
1460,-0.02253477809797829,0.13088198077159702,1.0290634908612484,-11.357530388673663,-10.506673145945175,-11.13475907649753,100.02852645060027
1480,-0.1033744524379876,0.1321173459357496,1.0121263862563086,-4.324350624539945,-3.226971002622945,-10.676857018519996,100.02486633292098
1500,0.031807827002350395,0.002002699325247724,1.0115760504202278,14.94571719935378,-1.625665117027341,-17.105750053245156,100.01889296071617
1520,-0.020112884212088122,0.017280916235423795,0.997166330052926,1.5960764177706266,18.819144510667275,11.393325405763122,99.96502571094963
1540,0.02267229901233441,-0.013977708409609407,0.9353743714332319,12.786850419249426,3.991615272351223,-10.161110593078304,99.9963640054174
1560,0.007623232162042393,0.019588090611966764,0.9842683927431823,17.106649211571465,-11.606581094514969,11.295555216557572,99.98902952946175
1580,0.02901445193714723,-0.03149125511351954,0.9773200964156851,26.841572549511476,22.431671245113776,-0.9253986001631109,99.99308766596546
1600,0.08586893757297531,0.0231780334225716,1.0228901295572728,2.875370596141935,18.281268461742272,11.33022958655521,100.0241977857614
1620,-0.06013923888423353,-0.004979471376139671,1.0175340236361208,11.27384395627126,-20.024353678300024,-7.613136905910648,100.0072193909352
1640,0.0545301444181866,0.06714160885520981,1.0270680236252134,14.042915992672597,2.1087968818730443,-10.67513796948261,99.98914206293264
1660,-0.04839127828108757,-0.023983872260537623,1.085238081411791,-30.627031662392824,-13.999775649165944,-6.7613394251299175,99.98107981303751
1680,0.028481201931726065,0.05249157859767284,1.0322091510947313,1.7834660497686505,-0.6932100428804935,-16.00071357103513,99.99738212355429
1700,0.056632842043844056,-0.05188381457966271,1.024854617926861,3.1453571127662623,-3.2511425193474404,21.552938869857595,100.00614914377495
1720,0.010325903481794949,-0.01904807702102175,0.9829646330029295,13.878274156453983,4.704069617791182,-1.1924848057217226,99.9990669508361
1740,-0.019331312164118857,0.07114031189543932,0.9805039758024836,-11.578905714179099,8.696794262361124,10.080412976547882,99.96118323716198
1760,0.018811803593363458,0.024392906611769703,0.9325984137730845,-12.86065235481972,-0.7914730000546586,17.329994203150285,100.02620094625567
1780,0.05676533432083469,0.11408333115405392,0.9572010885356751,-1.2766347842542844,-8.383854984685117,-5.3575766438346974,99.97959511513139
1800,0.016643254921041056,-0.09371640841634582,1.013934588214528,24.65947171762337,-4.393926165094763,-14.039824051863373,100.00178056241704
1820,0.032126960145254076,-0.012334544849415985,1.090554168135987,7.215755767148375,-0.6200659268638418,2.987120986155005,99.9969479837782
1840,-0.06950548314364792,0.03557768641727349,0.9767844482162366,-2.0491726191288735,-8.344719368813237,36.65458600745045,99.98882181190426
1860,-0.013209447431900008,-0.0991817712022223,0.9415564243507221,-16.108651040355014,-8.765236436277736,5.962841542187471,99.99612029153987
1880,0.03780789514467994,-0.016435160124938075,1.0135634401680784,22.9843869373793,-5.097789636525248,15.220608835719128,99.99106595646738
1900,-0.03306725951558902,-0.10326276539446388,0.9889352633525973,-8.262355614003502,-2.3551330009370877,-0.17508296620619207,99.99641106729165
1920,-0.013271965688499336,-0.043101597255324975,1.0701418326181298,-1.8823239859860021,17.333156989797075,-10.555739603462056,99.99506326595649
1940,-0.022574728521710486,-0.02098467852565491,1.0379276780721127,3.4350425097020034,9.962139045240356,-7.777436014269437,100.0053829394485
1960,0.004088169503502369,-0.06746205979906632,1.0045509224684432,-6.638588178386561,-2.3903726991935006,10.639170631738493,100.03069224325759
1980,-0.08488313281117982,0.04971604967912521,1.0059430890706555,17.718521843337207,-11.077851236541079,-1.8950648458109114,100.00056260664151
2000,-0.06778186596410442,0.0009493072412841716,0.947866412127176,-1.9064791775425953,4.52738820731144,12.159686265744302,100.00907916658244
2020,0.007799339380562326,0.01943189229223724,1.0355419775839627,-6.291054176204343,-8.389952469522054,14.848425017016385,100.00289695450408
2040,0.01803299092518308,0.02444424076306259,0.9759449051257578,-11.8117598733822,-2.236125011357058,1.3623666616148582,99.98814166337245
2060,0.08247656315919376,0.06789116020316548,0.9603646495306247,6.513234966804767,-8.084485597200718,-4.563923001348714,100.03250315900874
2080,0.10946891296040065,-0.010863499644857617,0.9548716470095922,-2.222100070695547,-2.14491651990158,9.957412717611977,100.01295467845705
2100,-0.0060241995876347335,0.04155014898212529,0.8673844589967947,-15.853135444306538,14.756966507277129,5.995074112191169,99.98825222806094
2120,-0.12257930828318282,-0.09879108105758837,1.0010185472927056,2.9100007423388248,6.22777574537275,20.53147569758616,100.04926267481481
2140,0.000717767807532329,0.01574751880635056,1.037859667822915,3.184718174587867,31.273436540301784,15.034906186313457,99.97439987185011
2160,-0.08272528211860908,0.0011935045314747997,0.9758602449234609,4.003884524168559,-11.116994048639855,-22.099646508996013,100.00348745799079
2180,-0.07060161935227739,-0.015370655907797749,1.025392069620957,5.832547489221765,13.800774154337155,-23.464177930476325,99.98539935885354
2200,0.05080201218817652,0.010658399395131041,0.9199307584557233,-14.008041085914737,-1.5939386346442888,-1.7554094226636128,99.9891795408085
2220,0.028710977156591867,0.10296510973939746,1.0319410793556432,-2.1810614971275557,-18.705345729321362,-19.42021885572814,99.96975623125834
2240,-0.04561033786485915,0.04901663783161712,1.0012660716128405,-26.471954566461942,-8.115246426860535,9.222448140929696,99.98052506010823
2260,-0.039339559285189965,-0.07549363769287842,0.9432352698351749,21.3712700159422,-8.817917854073404,-14.873705159046429,99.99591850475942
2280,0.05240668964642519,-0.006924642558768012,0.9872200265431457,6.17119688032049,14.262291601509109,20.001319661565677,99.98032409492399
2300,-0.03806539862515239,-0.08936981014094697,1.0199977015520558,3.5165134364431987,-1.02924483943935,-27.167002272632015,100.01316960153667
2320,0.010307032964652995,-0.055578496191706864,0.9833005188670388,-13.764959915413586,-12.966742332858823,-18.501900391141636,100.00744484556309
2340,0.08298231139535495,-0.039926671704645256,0.9985391894196777,3.10757427928273,-8.845466805297866,-14.79599533376091,100.0271888736129
2360,0.07673702622710704,0.03785911378178916,1.0543706970888898,-20.813156040099166,6.902091841289463,4.204321117897356,100.0182036277094
2380,-0.009831656608076089,0.0004315694943908102,1.0232908401705552,11.999528435486933,-6.17654131333655,2.6186602214398205,99.98883342292862
2400,0.030394692574338297,-0.013768860129091013,1.0013683289360367,7.372069760192394,7.079115702313318,-32.81155782934054,100.00977244861741
2420,0.06629350761827445,0.014408089984263382,0.9543983962383804,28.67292232215811,-2.6830905321752643,-15.42980791591852,100.01134899271796
2440,0.0025075103846475366,-0.035047850171851656,0.9175107653328494,-10.601430097456788,-4.983361395445002,4.323780352858477,99.99837584767529
2460,-0.018060391285028773,0.02657287722817918,1.0451496910043476,20.229002402508538,-24.137896062669164,-2.4076460656308747,99.9803984797301
2480,-0.03121119176043212,0.00043337300703465153,0.9627793289377384,4.437079450871006,-13.343604879365822,7.4692509077491565,100.01657491040623
2500,-0.05092086018140545,0.11876234109743167,0.9704111763485911,-6.124626779227415,5.9845103758176315,3.5390255713582333,99.99217177988767
2520,0.0058229857745556,0.02599415405786247,0.9069416070715546,11.374407053873998,-7.439857801542377,-31.79147987705832,99.5456224092083
2540,0.004798435924954635,0.022031321438927134,1.0073392235262215,-20.471567997177814,5.617651716663248,5.33525684833768,99.55190793525728
2560,-0.09843484057791158,-0.055332435002888085,0.9281085011987971,-4.231039515319694,3.5578110976018866,-6.759204657006041,99.56781738940491
2580,-0.0024643364218267707,-0.013963902565471021,0.9842343402823782,3.519549811438294,11.982771085679898,-10.962428167385887,99.50793327044221
2600,0.005562845789535118,-0.05910578690226566,1.0698651403018398,0.187019176153448,0.14179519918735484,-12.310785996508328,99.55422701106124
2620,-0.024176194988091107,0.04920038204356671,0.3329481945838673,87.17206276312972,102.97227651334882,76.87380826400195,99.57592409171222
2640,-0.13283374978685325,-0.05447619305753958,0.36025507647132804,103.39505720529561,84.64462622087449,81.31599571319322,99.56801856603408
2660,-0.002213839179254611,-0.04205061965125746,0.32306668774467234,89.21200238226125,77.06260729403392,76.86468060081596,99.55890013977579
2680,0.06697215627926216,-0.0227285510858054,0.3625144240561672,65.99696151405563,69.21997565960852,77.77297166738026,99.54699412111592
2700,0.013438123814437711,-0.008912002355153223,0.42133223718974677,88.78772554137097,87.21850873349945,70.22066860161063,99.54782043247535
2720,-0.07171046196742754,0.008666405547995217,0.29045945096271003,76.36457980594274,66.97175161513356,60.59917472183753,99.51509198277891
2740,0.014424431900755503,-0.06678393386712064,0.3829797635863252,81.902362602758,80.56834063647065,87.73549991986025,99.56930177033188
2760,0.004991120373806824,-0.012680764730817166,0.35833476527395197,78.00787983207245,92.95178287806355,72.09420404141734,99.56864914690186
2780,-0.019269232952278222,0.05161659182107995,0.40779842910613423,73.35699627183244,81.48903691071509,91.67914467210859,99.57970350378712
2800,-0.12489323023666561,-0.011694156245309692,0.3254037250563097,87.99117018811076,77.03534829586154,85.21400569664313,99.5698405976325
2820,-0.008417519480495328,-0.055773979672656196,0.3695274131225021,94.10577114266047,89.80685786574105,59.1484078605568,99.51175969999257
2840,-0.06686089605309778,-0.0006444777997627907,0.3155146653608873,100.4992642388782,77.64169724835418,87.67952137980204,99.5605351976927
2860,-0.07938703463728478,-0.03587230317177982,0.2683141888342241,76.0536041109371,73.89476574144376,84.05218700674118,99.55585719223404
2880,-0.007041123255935956,0.010451627046694209,0.3868890593650274,73.15711989520719,89.55730679498376,64.1139825183044,99.54951515621207
2900,-0.09898291714837155,-0.032290435530475156,0.3747969187636834,82.78799060809075,86.07091761170335,97.80820438326361,99.57647688498801
2920,-0.032292552314805385,-0.010906852570376942,0.3085878450397023,51.80616745898426,91.94724583805946,85.04544655582343,99.5460096466687
2940,-0.06689830438012055,-0.005362927681446011,0.3828304129332747,66.86802072236532,89.56926798389263,73.05804984780298,99.5656633762194
2960,-0.0075242732923700055,0.035526661892730606,0.3347858624423759,63.032507059087266,73.60706969580897,76.31838459185998,99.52801720875448
2980,-0.005020296218631415,-0.007017398889358758,0.40529232933067433,74.36858856623303,84.99729251923918,71.40825817299661,99.55665856593643
3000,-0.02574110852349519,0.14556445094087642,0.4315143602401812,89.84245093718927,58.28623269324322,83.6818700410355,99.52292664776446
3020,0.0155737220795755,-0.042984601858605656,0.3055255774260065,75.91419220119272,84.53710895604983,86.34611562761691,99.54402131762032
3040,-0.049005274572558384,0.031643034390594627,0.32270026913894295,69.33296218470441,74.72284856357305,96.94055208541866,99.52317679778467
3060,0.08056560643774226,-0.014620528492089821,0.37285646679658135,93.03351933553913,81.45820809396069,60.535704424769264,99.55037286995515
3080,-0.023052060409334853,0.016441378102282068,0.34990089800892765,79.26996164507867,89.8044842146711,80.3822904739288,99.53640144610529
3100,0.03768162770279385,0.0029273873989412473,0.2783648312001308,57.120006745971025,66.07409550499409,85.70772555916076,99.54159950060559
3120,0.018690589813224245,0.08255721304264836,0.39642612750549583,84.227747015092,85.9979442411776,81.2276648797676,99.54344875145198
3140,-0.1144384656616801,-0.0025880600065304273,0.3652343920138281,55.41895824093296,77.20705844999549,58.50632108021823,99.58549867591745
3160,0.042875588476087995,-0.01650626435306461,0.31058613328042717,88.13567086339233,81.1817639529142,78.06711003706607,99.55342564951486
3180,0.023541495456346977,0.01092190947848222,0.32697969173335334,76.04138729027213,95.49334958915495,79.11581376335464,99.54777520241498
3200,0.0832978459049343,0.03750755319166768,0.39996579000067567,82.58749467755341,75.376500490956,86.74826003225895,99.58012248490718
3220,-0.03907535264303806,0.03640061548928746,0.457117608196078,75.9399665690267,77.22593839005611,77.11591996966669,99.54286001589145
3240,0.07640892813465477,-0.02213340255666808,0.2699440269410555,81.56479717879941,95.27246005634154,60.44150047124353,99.54781197024225
3260,-0.02907361583853603,-0.012575049881695798,0.2857738892243309,69.50169354506308,50.14357160365303,89.4654946450463,99.57430577018776
3280,0.0020298849380637547,0.04718985638910367,0.3099349122214809,103.60394509783683,66.58843912865485,81.74800551506179,99.5677813119484
3300,-0.013232228207634318,-0.01040594135175392,0.2918486069461421,103.36542895100833,66.06232607810999,84.2851069396113,99.5868870152065
3320,0.006994282196383041,-0.028074374337271408,0.2974300250173939,84.67015059055365,67.14079241679914,77.41895846036611,99.56911722644666
3340,-0.025278121285223477,0.0692921120231583,0.29011296717351676,101.83859358198424,76.5382878272622,70.59337929223157,99.51814160730933
3360,0.01657955025149967,0.03960266888079129,0.31377702384118317,76.05633147862379,85.80366286798555,79.99132153387657,99.54708759864128
3380,0.059972303221964465,0.02073443119065074,0.3959490695386244,100.25001552197364,84.82402141051308,75.44341622412605,99.56615724481078
3400,0.11890871800203573,0.011734529750719737,0.35914601947048114,73.59674423398458,76.94445892224414,63.83627515578135,99.5723789052463
3420,0.051265182715027335,0.0778530408696693,0.39306205728539395,92.31028678282628,88.12545164924154,85.71046960740901,99.55261777410894
3440,0.05285837273282147,0.0642175874450545,0.3272771599977027,96.26359416940099,76.3922395909667,104.33403792803662,99.54610789162761
3460,-0.09024800257512536,0.04049459181150705,0.3775840915562099,67.75113765867042,64.24024672062578,77.91119972521017,99.5541283512539
3480,-0.05518902424841962,-0.10527121690459876,0.29817221961880275,64.66903201420831,63.50722713362274,84.2674783598357,99.5359308339694
3500,0.05372499482749541,-0.016862732859321997,0.26801957791163195,75.77462495248878,88.97466825829783,84.51175340421575,99.55887915568682
3520,-0.043389385785028975,-0.010953996327710989,0.3956940244516795,71.92722518106714,71.84283302984042,85.89496101333508,99.54870271144425
3540,-0.09043646887106496,-0.12497722861067123,0.4458756505984724,92.34262996068126,82.40300459826571,73.76180426774305,99.54526071105349
3560,0.021817151632946254,-0.05067569129352814,0.37479208177472867,71.65925695195914,80.68363546854185,87.53945761094286,99.53767155229286
3580,0.07988252284985298,0.11010188358412179,0.3305914756418696,89.760021325684,93.19631109386572,92.16941034498642,99.55423300573054
3600,0.03850073075548871,-0.020763072905263177,0.32140502132532345,88.33647168448617,82.81334208689476,75.44192991322151,99.51149468433724
3620,-0.03697612094259768,0.055317916375299425,0.33736526914642057,82.0893441216974,77.54266414781465,84.33469716975817,99.56867155503576
3640,-0.0182072127367147,-0.04925034260202711,0.3112644558664844,93.46921404178903,64.97359345894372,75.22630628421147,99.54338668059506
3660,-0.004027916893384767,-0.007565845473225314,0.3780699758509765,102.16717423275279,83.56883169757776,93.7660641627373,99.57561600916996
3680,0.031273211785486206,-0.10363711686813928,0.26774102890665286,96.43677512505462,66.53141066226655,79.31573954375483,99.5858951314715
3700,0.04162736172772526,-0.007528009772679836,0.40500449328471577,72.04279207330825,59.11934781466181,78.91101281456679,99.55683001961715
3720,-0.04857391790502903,0.07561125555553462,0.3486337325905121,73.13167873260716,83.78022398168413,84.55100814260116,99.56276610854584
3740,0.04405393019566037,-0.044527246927052344,0.3723360196629305,77.68169892702088,84.30291173036913,83.17539024546096,99.54708869225558
3760,-0.05478672264685493,0.030884083944381538,0.37695437570239265,89.5921599519342,71.71819275171289,62.392558357460224,99.5176792729742
3780,-0.06039249121589577,0.0249248879460508,0.46548061491784726,72.22347148078951,75.44248617144294,70.36352304658278,99.5544509986141
3800,-0.03348724272668042,-0.01815369700570775,0.31636585153436925,97.23400001733773,76.06148674577396,62.049896765912486,99.56101595251374
3820,0.07076446478684292,0.039500001029957287,0.3212403797994372,84.52118855063189,80.48836134095617,81.02468801999177,99.54903822500974
3840,-0.04268994906403315,-0.04880603851224678,0.3411376952266078,81.54029617364115,59.15213488865314,98.78842722871656,99.5824620352709
3860,-0.005103155210185844,0.01660475222315283,0.3630791265934629,105.77534082907144,69.16438120190234,90.24086785123089,99.55697208902886
3880,-0.017205894184727327,0.010995679030383424,0.4040718424749672,85.09383416300098,85.09051840198755,87.01452785756199,99.5369234628378
3900,0.09192099375461721,-0.06202147057869828,0.32015331377628775,74.33374948567986,85.85256724840583,75.44035015030018,99.54353649539232
3920,-0.038327647291668925,-0.07472762091941748,0.3467445020460413,66.75454614139335,82.82652433306704,79.20284969255782,99.53787392402123
3940,-0.04575227491487035,-0.02305437193900126,0.48007760457670745,80.63046227744759,44.96897081377238,84.00919396305468,99.55311423532144
3960,-0.030631662068455075,-0.07654727136444141,0.27126985488481253,103.69782912425956,80.40932263089482,100.07043376906176,99.53339576262944
3980,-0.01932835829844261,0.00015058516065084317,0.379500119019376,74.2169630126907,69.32665732270908,74.88706408123791,99.5300118286421
4000,0.009751365318562698,-0.03559847209559027,0.3039680104593323,87.06458944686877,73.72601643520474,81.16937213979232,99.59759893161734
4019,-0.006226369202225835,0.01810388120244027,0.41813138480986645,58.94049970041091,68.17737689822748,95.54044241467386,99.56241661309647
4040,-0.12330918080317776,0.05651438275459369,0.46236905826404845,83.19972753070132,73.89227503499032,72.14961991824703,99.52461741963774
4059,-0.06007381327288881,0.13381349338221285,0.3707153099058738,76.45161594399809,75.00915187187212,63.772721811954355,99.55461104381453
4080,0.04655061028306341,0.07997412184371067,0.4261115910716856,81.57701312560465,83.22672278262127,73.66257824752878,99.52485069651401
4100,-0.015278783280090986,-0.028564224822488257,0.3253732364787262,74.96763479061043,89.29978612349537,110.57862517732681,99.5389280602165
4120,-0.008335430555973584,0.016605895831782413,0.3130444754255738,74.63879749672344,69.26727190523867,67.48866752803511,99.56397894876243
4140,-0.019092878684156402,0.015567040572880546,0.4587821647546756,75.48641356406937,103.02300855471228,91.03921961151467,99.53871086747633
4160,-0.016546905148543185,0.030195572524792193,0.3489657027624005,70.81460268005524,94.84636496638485,83.43827425359477,99.536561627542
4180,0.030567777848390168,-0.040430673741082716,0.40597783533266263,74.73908912386506,99.20677342627606,90.63925796954786,99.5983954752935
4200,-0.04578738601905724,-0.006029607283132264,0.3418154431658545,100.64282072556568,69.82516654970848,77.65486520653616,99.56886215347346
4220,-0.0128320877935454,0.011460148041617126,0.40845094017127126,92.84871768867845,50.27985319416773,70.07634983797553,99.5314381249078
4240,-0.012242065458416971,-0.0782438154562212,0.3078655829626255,81.27862148539762,77.00496464276553,84.61874569011265,99.52941905827703
4260,-0.019381608938514757,-0.0009430357664959625,0.37731018440931857,75.64923259123158,77.55700728591782,72.51061363781245,99.54699969768524
4280,0.001295638067656737,0.07136271855901356,0.3771895429326934,74.8991410787775,97.80623764419636,98.36549079979955,99.54875986815341
4300,0.08792941648528113,0.04647954021579761,0.42548247039866877,84.74410936395518,69.23659803070791,72.00518492733308,99.56589727105465
4320,0.04946536370152074,0.08613352660962098,0.3408385155924397,69.60684073128459,67.94552113755736,86.23054267278941,99.54330816992324
4340,-0.06290112052784778,-0.11261242521013909,0.345723824896769,69.53362518779619,75.8503451351505,102.94262720515576,99.5465356057741
4360,-0.10387632702018959,-0.048572018011558526,0.3216033594590948,62.49526660488586,91.58396292153137,74.29292863243559,99.55659671262983
4380,-0.056363535194057374,-0.0832511575670674,0.3614160269785326,86.75363611088282,60.64151131503029,72.38707295402263,99.57424245422969
4400,0.08205961205183593,0.021108944665304625,0.3250076796514412,59.230705303122264,51.76082763755327,81.10461014434959,99.55942003527262
4420,-0.029228080466436136,-0.06010081472644066,0.35149906227009226,75.03161603555961,99.02902751281569,65.85859809586998,99.54757210653467
4440,0.08619440047257096,-0.024214345127615656,0.29370003727663296,76.11649101788855,79.9881617890808,75.51557217991802,99.57012964654679
4460,-0.020078162486244194,0.06666011492521155,0.30577475424890876,76.53829357024267,85.24394160702488,90.01947191838771,99.53954299505202
4480,0.03666320675809853,0.01585336480680534,0.37049553199696267,60.042907384573354,76.48736419839682,74.31160874008167,99.59632523751002
4500,0.00851195170950819,0.004352013375025127,0.3537975767905055,76.02232283940857,89.54157954519684,84.29069635028283,99.53300780139818
4520,-0.038724649035860724,0.01636245556691467,0.31366193479376525,91.5638908376189,92.2838526150181,66.12846836561349,99.54673864492995
4540,-0.06989710090093856,0.002601865761996156,0.33161952688560264,68.00498223947596,94.48844322906996,73.18271644519365,99.57759092271918
4560,-0.001638249235536399,0.09079610171796115,0.31807129337990603,99.17731176029181,68.83142455988487,86.63513202547104,99.54521780042334
4580,-0.0372920915246085,-0.04154698334761315,0.38826959041578424,73.86347136324218,65.83726325700268,96.21340433655996,99.53332691430496
4600,-0.0014448291519470313,0.02193313308550149,0.28829445120934605,84.41769047506489,110.33134806123148,74.61260024101054,99.57181546732097
4620,-0.0730939752337105,0.044574478145134794,0.5029812368050584,67.48143638780468,78.09309636401565,78.72090679086948,99.55558842695332
4640,-0.023512763623525258,0.01807212697737998,0.3269806873618939,70.20120065911482,68.50937617396853,72.2235882057502,99.53801489385364
4660,0.05437403977533476,0.014259661742435502,0.2730851616928995,77.2807733219205,59.030715924324625,84.3172011247501,99.56903211859604
4680,0.04280193295216764,0.007898121254764414,0.3927193136802907,91.47057733901138,65.55294067315329,85.78989633544569,99.57428751708841
4700,-0.04854071263288143,0.0255207878870853,0.36894594934111297,84.35139432062253,105.50127377808766,81.55427651648156,99.5587169103785
4720,-0.03554035344525879,-0.02106985060201152,0.3676987316900751,81.96739170857455,84.06736932684544,79.71090896857727,99.53694758628838
4740,-0.013856676513115507,-0.009970172268481922,0.35065887514682176,75.70982496599925,61.25292977489629,90.73758257118838,99.54921109835068
4760,-0.08125134292598778,-0.11764750116144063,0.40408446291688055,74.84737659087445,76.69543268613536,75.23341100667464,99.55821484673353
4780,0.0723395563475805,-0.013676954221768706,0.333084977725982,47.91520650171233,73.43253961367978,88.24642516976253,99.51481199858085
4800,0.08110950168896133,0.02397549613154722,0.3631096369839512,79.16430871135289,83.7465413370266,74.83008477768408,99.53897281120697
4820,-0.041614533414818945,0.051722182067920314,0.40226714066392977,94.39930158890348,65.02174743112049,83.89232664164642,99.50921814747731
4840,-0.057580920306344846,0.02392702879234518,0.32246087212051694,93.74356239396158,84.06836862438732,77.83554479744069,99.59613035217417
4860,-0.02691648355964506,0.12417554978249559,0.31251582485349966,80.60048379222982,55.28668307354003,61.84777767775016,99.60003051469764
4880,0.050205116215275784,-0.004000210684450001,0.46027559109244026,78.74893413338096,93.5962277957793,70.22775766518525,99.54370978774394
4900,0.08461996480517002,-0.01970483685707024,0.3572686436424507,55.913076950711826,71.0065000129509,80.1912955259329,99.58017866873702
4920,-0.012922362253991834,-0.10614233548483797,0.4125017612029176,60.853278183263356,66.40859457908373,92.66388253991113,99.56424077176867
4940,-0.03956634450743551,0.01862507204380244,0.31927761984084013,86.95986375396897,94.57055447984347,89.43927936817323,99.57072787464503
4960,-0.04675887154580508,0.05486761574854511,0.3461758957250842,79.6446838977787,72.2911638411855,86.67592108810263,99.55727247993119
4980,0.035713060088218,-0.02645067289043594,0.37981150092661164,78.5431398229807,71.79355156518194,77.9125276244129,99.55626795244773
5000,-0.014231068020644756,-0.08693262066132058,0.27180020467744603,61.12039803663018,86.36539073863038,77.16763260570264,99.54836589530413
5020,0.013846522342490945,0.06484017141286255,0.37687863307483793,83.34957755371649,84.00193651815148,90.08977301562993,99.54104079760103
5040,0.0208747059129502,-0.012288862988783544,0.3102993045778861,101.58714541452244,81.17751204668298,79.55901910642307,99.54078140837305
5060,0.03436291273140359,0.0634133838292231,0.27263976007868357,90.2878406241775,83.54085778497043,79.91859896284751,99.53454904132276
5080,0.020632236897781056,0.013122127074775551,0.4056888704117563,79.47620621966234,71.31992082103078,91.78277628890194,99.5790669315925
5100,0.04489777299246445,-0.10427838184584091,0.373257584970798,77.3687114375183,85.41945235662077,80.39056879354506,99.55905563501027
5120,-0.003942534956695185,0.14127478365765025,0.33766917596727053,86.01575564843436,82.11425311037262,67.95316576697563,99.58670405869763
5140,0.061197219583207264,-0.04299499625820527,0.3675193929738292,74.51989496474802,72.04152916059303,80.83044396956197,99.56325173956891
5160,-0.002608406022688002,0.004999693844833408,0.3587204526819581,82.99893588365354,90.28928635484615,83.80849159900806,99.50423389399609
5180,-0.04568035359010295,0.005002625496978153,0.4478700627667222,104.61401821571819,105.18842120699068,77.19872912920775,99.51760885062664
5200,-0.03866389065159909,-0.029221071026273707,0.4622327293392925,71.72279594516175,81.64485912130064,93.1264654094523,99.56574534371693
5220,-0.03694038118291218,-0.05931204101844772,0.3619392523877774,95.99076510159149,78.42157265815301,75.44498282164744,99.5489708611795
5240,0.021994967747643684,0.026134857477630415,0.3520037537881745,77.59299078192984,80.77424630463433,104.3354812266345,99.5536422692295
5260,-0.06508809957901632,0.09114574954898293,0.2714257272659052,71.93084582286544,81.13231754943115,99.30683717287866,99.58526282787295
5280,0.0005771397998343184,0.04355594806692283,0.2732090997216611,86.04818184430195,96.23955450367218,75.29897312433225,99.55914105140211
5300,0.018631328987384965,-0.04535751614098358,0.3461012800348259,83.86492517985602,86.71628507741303,68.74682010120269,99.56386177918652
5320,-0.04241985004615286,-0.037587743874778395,0.36069565172342977,70.63655294191955,66.82335532920693,102.27931922990143,99.55896291570339
5340,-0.04101597855513342,-0.06545769502421332,0.3093163337996401,75.25797072857887,77.28332649605632,99.25143150089599,99.55541281209874
5360,-0.04610888085441808,0.016398982163406947,0.3690173839631295,77.43453916363536,100.07498298934118,65.64164613470061,99.55574152796024
5380,0.008357895450946404,0.03117951433912068,0.3678997694325133,67.39561147381863,80.91460589197312,58.094366581139774,99.56683540500558
5400,0.0907177766399272,0.043373115669258167,0.34938616065124023,78.39917376862998,99.24354479497084,88.97406073705224,99.53669118385895
5420,0.001597122827059349,0.07975426744310664,0.41268057593680524,76.27457101149018,78.98532150865259,75.19874074322134,99.52102304566722
5440,-0.08663040322627066,0.007533137326123121,0.31911748695794795,75.52068971275274,66.94475224752377,84.48151214516069,99.54938593900279
5460,0.007898513770635732,0.05238332369636092,0.39103623951743693,65.42152970212496,74.06651570642799,97.04292706625344,99.56568300755735
5480,0.010485591183367143,-0.10393613152056323,0.37298919570938616,69.65465739466453,88.24007492928529,75.47772538661113,99.5329934159212
5500,-0.01158113596445106,-0.07657094806859283,0.35454480907333363,67.57085345354182,67.91843418417837,92.3864318005269,99.53811341727683
5520,0.04430449459683063,-0.003292034230133592,0.3592338038771827,63.10079112496036,65.61684823812556,73.77214293316425,99.56971446059056
5540,-0.01735861731399858,-0.0772134251467148,0.43488193137203607,77.53347297754948,70.87977994611845,111.37883928682967,99.5489617163547
5560,-0.052260379893622755,-0.0012837791409506024,0.3826761200128559,113.51402330489343,76.09747684764943,83.09026018549301,99.54653570907334
5580,0.0771603920238067,0.0137339050091334,0.3086860381618778,99.83744541412973,97.04577739939432,102.95803315092633,99.56613610107945
5600,-0.012197398603835823,-0.06757846988052833,0.4242891706676873,69.13379215981207,63.70974045957993,97.91433128932917,99.53985565629694
5620,0.055541289049462164,-0.0001523307842595521,0.40037286183758747,81.73319071200626,100.95109208455547,78.7908548169128,99.5355238916214
5640,0.00013261668767627617,0.025611372197427713,0.3310120884308564,90.0603537393729,84.77377063411129,97.7496009532523,99.61612582004715
5660,0.03737558441561831,0.01618658935606728,0.3116296278413605,74.23263922649696,61.503102689775474,93.65364723539736,99.57307712537954
5680,0.016434898883404585,0.09996443451629651,0.44003245484444903,64.21574840696746,81.39247258295431,69.14583446954657,99.52855408272592
5700,0.06898646089589275,-0.050970844008259034,0.44047215514093124,82.33218203778425,63.211473922861785,95.39825343760332,99.5355632472117
5720,-0.08664511966196864,-0.041859106088542264,0.34419213024040557,64.1387972854904,98.55850138665355,86.43500972858753,99.5374407570237
5740,-0.0065187702149668535,-0.02061748512350957,0.3278754599657973,97.02999771395939,81.27198211228,68.02782033327924,99.55163007192894
5760,0.002441771379103205,0.018343378141897217,0.2941861317682345,68.64741567698212,81.38809189345393,62.69122848902737,99.55891777732457
5780,0.04040179181193867,-0.010777779569358931,0.40447740629758955,95.52821368274053,71.1059024314118,89.47217105544846,99.54181397824364
5800,0.014140794306462277,0.04618095624171618,0.2556890655843308,95.45493105236537,62.717441327275495,69.58186926835111,99.55207425275961
5820,0.02750824849675005,0.01642952497344503,0.35211357428322043,73.52596903347457,93.33092054720069,87.947086456874,99.52370585235929
5840,-0.0401571088571189,-0.013210423370774538,0.3672864302699372,60.5509449334587,73.05079145027119,74.91111227031863,99.54416514441542
5860,0.01411355287212139,-0.043197987202804766,0.32314541127186025,72.1374018304167,75.7667624024879,83.3743131218939,99.54522535527322
5880,0.009930437160234657,-0.035400804773643345,0.39252060635131486,82.72912945481022,62.36746748069567,92.86905902266027,99.56733476029078
5900,0.02364529083005186,0.012493111951889261,0.41537364005607846,92.11371948623288,90.17825290694692,83.82425203581586,99.56719226726344
5920,-0.04357279336331568,0.02241905573505617,0.22884292735138584,69.96537945396352,78.41434272698083,71.70979566226163,99.55922040523927
5940,-0.029724494122522996,-0.02651021504291963,0.36424546904191957,103.86633434768129,63.10446846450547,92.23305674196284,99.5710512451939
5960,0.04088773324932803,0.033966164399135114,0.3053223295267387,89.46080712795867,102.05268774716725,82.35789163178858,99.5227520110063
5980,0.14716628516658567,0.06764990328886157,0.37241402115330674,83.02946484295565,85.83022346983707,92.6822025108313,99.58251126649401
6000,-0.005808911401787929,-0.012858885995891314,0.30258123621591626,101.94476419349297,89.3162279857881,53.495600327494444,99.5670743079553
6020,0.00915838515922325,-0.07295492127594315,0.3474913931954883,85.1449752601498,86.40929566549953,81.37241746528292,99.55384042854156
6040,-0.047620057008132724,0.0029062024186314174,0.3035177480917709,74.82460210179318,86.70181606608203,85.35731329637503,99.50408181124554
6060,0.016795763487255602,-0.03350476797562823,0.29879682477156416,84.99134553346754,103.70309612844719,75.50750105096773,99.56981510533666
6080,-0.00584281574111262,-0.009615977065552263,0.3041931481553881,80.6915330524029,67.16709173786185,78.95302728184824,99.52514981608759
6100,0.03783460924853531,0.0024144193627455264,0.3133057669356154,74.11398543827427,79.8050461110726,82.78848838561765,99.56917590520851
6120,0.06705586414259854,-0.1259466835539936,0.42720909526837375,91.57966875989348,93.49783385466142,56.25627141738818,99.56178906633976
6140,0.08219639585594936,-0.02617783190370017,0.3652641087996532,83.15331287691409,63.12737329423507,61.05525059302799,99.55879559550185
6160,0.021083379801039807,-0.05549935377804754,0.4166527776491774,78.71577448334297,84.241836373677,81.97031456214769,99.53373009032141
6180,-0.03153686004600539,0.010754172243762693,0.3926206443018637,73.91218308016904,64.66282363183494,71.2223479695908,99.52030434122875
6200,-0.01120220474379891,0.009119107535287274,0.3118671223884209,76.96854033955485,62.33492514496816,64.97952662216069,99.54274869702192
6220,-0.0032444082269560805,-0.037790663999846534,0.4473839421796541,78.66891804297258,83.32779814580613,72.54563033554886,99.56661683103515
6240,0.024705657293279035,0.03326540246653745,0.23008706458346828,80.35176689855099,90.90885993841779,86.23728511728035,99.55165607374052
6260,0.02282435853007956,0.06999936137087087,0.32686065769281797,84.41202679836871,68.2173961013979,82.62733816811381,99.58967627464325
6280,0.024566415673232526,-0.012971407911354444,0.37192351399489576,70.85878237367807,81.82021234357832,103.6806445295619,99.57093247166682
6300,-0.05973194352195245,-0.10793668625738706,0.34116375362095114,74.46638422016898,91.90343340456084,72.99965767516618,99.59019172730618
6320,0.11502429469624775,-0.10398262712228763,0.3920733005638163,80.45559619799039,73.75896880797103,53.10978672459169,99.50678092888529
6340,-0.034936153128381435,-0.055363688497740905,0.313114772627117,72.30570051237693,88.04589418044307,88.25819271141066,99.56806296090004
6360,-0.0084632020402175,0.05975617449246223,0.33921027487740757,79.64461095660955,73.9430815589709,93.6884188794133,99.54154747332463
6380,-0.0909428259687153,0.03393891243801082,0.37862470479835825,76.98592938021585,92.17704181311287,96.68923720171439,99.54279126122601
6400,-0.03569620272725824,0.09840607560242844,0.29729527630864694,91.612239895118,70.46589401363715,79.77053967633915,99.5155052648677
6420,0.005618054762800502,-0.008051259930155038,0.41762933893296594,70.52645427320984,91.23260015811677,57.28949486467512,99.53261218366339
6440,-0.07181065604548433,-0.04679054486009848,0.36529139280550454,84.53390322872431,70.41438225347487,62.675162997968044,99.55374582258202
6460,0.006233029046071591,-0.04805575499395118,0.33871552707308583,67.78643675847277,73.2831407561364,79.23832370032113,99.5688035698319
6480,-0.044328394328113946,-0.03172120369537659,0.3305959826223991,71.97739697401961,90.17864621701895,91.96923486256718,99.51210694373158
6500,0.04415983459160258,0.024723700189916677,0.34178274146197957,89.13495189464037,92.41012882069104,66.58909940663749,99.53365640153933
6520,-0.043247066747547316,-0.01897314871675598,0.38188150083971,63.65769445149721,84.54083996630813,108.41155266637706,99.54132794368934
6540,-0.02709948813288034,0.0012426508045586156,0.28385534414471686,70.44161762109908,97.37880672599282,89.98713434176294,99.54679778927836
6560,0.03950129196441138,-0.045554586393898325,0.4167363055146091,79.90380155779336,62.998699707331845,82.51876262486023,99.52129678437639
6580,0.03745499042527079,-0.01591605540966166,0.35261194695084097,78.39903292777943,75.16388922552613,99.44753595087333,99.55643920478869
6600,-0.01669416934337477,-0.02921858867216162,0.41692054672274814,66.44666534636914,101.68491423577689,76.61059313864759,99.58971915602088
6620,-0.02210564219705692,0.04207796662410049,0.40239654265851377,96.35211529008711,76.209811657742,75.52056633241715,99.53084210205199
6640,0.09525563718878947,0.001051435468776818,0.3930849088995538,81.09047374448863,79.465522094247,59.16342440238012,99.53286433782222
6660,-0.029850545156392627,0.013828002413017786,0.3520570023938752,63.20278843325012,114.19870453691007,86.08643712052807,99.54702521615869
6680,0.050773449039974175,0.032189898054577115,0.348275307119909,83.23256039145859,88.34407656710978,105.05975247613546,99.56571947041695
6700,0.005051156432713894,-0.0991799299545335,0.3125261569748761,75.64397320549445,77.96312949660958,74.49017436606067,99.56861113975613
6720,0.03968969378359761,0.07475108773153553,0.34156282334760096,79.38514950602375,98.12635962379075,80.31467473371302,99.52437814030812
6740,-0.0994547015871118,0.017908856962673997,0.34171517749710917,87.3136366378846,63.81636512095568,91.14559886271378,99.54841893707179
6760,0.013470701566674764,-0.014578382699058787,0.3612250942738618,100.29025700424238,89.84179489524765,57.32425873986402,99.57242727339401
6780,0.0337726431933105,-0.03169709082172404,0.3811129582154955,76.12884811883805,55.63036368916812,64.06651543343179,99.55590388423198
6800,-0.03279348811757831,-0.005885435536703218,0.3569480058998111,88.58493859421068,92.06551784401898,59.174957506174636,99.54158073928431
6820,0.06453255227470982,-0.018983812580444726,0.42365516911310774,74.3781848095564,78.6386714900612,69.73860872482244,99.53441986925472
6840,-0.004972633249050791,0.0010313262566590514,0.3498301635853773,68.40019213414446,82.59090006630686,63.8851622071865,99.55477713639021
6860,0.035177021663310624,-0.09634270974486342,0.2687442424622037,96.35548004408051,71.69280233231709,74.93407037243998,99.54988069425072
6880,0.01833229407725136,0.0123202855535625,0.3209706488631572,85.24936545901917,94.05453096430297,96.03824185708874,99.53878204092773
6900,0.0446162140248261,-0.01175777470527426,0.3800306242344587,67.49734727072308,65.31183844258419,86.93465338611348,99.54289986883765
6920,0.0542129251496903,-0.08224968020310977,0.337190677633515,62.81634636353742,67.91569548616715,90.47459991788219,99.57468470445058
6940,0.05812130633829508,0.025548261205320902,0.2677114708471341,80.63332616809312,90.65184003811333,90.96186558347104,99.52468054294624
6960,-0.053934141553047814,-0.03082204389361067,0.4348526785373171,73.92909124028957,93.9586343280912,70.40694795675876,99.49610621726451
6980,0.04781336093510843,-0.16248034140580908,0.3594700048588838,68.75310193468053,96.55168488084865,69.88429911409574,99.5519556641836
7000,0.05334777668222514,0.07699491056799519,0.3584749400493951,104.79015686083726,81.96949577062236,72.8197011947645,99.5747608778804
7020,0.11022278454955488,-0.05059880577546704,0.3451889963468589,103.2143971562107,74.06559093072637,85.32287479046414,99.56509558533193
7040,0.026311853254005715,0.027919219520023998,0.2813674063807954,86.83179479804002,85.88562670067932,82.800709200656,99.54701020589162
7060,-0.028057359866155332,-0.016813644719892086,0.2996344584800936,81.09626348854172,82.04167390535547,73.38674015275328,99.57001818411699
7080,0.04715135131971171,0.06225899310684751,0.37706232750391233,81.18871904431948,86.52437826521876,72.00005230082911,99.53219282521687
7100,-0.007681025829446996,-0.06565434154374761,0.31090700146433836,83.46829612021286,63.22638293323703,80.79464573537192,99.53873178970673
7120,-0.003125603551990807,0.019956269315895097,0.38024734448846154,70.96715006124343,70.73452388360718,90.2818296942552,99.53528384839161
7140,-0.04324375784725427,-0.03319660562243353,0.35321073942466463,72.44082100769943,73.61509946309809,96.34765041578173,99.55043073652448
7160,0.08106590114424733,-0.02229589248006716,0.2968078999480721,61.466486355010375,66.5660265418073,70.95076999792906,99.51998528872234
7180,-0.0628045415004396,0.09723165376137782,0.42690672449249667,86.13318809452889,93.25062956293493,78.20278179404114,99.56002664972512
7200,0.10467858538678199,-3.2381111409683206e-06,0.36020334222604605,80.7156542514397,93.2946220253203,87.36037953059729,99.58792304116767
7220,-0.027669273779746484,0.02980581152713138,0.29130217596791097,65.04947495507608,56.79936135599446,82.72725375127118,99.57259635634044
7240,0.001236387597429644,0.0447466919818676,0.38905079507164453,78.11979961799508,41.40201749889308,86.3963870366247,99.55716765439189
7260,-0.0019909281384631306,-0.07418979608343847,0.3588445829211242,91.22703121576518,70.32681001736174,91.9197183418294,99.51529828140129
7280,0.008058029853996937,-7.019822100699478e-05,0.265729341459011,75.43546317807733,72.95134527717681,79.52194129408832,99.50750451515022
7300,-0.03519699464682442,-0.019638426058958748,0.4027116401959428,82.04784018251102,77.12948578915183,84.06552903875875,99.53478916754271
7320,0.036028077319761036,0.014232636307678213,0.42437199296703654,73.50002123427379,71.2740120252159,89.08237131388142,99.57299305256556
7340,0.023181951035305813,-0.04694456922444338,0.30144530716497653,81.33948130152041,80.85524008424508,65.81747437586523,99.54770646498326
7360,-0.027649503097359775,0.0561970625620851,0.3365685296014667,87.85843841265049,85.77991727595898,83.72099538043766,99.57823414123459
7380,-0.0010477495683210868,0.13814301993043873,0.32230973071385627,86.90783084388464,67.95564975012972,75.8889408459102,99.52108385291903
7400,0.013253896448600748,-0.02198722260783753,0.3714951618361462,93.65916269778683,104.98184354404594,70.26802295194284,99.55269877359115
7420,0.017687205553798973,-0.031834036180567654,0.4381410442156859,81.65384278941339,72.54575136077081,56.20502402273193,99.53271616016144
7440,-0.02277677693857512,-0.012725262267163287,0.4602996855758647,79.82908582426413,78.57341861820184,106.13902062929421,99.55807620698724
7460,0.007208208471968489,0.06968013574356297,0.4119643832440254,70.30105173418906,91.36625380789246,54.026482529478784,99.57081231513172
7480,-0.01216149129554761,-0.07696549369513149,0.3784338411935984,90.2208338328879,77.3415391251448,49.607111208208835,99.59898572959924
7500,0.09412149713185387,-0.05381559131105317,0.23239085911566992,91.24957512935526,98.42842130254887,82.93692671970769,99.53277153208357
7520,0.06486358916416853,0.00798835610392195,0.30898325581991937,69.36977437046457,95.29638772838842,73.68719728180169,99.55885549759033
7540,-0.0033471861566724856,0.05183373635649399,0.36434010732284355,77.77972708245784,79.1878855336239,56.67735603006996,99.54297112343667
7560,0.0745249896865711,-0.009947780563689966,0.36879950386514526,58.08018931381205,69.26749015494076,51.45638204478999,99.53315561600195
7580,-0.042617227890771874,0.012064759385658404,0.2552060517385263,65.50814322473873,68.61237699832377,90.80490488825336,99.57250683977907
7600,-0.017254599821787425,0.06328721312835586,0.3734926836327175,53.98215096165057,73.00373831098318,84.09608395621741,99.55325626254616
7620,-0.03722979573960416,-0.079661492640858,0.42512075834077784,76.07291377981134,59.64122455641888,83.4131332859116,99.55962266699007
7640,-0.0034447020366928888,-0.06027646614472883,0.24821858736918184,91.03765471213526,71.12504206517598,100.49538608238474,99.55168520988977
7660,0.045053570069193985,-0.0076886505361236385,0.3221953494149694,91.53623202299251,62.30428574374831,80.51104044590193,99.5173771969664
7680,-0.012151995535821246,0.09095281963033008,0.2807893919239519,65.27734937666172,60.97277617356113,69.66436669177664,99.53923589458597
7700,-0.01265617410196997,-0.03133634217139663,0.4110494732831054,79.08963628868837,70.40996712437844,76.99008440778249,99.5289487902586
7720,-0.07891325752442613,0.018762040527920062,0.42660337688604094,100.85624613522829,59.01543698574373,74.05933375899926,99.52834286043054
7740,-0.158298371327826,-0.015573452106320322,0.44740662783444435,80.73755907737895,105.76827070810612,60.96355932460151,99.5189934139976
7760,0.02055426303071549,-0.06672620131962674,0.3194882662815384,76.31413266866129,101.53158017091097,87.47977021315477,99.53526413473287
7780,0.07290528893928448,-0.04375934728483636,0.30580939463818557,87.5875685011971,81.83962503022596,73.95771997122861,99.546071699142
7800,0.020965216663403473,0.0024475209458397025,0.2654895535938151,78.45094770545687,79.09967906345558,62.917362480458976,99.54277665265919
7820,0.001678017730570701,0.043342829593670675,0.40046403104282463,63.63768256056625,79.68632539966003,82.38922936478194,99.54802186945943
7840,0.06474045167515118,-0.11096867061719876,0.34455694507574314,85.13461532806369,94.17263484232842,113.7530408092546,99.53044487914313
7860,0.09558551716848586,-0.04506293869125819,0.41383543725899324,84.49006750322124,89.94407383387912,64.05095741683624,99.5488299156185
7880,0.048254085856086246,0.044840062321886594,0.4417182640417018,89.32234912678979,76.91681635847554,85.71060718045192,99.55302790750643
7900,0.02548819650392954,0.0882022183770512,0.3613483720502194,88.45467079336665,87.60352230202821,75.33853064079916,99.56185443276047
7920,-0.011981072398829153,-0.04144449335497352,0.3534135542850516,71.05295261840034,69.92550028816346,81.18243769871728,99.54768996883844
7940,-0.028931994706684335,0.020813364695666872,0.42543479382946114,79.70625771189013,70.01271543331073,85.20867469184317,99.55247019127593
7960,0.032224776570027196,-0.04706561160421962,0.39647604597146624,65.51861818961358,77.0512839452365,81.79750997424425,99.57328080542187
7980,-0.06592986649843754,-0.020271932298819705,0.3729914023153088,78.30318354995008,79.8956150400987,74.00259494893217,99.53841543544853
