timestamp_ms,acc_x,acc_y,acc_z,gyro_x,gyro_y,gyro_z,baro_m
0,0.020668606101168496,0.06141924478928715,1.0095282470021834,-7.949736954625623,5.012258700370169,-21.437966502845136,100.00243021358715
20,0.005777542086989175,0.010264102433496014,1.0109602198372307,3.651464492568344,18.298366749774136,5.504685541025842,99.99140520787711
40,0.07536751750895498,0.07050666630210144,1.000200458207591,-5.446099027767721,27.152224999104707,22.572366145732,99.96948365020316
60,0.060285034520803575,0.07684504959329871,1.0438844103802987,2.8489100505495633,-7.469928652383274,23.861472843726993,99.98507835845768
80,-0.019542233304215853,0.0007256592346807445,0.9892784692814309,-29.97876166206403,9.1122105328851,-0.5491018549039562,99.9629899414698
100,-0.08824601911485035,0.02311397266867593,0.9660772342946383,-15.789150773210386,-10.583193839290624,5.3683399766977615,100.01969146078815
120,-0.04900382292861584,0.020119271289238645,0.9679477438971078,-0.5670409361410764,17.58683822079539,-2.455567770566433,100.00078745278773
140,0.00930757465309588,-0.054672071576314686,1.0069963049970445,19.16696623310779,-1.3997564165664134,-10.256535241234415,99.98564321703665
160,-0.06629839539293031,0.012326391342465486,0.9007246390546892,0.6372346417648048,-4.643160196838967,2.8408583987839315,99.97692485035512
180,0.09371946233926187,-0.015271212699131082,1.0123128654507125,-3.5941827360430842,-8.081792080857108,-1.1838042505830888,99.9888952039934
200,0.018660146848714778,-0.023469976905214317,1.0891440205572531,20.54920585498886,14.076280379983668,-5.67288501092901,100.01099977761837
220,0.012699836026560503,-3.592549505167383e-05,0.9689115478068998,-17.448093502451375,-37.25179568861397,1.2059914982152675,100.01388977885877
240,-0.07844717520233749,0.022750977787335935,1.0746844534898727,-7.863465710307997,8.891310563345861,-15.67365289785931,99.99773246792171
260,-0.017031141342594393,-0.021123860930154226,1.0188763793317774,18.373596859124614,2.7849870650890978,8.222813401008096,99.96228642682534
280,-0.013566087180033645,-0.07379556170964258,0.9948857651017664,1.827581425795556,25.519742079535092,-4.614830410707347,100.0428968781428
300,-0.020788478639848937,0.0881908901273819,0.9467329091183591,6.352285040248915,-3.394068590481166,-1.0036463580733408,99.9958150371237
320,0.07130560337586955,0.04485573980687242,0.9741328990057784,21.11955920338526,2.249281876640392,-19.392177582602418,99.99144780782134
340,-0.04417887752840306,-0.08059788944306147,0.9957864032552626,-5.643587601686351,13.189612134584646,7.4969039940603,100.01326138515572
360,-0.1348540940090774,-0.052080560526605604,0.9714131054478932,4.407877216082529,0.24534781032795766,13.333148328346816,99.98721610815556
380,-0.10083671893969776,-0.01020355072585387,0.913662240699129,-16.936156861902166,3.23399815212711,-10.821969553539686,100.0563230442404
400,-0.0316402216441801,-0.042862489918256946,1.0735721975070454,14.870540862171808,-4.68257397287233,-4.521050431061266,100.01426194955043
420,-0.06665121579228017,0.02794844909910566,1.1364693126925225,0.7001850394173156,16.802996805725126,11.708198488147644,100.00802588285431
440,-0.04466763533386125,-0.08051842564331402,0.9369238670943848,-6.939086393393037,18.504205283715294,-1.9473945014241663,100.00082627924296
460,-0.024980135553419033,0.03414848251677965,1.061165576084546,-5.900616507828947,1.7460522525201516,-21.084257600337118,100.00509640735784
480,0.011058110038567947,0.0022957703717487615,1.0455057775469039,-7.764968044408022,15.216991366799103,-13.246341719295316,100.03438879473559
500,0.014260969550567215,-0.05910360058984883,0.9201447146332492,-0.23322181386461102,11.78167180124523,-7.761538911768611,99.97008356560498
520,-0.06005770320753202,-0.008009598638160987,1.0341641691615195,-26.78168255926969,11.197248110739055,0.35504791503956146,99.9911143228484
540,0.05343749637473558,-0.010232985451640399,0.9840357183611276,-7.542260937617693,2.3226784427193627,10.13942672394785,99.99451127875183
560,-0.024718792512754512,0.031117381277526713,0.9819344054157051,-12.165196772114175,-5.704669301087804,-8.801811913553662,100.04554293844508
580,-0.07267635320134776,0.022389872122554024,1.0988734333648698,-4.134808937312131,14.241604533287274,-3.8529539305675358,99.99586866162551
600,0.06864410536062618,-0.010504260768114665,1.007832418379789,1.0168946013943683,-4.956460773419229,-12.531386208226301,99.96501013470214
620,-0.10228838204482243,-0.039859282599897225,0.993084468263451,-21.781330537863198,6.5421651605677695,8.470587258578703,99.99676055763331
640,0.04309595525914364,-0.0192052133246006,0.9950548077030563,-18.31104923225648,-0.7338467533212976,-5.038836510004124,99.9782113957618
660,-0.046527669377998605,0.051588125992478466,0.9774499107965314,1.880906984187901,-3.5092780015065257,-17.285075161406436,100.00582415731112
680,-0.056650207584550305,-0.05469407591605418,1.0064848789818521,-7.005624717583589,16.377416969106516,-8.078691743200626,100.00191467120774
700,0.02866477342720556,-0.07028909898266927,1.0404341396655743,4.96655623371457,-27.2976620073601,9.348884424673631,100.02289795141706
720,0.014920791106537355,0.05901282926011551,1.0074695500594295,0.5714583330579505,1.3021536966135565,13.396768505286817,99.97385223610088
740,0.01664040560769357,0.004822876767341349,1.0910767763619693,-5.901163147950189,-2.0205210411971986,-5.272234235984248,100.00345477760654
760,-0.020200175528652595,-0.0543322165840156,1.0116466777167743,19.3029388751303,-31.06208921812594,7.5813880335746475,99.99952313570772
780,-0.024934819747242192,-0.013148394432071792,1.0154053165348451,19.515164178713462,1.1820310304357236,3.7227420982188395,100.026757079845
800,0.017129041054590847,0.03230331744890684,0.994758272297862,-4.84563204078315,-25.563916901578462,-17.727820553500102,99.98595147633672
820,-0.015972503145766287,0.06358979767827308,0.9843469810337313,-7.956765826058846,-25.065367487155736,-26.857461671231242,99.94551503095873
840,0.03566956886397798,-0.029406921627428147,1.0346604411545222,11.637191267138533,3.5393673368511838,8.643836253329292,99.99939793217449
860,-0.013352818706260575,0.009505547029623479,0.943594562028883,-4.931580153457845,-12.310018746496478,4.63036877564879,100.01027696864911
880,-0.06389582377863381,0.047248034300110715,0.9484806895203757,5.087124546312851,8.490855395942003,34.70634483761064,100.00350093434203
900,0.07160565050547911,0.00035148489615301106,0.9576828659413102,8.958169726553395,3.898544525124757,-15.4128361531694,100.02598755938546
920,-0.007927274118055752,-0.03437953994628706,0.9983075930679177,-3.0049499924254084,16.486562481890843,11.222026867954746,99.99353560800768
940,-0.014505206674358834,0.04907271455247756,0.989291611731516,2.0864329685954295,-4.150273221506978,-23.281439816649556,100.01625791683459
960,-0.01594182416293739,-0.057171612255513794,0.9432918065498842,-12.054595157437879,9.588916803404851,-6.6395736913983345,99.97374962647474
980,-0.03405783730132026,0.03232622567628523,0.9841234215921876,1.6497515366794715,8.487324330945171,-11.57666772963237,99.97561792816327
1000,0.005825909973559023,-0.012187686298121031,0.9823427194228045,7.988402517903869,-3.915198765599103,3.6964149412386083,99.98619292775926
1020,0.09574085427855145,-0.019224850510732416,0.9857933120578312,5.836039507201388,0.6492708303189663,-1.258001717040895,100.00609041217874
1040,-0.014041632389514178,-0.016062434990130818,1.0013175640458378,2.5633329287768793,18.909058692092504,-11.63577801586875,99.97815551956367
1060,0.06829268245508677,0.008668060424286769,1.079036920936673,20.33912678715138,2.8971284166670683,8.829431105021452,100.03362315504526
1080,-0.04735182520327478,-0.04763156320741045,1.0668217833235891,-17.774656596441883,0.8754122396568855,4.220056782211764,100.00398820228682
1100,0.04323567829594829,0.014147419171399736,0.9638530698026797,-6.388193789954546,-20.081986267611192,-10.644128646539347,99.98871352015367
1120,0.03952001572914298,-0.020349577664071385,0.9417677197952471,1.7022621077815772,13.425932818433056,-11.39409126137238,100.02486411562654
1140,-0.027616197185413274,-0.006294197363389271,0.9860278870064431,-10.432279741699105,28.097898575000556,-2.893237991287498,100.01841014230874
1160,-0.025502863774543878,0.02548485407971018,1.0175302951404157,-9.868765979932714,-18.867236460065413,9.348833117103736,99.9708460393648
1180,-0.04491077055275201,-0.01553651351439351,0.9767100925262021,10.702994624511417,4.213155564106092,-11.502479556855066,100.03824613485457
1200,0.0031745149025626668,0.029102712898446133,1.0734662461582223,0.6430694706689307,-1.6605188138662739,-14.785066032529649,100.0105081823896
1220,0.020253122731530758,-3.403540455398111e-05,1.0293293867961713,-14.071379649632856,0.5809509418381531,-3.124370432047505,99.98791264813174
1240,0.017947562371187952,0.10401343556163388,0.9554371197674443,7.905324740741992,-0.2729833217890371,-3.4693218159850407,99.97994952757932
1260,0.026458736245600186,0.08794574183486287,0.9089534160323547,-3.2295681328075974,7.0699702423984965,6.20209495849554,99.98633023720093
1280,-0.08443656794592448,-0.01809874775059916,0.9996443715779773,-21.822830726040237,0.014728680155286665,-17.763048167059083,100.02869000213362
1300,-0.040685002634477774,0.021678176143249614,0.9505237954957199,15.254821634309977,-14.48109532217952,-18.939334883350156,100.00261314144711
1320,0.09210246919513146,0.02680454819357326,0.9715998920071073,10.301816771592595,-2.5661378805080726,26.548131500389623,99.98454640875272
1340,0.04797254184032124,-0.05287154085490338,1.0421046795364624,-0.8752298287853297,7.414468391257307,-33.799876744703596,99.99413973359658
1360,-0.012619976701109021,0.012583751679153037,0.9769454559478578,1.8083561545009326,-7.823999418582581,-14.030849897545306,99.99322035198583
1380,0.049332792923854195,-0.007363250734239381,1.008104750407999,-10.532240220581773,-8.586995028357169,-13.977147346141653,99.99307441615669
1400,0.003333110111001518,0.022752454528403788,1.033400733682243,-4.774485300225969,15.819567384686778,0.05813604241573965,100.00770895974115
1420,-0.027162435009957953,0.049216591092451634,1.0823322045653638,16.707809978357858,-20.04035486080659,-18.485880672047053,100.00441568151446
1440,-0.03719457784112368,-0.11367554243321293,1.0114281042896534,0.41452072906571147,-13.578302522216998,-8.896948335731725,100.00075602491843
1460,0.027195337887582355,-0.029716920373914654,1.0086344665979052,8.310570932817809,-3.1455572338501954,-8.599108802911331,99.97901580431645
1480,0.06557905191502048,-0.031065000460466487,1.0118986919226087,8.002302542359175,-9.620457078288135,-12.208968785480803,100.02067543081007
1500,-0.022994840822307808,-0.019460648258545647,0.9094865579184224,0.23825018302365122,-9.545175915419538,9.152235051654493,99.99998778647266
1520,0.07585091061274266,0.02975210563376724,0.9749412961745579,6.7802070526939495,-6.054198162209843,0.42830975638880914,100.02215370469754
1540,0.03946890333993505,0.03331819586046802,1.0208956234268147,23.01669356951772,-12.675142233555801,4.374802084266879,99.97544533904123
1560,-0.001824836644033062,0.031516086947267145,1.0324146185194674,4.454434961704433,-3.9879295929834413,-8.29003981793534,99.99912726392873
1580,0.051289323383636815,-0.038392285036860575,0.9932625670167343,-11.288436365198393,2.9430706230465002,1.3020778972892113,100.00217850201147
1600,-0.014852173136211642,-0.023371950918936086,1.11629963828576,5.531399014951656,5.538668584129076,-27.04902723389703,99.99184063771995
1620,0.06913004082689365,0.07244867181646931,0.9072600233302914,-8.361988017347002,-4.8034660988111995,-3.5069921088062666,99.9926202893218
1640,-0.02681793717814936,-0.011985763697109237,0.9201212661971374,5.0100291120567615,-12.346715337813706,-14.861957269351283,100.02485873519572
1660,0.039156489638623955,0.005886251128873715,1.0610473774642075,11.605780947054646,6.282378075050511,-8.51860243720661,99.98420632404996
1680,0.002325478139431813,-0.07270556326443522,0.9211386639133181,10.955572601026631,-5.94310068889259,12.451598815136183,100.01205856085822
1700,0.05281921171586809,-0.026122491863095367,0.958942879370969,-6.075575536547277,18.669836559263082,-14.460263596608964,100.00386529093724
1720,-0.013968386961128471,0.0006519181232163508,1.0797894748684835,17.259017469413415,-8.758959701650618,12.440054338459534,99.9925479953689
1740,-0.090371346998453,0.046865547345738015,0.9970248153421168,4.5867173355218,14.15551731737622,-30.642276227546304,100.00064397629598
1760,0.06818792150679841,0.04966951606277185,1.003117704509078,19.23696660483498,5.014127046988895,-21.423775693889986,100.00034290066735
1780,0.05380884242005072,0.053426711572971367,1.1035802508494035,-0.21028537413483844,-10.421955792975531,6.079881255835286,99.98925410793112
1800,0.04991295792842657,0.022542202483784194,1.0051662740380822,-10.498490527021733,8.220369953115734,5.516919773455914,99.99973780421571
1820,0.09532127557607263,0.0263136325289033,1.062048827727023,-4.435085040064867,3.9262183765909464,10.09932417305015,99.99929233588794
1840,0.004372973260143845,0.03501964388275595,1.0584506583084563,-3.9442445610173347,19.167258656817882,4.8055315604029545,99.99716420165922
1860,0.02153866128590588,-0.004283458585353082,1.0105163519071427,5.360155341360144,-1.7043933940149119,-22.35975390439433,99.99938683104727
1880,-0.007607449785805061,-0.10095784110280091,1.0830446170165091,2.8476640519312526,10.38208392763262,-30.03637354953809,99.98738155713909
1900,0.0426221325448633,-0.012454994691710812,1.1152560815819492,8.853283361213723,-3.9017885288714957,3.966020683808795,100.01842470700561
1920,0.08410720287574969,-0.04037623274352502,0.9626106758747881,-5.993505285217438,-10.226904834989714,13.296350216973302,100.0111061904853
1940,0.03939243442604396,-0.007806978713545284,0.9869521163920052,0.3166804433033549,-15.989361917806136,-28.962060229017446,100.01269450396744
1960,0.02516112302871786,-0.06027988047852052,1.0002081081843364,-11.780931354349457,16.43370328276926,-0.12584317406711332,100.03311507843354
1980,-0.08105664131806116,-0.06308084353141638,1.0978094227022643,18.547718963209505,1.9704971790891865,-19.089004217981348,100.03028961456205
2000,0.013134822816301905,0.0628780083833922,1.014633197973117,-14.177169524020812,-14.605366377090789,9.21743486537309,100.01701229265673
2020,0.029522926014266343,-0.013464641868477357,0.9848269682965769,-13.355149236913107,18.604778620793446,-8.766504634904045,99.99767373653138
2040,0.05119164973117279,0.04964300661016127,1.0533115701097793,8.002259218960218,-23.792417114202177,-8.933749814327523,100.05635240791148
2060,-0.06337105389537874,-0.08670872170423882,1.024580918163808,-21.460932522684576,-15.071941498884303,16.646672690953867,99.98770874948747
2080,-0.0019161910045477856,0.018361327946224148,0.8836325902297752,10.526572546025736,5.2661341091396565,-16.906595813637757,100.01500714455165
2100,-0.10984295664203164,-0.037131887532584486,1.0405622534062746,-6.114728749385518,-11.886942903477774,-25.07064202492619,99.98044392455452
2120,0.03139058814870913,0.0726305156714414,0.9716437569903288,12.529364266554278,13.64622844359948,-8.656534019957014,100.02008613270444
2140,0.00678875955040514,0.05815929279066173,0.9708226527031676,-0.4650386548581029,10.535841456501906,-25.27557908404767,99.98787703737871
2160,0.02113097656273191,0.07176110884083216,0.9787304773998976,-8.862399418178212,16.615944680840123,5.712776433070158,100.00898228847689
2180,0.0651625622968117,0.05604355926430454,1.0034261679158232,13.576696605448117,-0.4900800665007883,12.909663834639831,100.00086812563033
2200,0.05095532950585448,-0.04097249752466808,0.97639061438627,-4.486611307335103,-1.9243571331177902,12.28740047480552,100.03339002129312
2220,0.02129376882083471,-0.009492572058706924,0.9872361977209404,4.140985421562072,4.691274296497757,-11.17861421997938,99.98812045919883
2240,0.005555839932861003,0.06871512585420002,1.010692481898403,22.377112754123896,6.345810648063482,-10.868509299387524,100.00773898535958
2260,0.07853406503236078,-0.01599281789959014,1.0956072729230708,0.8872013263080585,-2.146453604985242,1.9454801644912982,100.02304347800529
2280,0.07433949287333293,-0.007647120655374694,0.9651628491044515,8.758383758791759,-1.5791559220814169,14.565434786606314,99.96421996483345
2300,0.1564753163303767,0.006511319349166267,0.9176841720830695,4.36033313707413,-11.846221573414184,-7.851481415166563,99.96613613652356
2320,0.030313792694824544,0.05305475348390061,0.9760460161418543,-11.413278503434277,16.16935771385221,7.975237864381711,99.97570948624227
2340,-0.04541836285498225,-0.05151849916253409,0.9364580941390744,-12.330329087436578,-1.1297598789400456,-8.99734404601374,100.009726069148
2360,0.0323671505337399,0.021258572297441658,1.0286481251390853,-11.483433921566897,-2.97004689085178,25.41054303823924,100.02907857328914
2380,0.01466351442762643,0.010085553946793136,1.08959668458021,-0.06550018319387788,-9.199608603585038,4.388013306320268,100.00162511555195
2400,0.0898969782655559,0.016096414188429838,1.0069821295375294,-10.319002576667632,3.2962606606111535,5.010052492184285,100.00436767405624
2420,-0.08196576729496907,-0.045587320680672457,0.9463825008976579,7.79031008377874,6.001493503468945,9.461056751963802,100.00401298368391
2440,-0.045150257286502904,0.032476113782302106,0.9906697930167767,4.239455567068585,-15.942339757667384,7.075335615919627,99.97372394953477
2460,0.0070713183152565215,0.0238983385500497,0.9527872665216501,22.012148757995384,-7.25285030862165,-10.813084913572713,100.01435167810658
2480,0.010791870195156405,-0.008711342595523258,1.0252748614174727,1.8549009972477413,9.14358189286672,-0.3352259105646655,99.984768564354
2500,-0.009118687068923676,-0.05508054694705301,1.0098814751290934,3.4593757969631374,-1.689504228316652,-6.160360172361808,100.0334053934085
2520,0.02838836343458879,0.060764778718608414,1.032291291715423,-7.476866088212512,7.435208084952142,15.03131341329324,99.59924288519284
2540,-0.07976160180593496,0.017321423037199187,0.9974154044131996,-2.0827793045275076,25.176152315342605,13.806248479450515,99.51862255144054
2560,0.024927471351482287,0.015112283133072897,0.9261040394538104,-18.138669591271025,-15.839846975157105,-21.8301933005081,99.49625602624259
2580,-0.031819215683243335,-0.029764848867638583,0.9928620534636415,7.552708754290746,4.1228592592692355,0.9221882979849644,99.53600010427509
2600,0.06180935345405328,0.020061122152747808,1.0059472321011709,16.191689496015684,4.454954987309989,-12.689415169639792,99.56700977595712
2620,0.002200144319025503,-0.02084006812156566,0.2712376069141611,72.1877895685387,88.74351786406818,107.52947366569614,99.54980621794975
2640,-0.01904594692100453,-0.08562829011704953,0.3143898820171504,84.16986663917916,92.52223382273795,86.78121439143887,99.56749248733219
2660,-0.06883430924362131,-0.005867824254734024,0.5173209264779662,73.17644444669692,82.54440648891868,96.46176242094879,99.56136668310778
2680,0.018258493201483785,-0.0430485589164977,0.38743654544098943,95.17044919864732,63.50319405148548,108.98192141214597,99.53347525229782
2700,-0.0127740625860734,0.08764676613457997,0.30787764108640625,64.36343468922665,80.17960111713788,75.41080431049681,99.5391963615887
2720,-0.02036193810716269,0.0821823121402893,0.31295357994635037,82.79537638042315,88.1162615741529,49.6924177016235,99.52637793590596
2740,-0.019007681227034917,0.07945025513391187,0.37949830623615016,97.73986502594994,74.07015135623624,65.98319917406768,99.58269999698149
2760,0.09030884744586803,-0.00501247406521508,0.33059474797046184,80.09692872180787,66.52592117440588,99.36939877881372,99.5741493145987
2780,-0.03918674168341416,0.04091034439617088,0.3052796542561873,100.07000455650495,76.1084571031203,75.88583945186726,99.5767128739921
2800,0.021810190119976522,-0.002340318272398468,0.3265011346629965,64.38866616265354,86.23542772509705,95.00501060287685,99.56634366191933
2820,0.01998531506500717,-0.02036916522832746,0.2532087587162246,91.07832090532452,81.05086991709686,91.51358408281568,99.56247521966874
2840,0.011971287452571276,-0.09522406459562545,0.2539700063501025,101.50731866130154,78.21653617671126,100.77848442144223,99.53762827366137
2860,0.0161162503437447,-0.020247001909951833,0.30697373652236415,89.81146715122591,80.66575151864404,88.18608830023268,99.54666822841902
2880,-0.03554039735404429,-0.00250146317274658,0.36544153885153363,93.18331801289708,77.95840195148399,85.00875341119053,99.56517358515556
2900,0.013383621869681306,0.03909226502230917,0.34165548938282175,86.18721255535104,85.73487013702737,71.1783361542807,99.5819208940565
2920,0.054563033361087344,-0.07013923261546337,0.4338921122468213,92.49493236499607,90.38106603914534,81.13082832245301,99.54120823200125
2940,-0.06834009813719447,-0.02564371222244176,0.43905134156313647,51.53089947279434,86.58899048822843,58.63808991328076,99.57632919369323
2960,-0.032202077255835924,0.013233467055591287,0.33244300577411146,81.76246591856516,84.37738697825927,89.4234971332759,99.53308266895564
2980,-0.03903508238854576,-0.012497682165759279,0.29153103196635816,79.4743534403817,91.99574531082082,109.50412696932045,99.55607813009597
3000,-0.010147004079122711,0.027805889640932738,0.3678678542248244,96.03579310335505,55.22703790578268,71.7830323368833,99.54843272221362
3020,0.07621296430430376,-0.01930347651108333,0.2860208668908495,65.76040861095561,73.17329317706782,102.52111060083081,99.56762164676437
3040,0.0569337823496373,0.010399891193761772,0.33744102735122977,77.58197403043494,70.59816594701441,85.30840798295215,99.55637276334718
3060,0.0051347984428686076,-0.0201468236261472,0.3698993202681799,71.7651464161798,77.15376801293507,82.75110175360908,99.55455731470457
3080,-0.0019941109987950483,-0.07966165602770375,0.412821800048524,71.61022598610725,73.2931249154236,88.32783341793463,99.55175766571304
3100,-0.020974010910194095,0.005108539732983293,0.37706743901585676,94.75889881401967,104.2188950665865,81.51267210122354,99.59293329208109
3120,-0.03667820433066406,0.011025788997156435,0.39401319219806596,81.59940791666598,73.7289101361721,66.89994781436803,99.52914539312434
3140,0.05249742530939642,0.034953419437897586,0.3561762762302116,64.89774278746184,87.70879095371696,79.87730910812267,99.53718091444148
3160,0.04717851645953937,0.07021242703739487,0.44385727627482924,85.69020813371468,82.97087999900585,90.37126259516137,99.51168602699792
3180,0.03974775427966701,-0.022860957985773502,0.36010752771971344,67.59594657677701,76.03928821580011,83.572284644672,99.54985461520658
3200,0.01293544945537177,-0.0530071504418749,0.30934184501723927,103.82371441800652,95.83194607485314,97.54437092265388,99.55531440138553
3220,0.046601657854540866,-0.06206812890095642,0.3168876248880102,80.93496284972896,92.17630496794038,84.27036464182781,99.56556117134731
3240,-0.007868476798629802,0.011732755887069167,0.30520666408635844,67.62388936359311,78.14788208447995,71.82790156446191,99.54762114975237
3260,0.05705901882357668,0.06743801012843724,0.2667173448166419,59.8562206876901,82.44441666028624,84.83809379307539,99.54626008547028
3280,0.08184584255215827,0.04361345008139173,0.3404188865386292,78.36752697169858,83.32850646287041,71.64349857312683,99.55221252460939
3300,0.006512544260784104,-0.094312628942623,0.4070985132926096,78.52437036099737,66.74386361023065,68.01617075064989,99.54185248937615
3320,0.05052016208799723,-0.016443765831693585,0.34804592167774767,66.6633121816762,79.41674536272551,83.15052095448333,99.5389449632516
3340,-0.017238579183093582,-0.009064629495069166,0.43079617951163773,76.22126820941621,80.01781151199093,93.58256256372155,99.5294725186905
3360,-0.008475867556095421,-0.04865786204845346,0.3216748454901273,86.77051755958514,86.32475937465243,66.70599298666986,99.55993136608564
3380,-0.014913720488099426,0.03169339492068848,0.41089455238200256,91.74058133040892,64.31385372846118,84.86572908248537,99.54180443170118
3400,-0.03330491561770695,-0.0374468580316159,0.3912179733367237,72.38549906792583,77.39528528114916,77.8847483676504,99.53340072826104
3420,-0.02253744759485779,0.040886241051836504,0.3915656543808853,66.89993811124796,92.08175505142451,81.40221689521316,99.54804585877599
3440,0.03756532107712189,-0.007965467875069717,0.3644317149567895,93.33075595815843,95.19615456677727,73.17619028010908,99.5410560369694
3460,0.030605708378469477,-0.008504386976081546,0.38833661920359863,61.688062592052304,73.14701721912331,63.07172870789794,99.57288609191419
3480,-0.004644629835676206,0.09605333083052597,0.3644989539638669,88.22696444015432,100.7853432829391,92.53788980875291,99.55144150319653
3500,0.00012832869033843936,-0.037203242291432466,0.4150949889469063,78.47734324168945,94.79833581990013,94.80146814598277,99.52677095284432
3520,-0.09541234942047966,-0.022950152389457034,0.3471451062533492,84.5078784163145,62.17771197579293,63.99380073328015,99.55277645554457
3540,-0.07033121963236037,-0.03454032504838356,0.33957702614400515,70.8680699481092,79.51802351176457,89.2984456843628,99.5334589711554
3560,0.02688665701526437,0.14801175706344943,0.3799904962786246,59.96806676291195,80.67511714824235,75.0842765162672,99.59153248287589
3580,0.030403529476709636,0.017871131246448593,0.303646984957318,88.80659424973207,97.98668227731437,69.316410159324,99.5549840659175
3600,-0.015467051594017723,0.055191622913727506,0.34619611359598557,82.06965711937391,99.13154234891033,87.40312193095637,99.54045002531942
3620,0.011391636650608503,0.031014399303370178,0.32249109654000063,90.74219152174547,88.844969863134,84.37973277508098,99.55031853775387
3640,0.023534432425876,0.02483096424425192,0.22214745229236912,86.82662521562112,72.73969171030116,71.62909899268769,99.5521051972687
3660,0.02518933418755817,0.06093193969107294,0.336079864119184,84.81160507423395,90.6929858682341,66.67962028525072,99.55659966403402
3680,0.0011785511862805816,-0.017628646847685357,0.285889692902645,89.15456820135678,100.78665947288185,79.54618909480843,99.53532023626134
3700,-0.014206339676282249,-0.026182219551527088,0.3206119527071663,83.86006885022114,101.5837091310136,84.76034969148195,99.56191459185757
3720,-0.014121743357375122,0.006236717566002538,0.44530229331909826,77.64935571757519,82.70461923610928,83.9954132155615,99.55133313049774
3740,0.011230267296764221,-0.0023999282542941838,0.37233509328555814,73.82287684850911,92.64894788487078,77.25787967823754,99.56197259721586
3760,0.022934915206892503,0.005082364331950938,0.27639770770218447,98.48128879732342,96.47427945007632,65.27060464929015,99.55079611203752
3780,-0.003972335534427147,0.019891241577213746,0.3373265348796254,73.42430401413958,76.09020447761061,88.4766274368261,99.5731667949583
3800,0.015197692876965225,-0.039458357229585184,0.43738445340489696,85.62747883414936,113.51073535292866,72.55238594857471,99.52802750307886
3820,-0.0036061072535203114,-0.0004455372064994379,0.3024609497789512,76.23045641776704,79.31565682926319,90.84296933397427,99.55636899515336
3840,0.08964033539957059,-0.058882377846182714,0.2814286210703779,61.51086355591519,77.6347313331839,65.3743528293563,99.55893413763742
3860,0.05763599752542902,-0.07878035192906661,0.3126971669899872,66.66591366489342,88.3269440044389,79.3262913586083,99.5421645874414
3880,-0.023813632162581214,0.08312718602872438,0.3160639435630256,77.62795106624178,89.71513419652578,64.00321724364355,99.55850853161435
3900,0.0686687175265188,0.047357039734438534,0.27062584888726837,68.37065082470748,73.28366718021655,99.5664478393549,99.562452746887
3920,-0.0010428688061629898,-0.026560080073497166,0.39745014931849765,90.3619006496396,78.62636149935682,68.66345647309863,99.55268153135354
3940,-0.03973036808183754,-0.07796527224326161,0.3722688478391492,84.51436810645538,88.49346417789677,52.58709866721868,99.53267830885244
3960,-0.04730705154473988,0.08505253668843549,0.41627730352962694,68.70747675167453,48.82481222498545,72.30741707590676,99.55360015955131
3980,-0.038254723602414956,0.0733546794701737,0.30905556609634893,73.1185150484056,114.83419770338209,83.54994154283112,99.57154542860037
4000,0.05707289348228135,0.07060934649019815,0.3415316650123727,65.67373849689226,86.59853790376651,64.60618035586108,99.54995784037354
4019,0.015708747939454436,-0.07372049639433749,0.2828327563153965,98.00874271561801,74.31552489084797,89.13216310478873,99.54653499604106
4040,0.06088221169164664,0.017738912509778836,0.37604249993958866,78.17426608883397,65.23949426867625,82.99401446949567,99.53644069351708
4059,0.052612005387975835,0.03828407182208604,0.39453221138080297,60.846916968286465,73.70335939680291,85.52013561135803,99.55201162281318
4080,-0.029768723078073718,0.026486530141889633,0.3633252421209981,83.14736554428904,45.51882636071602,68.44221506434396,99.56946718408612
4100,0.020986891604912808,-0.004630311533399131,0.34299590208028713,105.99399766545658,93.60264512684688,59.89434804936659,99.55743567763686
4120,-0.05567764773887765,0.07799577083648593,0.2841282585565983,77.38689771461162,86.92949374948304,82.36555530523613,99.56665712987834
4140,0.025406758392321194,-0.02461274337299851,0.289903814019987,62.31521292686502,84.18283879499663,92.87877550345101,99.55674125813536
4160,-0.06583877256038224,0.05501330351578894,0.39588257962446793,81.34881478383707,88.41234264842052,78.78115313041489,99.56199257726934
4180,-0.022703445038255908,0.0549538856308797,0.326977220883943,73.41099828943987,76.6871526505592,92.42095877703537,99.54555016428534
4200,-0.03627713376382085,0.09130241005943728,0.26892917568614216,108.78392437007182,77.14435778157048,91.1539599996253,99.5190657577938
4220,0.10375935409225522,0.01800812396833886,0.35381502922341246,74.00675848437226,85.50678824752424,94.02151342816698,99.53646955838659
4240,-0.011741223694261116,0.047958642776926186,0.3432294333528708,89.63532584336977,111.11597940608593,89.80164766693483,99.55768209996339
4260,-0.03786400987974556,-0.052900511151521515,0.28747533695665617,74.46164471714528,77.37136675656525,92.3160223495776,99.54135563132779
4280,0.04418786548242745,-0.001200263505486738,0.398148764729602,107.10222030801839,104.50903213263454,82.36474734562981,99.53755756747
4300,-0.023232727224272127,0.049715016159952496,0.3218869797893305,72.88940128166985,80.25209500669011,83.98866520024859,99.55491550923054
4320,0.008904423024229068,0.06540546892950551,0.37082512240505583,64.03467423208681,75.42935993380296,102.00638925690563,99.56651571389614
4340,0.07217282343490278,-0.004908232475797136,0.33369661011416385,84.23149752120607,104.71251649285482,68.49820220721563,99.53122451746053
4360,-0.03533653756172611,0.025843539814370122,0.30236130817207035,82.55174101997387,77.23052772125821,60.1867144143705,99.57752801216434
4380,0.06912798918055854,-0.03609484735199351,0.26456576342066,56.481878490633896,78.57040184476438,92.72739205098407,99.56949415112575
4400,0.09781169425026164,0.055005174669265904,0.39502136036720736,100.14939147036023,80.13991130452771,94.5110480966261,99.5609347165583
4420,-0.00020210034943728556,0.03700655458325227,0.3422465022295356,52.049415925559764,53.03040098273931,69.76684911540576,99.53434728416596
4440,0.02842074403488398,0.0285076946615897,0.31781708461667035,54.90387450729121,87.68175029168708,87.53006568348313,99.55249012013948
4460,0.004137838825715569,0.06993972925333138,0.33107123881500095,89.76401600395396,92.93476355889274,65.4074297646378,99.53959997995301
4480,0.02586355306456982,-0.020936376988067728,0.31651859394684484,85.39249617710938,84.1079769971346,90.1008411557616,99.53043700648894
4500,-0.02960574200684439,-0.01972480822266715,0.3199086825834046,81.99481867669961,64.82889922484331,73.64236342855673,99.56348739599876
4520,-0.0032180248336585167,-0.0002934358853282366,0.3880205673485519,72.59609124660408,62.29828690579155,85.32098149804531,99.53284782107431
4540,0.08715393535136129,-0.06642981577993505,0.3425785764636811,81.38924782469486,97.0738489021376,97.46739239933909,99.48207466610035
4560,-0.05077437660018731,0.028210683635162312,0.3175571350956208,78.16651099780067,83.02863622433341,74.33127407034225,99.55412944280076
4580,0.039090625149157024,-0.01731504563382535,0.30566851802541034,97.20967153134563,75.56140211111119,99.40624863955895,99.54337473300502
4600,0.043070597508113054,0.11455079338037494,0.40751248116332944,81.66118257446405,67.91422990447104,97.62797607265426,99.53240392827757
4620,-0.0015457447177429893,0.007551554918857158,0.2753520937670888,86.53947562056757,64.55237032053928,78.20873838965646,99.52310104406403
4640,0.038760358313970164,-0.029291891223193894,0.35374059839318794,67.95017535128085,83.14257516382906,79.43805640567994,99.57660293998437
4660,-0.022264136841332972,0.009099104349133353,0.4324910956548564,59.04043345077905,87.6312726901524,93.11312645469397,99.57285119889303
4680,0.06302476546309936,0.04227459210690693,0.30127004678771546,65.7606007979885,102.30086003689834,75.7612705413997,99.56850144449712
4700,-0.011835919360478491,0.06618363432761461,0.3038955149107654,68.68272712829545,74.38513870186623,87.13285808793287,99.53836205160412
4720,0.04334242181802968,-0.031845406259955356,0.36931140713702526,97.23339085895391,53.87030147252555,79.69878812220243,99.5346032918667
4740,0.0020117105482917825,0.008517496459650218,0.279557751803106,77.82975744720405,74.34075003632127,64.50301752502827,99.53116760075021
4760,-0.07348430730068949,-0.0014967665368976657,0.2878402548876879,68.7277185758646,48.01741737004689,76.51073181251743,99.56203834034015
4780,0.10984279694247055,-0.11030192834662121,0.3548148820029793,61.79858337030398,78.96487742067795,74.22934647528191,99.5269327779465
4800,0.09105031028896715,0.005242850302635268,0.3756163684497453,90.58098324375635,72.35782766056369,112.43063745483761,99.55299123675631
4820,0.02730635717697399,-0.004588565589768208,0.36314890098844865,91.39922849361841,66.98789509632881,64.37970780859695,99.57082225548425
4840,0.06586048123847159,-0.002543102991463273,0.3151259740711131,77.46597809083431,71.17283403956799,100.71022383715918,99.53603326781267
4860,-0.08782752466234775,-0.05380591576842101,0.3166875784485161,80.45097050332332,88.5863281889365,84.72749526855202,99.59292095596223
4880,0.004319194189778827,0.011417850097559117,0.2773979471533562,60.09789264750691,91.0635618453722,89.22892284881061,99.55716529289111
4900,0.02056035601792453,0.07845709732682377,0.35120663077175573,92.53181237959,79.64108781035684,84.14589691822245,99.52039306192178
4920,0.0018032477738170972,-0.016341822034263976,0.36204253465666136,80.39547138248358,105.99316480931992,90.71820939550727,99.53026869315912
4940,-0.04940968518976263,0.003209651339674795,0.39116654147586594,76.83904212318558,69.39857377878819,59.182839434789024,99.55029062103769
4960,0.031122521744209836,-0.002702554711243793,0.29505703958631424,70.15688827958937,67.66744381209574,75.98006365626635,99.54886878113024
4980,0.040360391254772865,-0.014806492270940413,0.34606562849372735,62.74375829622005,52.74488941663173,68.05803269441111,99.57236854703969
5000,0.06498331342975923,-0.006232494459203659,0.307864262783773,89.41801876498495,79.61020268344967,77.0277747830811,99.54517889629344
5020,-0.006692388641037834,0.0054712337370027096,0.3593466524229602,69.33495413842094,79.13844954671555,82.3378000823371,99.55750162257306
5040,0.03554592862101159,-0.058930431359376784,0.3921973797896268,94.02026762132644,79.43734188019585,95.47001156602649,99.55729070206046
5060,-0.034248261248760924,-0.020024484606205394,0.2994425118151858,81.69125024058823,81.68400727245222,85.47699807379304,99.57802411328218
5080,0.007471304251466937,0.03486487298769492,0.3418885647955567,72.33801226298944,94.03690362655973,84.52961469096003,99.55341068778375
5100,0.028732333062876314,-0.03906888004593565,0.42474171786802245,81.46194254123536,110.88897573795273,109.0538705132215,99.52037971318391
5120,0.049453658743720735,-0.06752791605405792,0.31096709284439406,112.81500394569376,80.8267951181635,76.39592236708613,99.52534745866504
5140,0.00603990114759426,-0.05249310950450562,0.2932193477482772,78.2961900183262,65.56460228758938,66.6410794743199,99.55187496791423
5160,0.08785824431930346,-0.04133757758249551,0.33401653243292073,69.74228306699956,93.57990565312704,70.90322421853904,99.5850604776852
5180,0.03210855306471608,-0.05009227409055675,0.37411226672315184,85.09971946738675,102.19850476896315,51.06304687351516,99.5773057291094
5200,0.00589850917113614,-0.04786057685378244,0.35933658610369507,68.84170987672536,58.53785982592444,69.23650507063157,99.5856614950904
5220,0.011217702565435618,0.003438031766648841,0.2899091638273813,89.40603043765181,79.58684874593848,87.92530808034708,99.54548015912012
5240,-0.005441794490867314,0.07354095918554057,0.3239210032171026,70.09001412890592,90.96943711274399,83.97595055196743,99.52883799241746
5260,0.01774729675473603,-0.05078595080427295,0.3721683352766258,73.75588821394072,62.70238683021344,101.85247662959827,99.54310250075139
5280,0.12810962943860135,0.0193272719486125,0.37584268804793247,72.85919571971577,84.5392901312975,86.40905198864894,99.58889310065487
5300,-0.004599833306417758,0.03511823287477878,0.274530255884581,85.66373059634076,67.11052892033995,64.25554947902964,99.56989649696767
5320,-0.05055076790291016,0.03892015709247862,0.35018991036142244,80.82966639396427,85.13660832031393,60.145946036609274,99.56735416204577
5340,-0.00955193667859311,0.016628780987307117,0.29878851191533234,88.68673102594317,65.71931132277567,64.28506266937755,99.54044797964808
5360,0.003008003117105294,0.011300932134362843,0.27028004057510724,85.01068490958306,94.99543907577404,89.72652941818576,99.56743777468223
5380,-0.024668093827645184,-0.03376847118616745,0.24470690011449422,96.94133188966998,80.8028647406154,79.27626862657057,99.53990829299569
5400,-0.05417988837161646,0.026465563217050722,0.3084396490654936,73.95060863840985,75.44892110196652,89.1017128151604,99.55397547180903
5420,0.01743605060144762,0.0022612074180418415,0.2832356137502453,82.53893455671417,89.72252305822278,89.0749490990683,99.55268139649336
5440,-0.014763787640948732,-0.06443390360772183,0.25446821438912204,70.74758902805576,88.10165061103092,93.03212469010461,99.551577733621
5460,0.032903781303551094,-0.012729821291218149,0.38873387017581823,80.72733955870497,91.05477295173971,70.31722420147737,99.57323931271563
5480,-0.01820079879565024,-0.015520088988270965,0.3024824427770637,83.89538386593257,96.76284113401081,93.67305238574676,99.52874717155261
5500,-0.031219302552858742,0.0016757149449362332,0.37127575160241855,64.36125219674703,75.78568514615526,82.6615935865789,99.54472844602229
5520,-0.008196135423322749,-0.032536550382583726,0.37183526799408245,83.91257882918774,71.43701000363073,63.64934723203541,99.55803167171089
5540,-0.05673052172899284,0.006822582150934666,0.3737075840806652,92.66285566056331,69.63476072505632,59.71275791541743,99.5586395087738
5560,-0.06221391735793577,0.13759247639529504,0.3294812367518794,79.62077861980474,85.42839978578053,82.58769108253712,99.56544225224566
5580,-0.0012487379521969732,-0.0036666723965741114,0.34481139812393863,64.64841741010532,64.03460036465522,70.85125699783968,99.53466950323651
5600,-0.011634202331878995,0.046352620452417254,0.36667301281714343,97.63404179616674,70.1715024413404,90.10888803084828,99.52896837270686
5620,0.0198822923801531,-0.02359173174008953,0.26629436642461035,86.68476268427588,78.8977303163531,87.43249688167633,99.53810671571483
5640,0.03969291070236625,0.010043123440025711,0.3684470318360046,93.9997714205454,92.07094468139131,72.69445063345046,99.54759223846399
5660,-0.00745781345892119,-0.006309337333089478,0.288555805439397,71.12901117667398,50.22651360270472,61.62414068173976,99.52736381305162
5680,-0.013497333226648712,0.09111919053456909,0.3083637836366295,69.82129613245147,85.07427519425325,87.12955255962066,99.56074132197472
5700,0.015349634078022999,0.009503316730006692,0.33487266994689663,96.5843969702352,57.45724583054955,94.16234219899472,99.53481720866205
5720,-0.036107908175911266,-0.01490033683312899,0.36034043921279457,86.6462014141693,71.70553284719097,96.83753679251978,99.53205560767229
5740,-0.056304557126276356,0.039570770878395556,0.2718461213719155,71.16296136492403,94.88561050807807,60.06579698245575,99.55473476733654
5760,0.028821518033989454,0.007519299944206447,0.3768956947547744,63.31109301223468,94.57776605383958,87.18667477530148,99.55672402107496
5780,-0.040826053042581884,-0.018855476755441483,0.2871996391579418,73.80203022134359,80.2096628881032,88.97145375861408,99.56716982127693
5800,-0.054907216130180715,0.012482956481969048,0.20909547980739038,92.4141948029981,85.6135116856896,29.37029710302079,99.55591173679045
5820,0.05019509254625423,0.062483813448330275,0.3810362973117817,70.96225624856716,72.35526864215595,79.66231944988468,99.57271667698006
5840,0.03491030943466128,-0.03740481608018473,0.408241059310467,76.9340170304321,75.03617214259118,74.1434297190398,99.54660721771143
5860,-0.004642834309260452,-0.11736117616557229,0.4053208483864559,85.57296700274749,57.887491764114884,83.6721387814352,99.55037200267782
5880,0.0015407247551342618,0.036432345845542904,0.38145799207980524,77.84604299759674,90.4113035924224,66.20881009814691,99.54807189944478
5900,0.012261728147823111,0.011637210991612914,0.2927700791583241,85.23380508435298,90.20275302243695,73.52698245401675,99.53566319999045
5920,0.0760870525531985,0.15234837312589627,0.35951316709526643,72.61577649988644,75.99668221612374,73.83022533537212,99.53073886034291
5940,-0.0408250910473511,-0.05867425985857843,0.3304439038380386,95.32970736910603,71.41181396684092,89.14159488521997,99.55032593845411
5960,-0.00035220419085213965,0.005276577739675339,0.38207437631032537,92.31424558591321,90.21006111263384,59.992501310796,99.55056947090357
5980,0.08045008834048,0.017489402763636683,0.2932356782646484,82.9564163273537,71.38221592210883,87.42376051066164,99.55448250202457
6000,-0.03078919453189971,-0.02560650784795498,0.3348974307200269,77.32809450453722,53.387349233434904,93.92321729637321,99.53464192051227
6020,-0.06277646105338859,-0.03531091469850819,0.4081363115497513,76.54031496483182,84.03168806968436,87.78870121907494,99.57548361802765
6040,-0.028532474446698698,-0.012091187663712762,0.35594842852187425,82.46619809391534,94.78855570954222,79.25412784741498,99.53874763671092
6060,-0.03080467285808495,0.034777909790468374,0.34596192202387965,67.21203057734348,77.90022912667457,101.41966226671029,99.55320037982797
6080,-0.01697593325933631,0.05894884924350721,0.37495608706791395,81.0217746919643,59.35389213722277,79.39097381480035,99.53419329547543
6100,0.08461952432737178,0.028361539311546682,0.3788925182023697,90.72084634099193,70.28975305982244,85.81673419635739,99.5911325363971
6120,-0.0762509024227383,-0.07180265996136649,0.30333294425542234,80.03181336270121,83.22683475162209,72.3176726700751,99.53114084189762
6140,-0.03766199897243614,-0.05588814099185564,0.4216704716458193,63.80813106581097,80.08945102406767,80.02090827455946,99.52730102376424
6160,-0.041066048254991584,-0.02463450031368429,0.2873100377071952,70.17035209403383,83.03241901622452,73.7376496118412,99.56923020753808
6180,0.04276396403520166,-0.09474253619892332,0.35225656414571827,73.34016013192489,66.52101225179267,88.34704453886658,99.52485724692437
6200,-0.017609207777973895,-0.02467210536700446,0.27555335561394995,62.148739106347435,78.57435571735668,83.39842167927928,99.54254958568099
6220,-0.026781602210122008,0.03242409265168363,0.2824834571281549,76.01771335927725,55.01904878416535,58.56736359424235,99.50975243595204
6240,0.03681002464617105,-0.0062466876515632624,0.298081985739508,89.98786279917279,77.52993628222406,92.63667107868287,99.5551711718151
6260,0.013823281746786703,-0.028214257109231384,0.32082193670151277,64.9469099562377,63.0521916899837,86.80064301373297,99.56066796497394
6280,-0.08427166615421465,-0.020858991886675858,0.3400543872264603,72.58554893897055,79.72084741562749,79.40651365477882,99.550236845453
6300,0.034825568185265526,0.00928333965897236,0.3180114471891291,67.47217913025538,75.30111950363663,66.03156800293544,99.59626053121092
6320,-0.07343285714027167,0.03568970128669207,0.3405477440032572,84.95547584147383,90.41797125762885,54.844628473670866,99.60109047034682
6340,0.02024952695943861,0.05655015351619389,0.366288897839593,80.31134959398817,85.47894159976875,99.22901407626037,99.54570147795583
6360,-0.017229580798928484,0.048944391137328666,0.35704134964187384,82.58128497580915,88.89621350925576,92.53495287041542,99.53556942655682
6380,-0.038310499477247136,0.02595956980261732,0.36059341983624627,74.08291479810767,82.28152033433341,84.18466564835248,99.54552159250714
6400,0.014939699104754074,0.09160926069326732,0.34425158849869625,79.35847871225917,89.06108417998155,83.23984979150019,99.55867467515318
6420,0.04472638042585171,0.06106896297371398,0.3832354510482905,99.80612857867479,64.71720800263645,96.44891395340647,99.58512657664185
6440,0.045747342520175496,0.06382496821739246,0.2672153031279928,83.7785220839302,67.18378267305852,73.00064191612833,99.56065077905282
6460,0.01904840426975596,0.03638205831091056,0.3842398953988885,71.36711968223526,69.73417365300159,91.84952006065816,99.50810883960682
6480,0.11948433734585423,-0.01456947170360999,0.33956926173757096,54.12202951718265,75.39529909462595,96.03725651212365,99.55403935673219
6500,-0.08556414867526146,-0.00695913501197485,0.3699845287395265,66.58913184984034,79.19304467071397,81.93107578448752,99.53959012927496
6520,-0.026295387235673318,0.03956650250573136,0.3679421687586803,73.47197174440129,87.13032271450787,77.41873028445096,99.52758122945899
6540,0.06307885284906926,0.036570997356615835,0.3680232753221741,84.34979055784136,67.12045004716778,70.64302035209964,99.53014829715819
6560,-0.03952041528472236,-0.057205719848030294,0.2655065908804336,54.67753933586403,70.72447198330897,99.10134967929855,99.56059333298506
6580,-0.04362680638438553,0.019699730205356678,0.4469309999544245,89.69904117692052,78.76632564904442,80.27907933317393,99.53840725254274
6600,-0.012870028620116217,-0.02002106171119205,0.3901750634592236,58.620317477119954,59.662226744590896,76.23361647477817,99.55127910980173
6620,-0.06948324575543659,0.003973018885693936,0.3638529772429142,67.75350835618666,88.69833721148916,88.16201169871408,99.54166286617506
6640,-0.0003978371644006715,-0.013231843055009988,0.3417643776243106,79.29705289151632,102.69409062730213,105.64152601134197,99.57224023958523
6660,0.014987051475823658,-0.10299471882646297,0.4128749767203778,69.53740481669763,81.1449851391674,72.89664073870118,99.53557782486817
6680,-0.040409280081729476,-0.03953055589225595,0.405357525062588,90.12334337060791,70.34337862910697,69.6619043448039,99.52725366282367
6700,0.07139259997662363,-0.009062680783340502,0.31662153265652704,59.59931409654951,76.26100753227564,88.42974478179097,99.49672776712846
6720,-0.018111041701861275,0.029888009482683126,0.288646344760552,92.23376618440744,57.60862338783474,78.63489475745754,99.54069962431628
6740,0.07212073949223081,-0.019552658251610348,0.35030520256427955,81.22160658755493,75.02756470496514,96.89343631666364,99.57274677106757
6760,0.03973023396941899,-0.01730080892811525,0.2880151729070495,109.26803205123353,78.95397754277872,88.95344699935346,99.55059213798313
6780,-0.032941502289504064,0.08181336373182448,0.3837045772295305,78.14191271251997,80.84565867461521,79.39501492413314,99.54331794008317
6800,-0.0493035194009179,-0.11535687353735474,0.42183573184678336,98.0154934451706,89.57199961618954,92.89942033682593,99.53774773252047
6820,0.03003490571102519,-0.005864145219716017,0.36208013813755763,96.4414767875648,83.75093340378339,96.94678597627451,99.53511967888619
6840,0.036246814004814304,-0.013180675257321884,0.37150761288336903,84.01072786707225,72.27365626367425,78.04456945382202,99.57720695908262
6860,-0.039956510399651896,-0.0191487735277581,0.3603500069444325,55.71887652222803,94.08296881077786,73.4819505229831,99.53837306687227
6880,0.1160509502686836,-0.012280486949550702,0.30732363960411097,89.38405053682635,57.590796934785416,84.88243726301435,99.55105021587741
6900,-0.05001199076016789,-0.006780646154106779,0.34478641811636207,92.5011511977946,72.07683606557026,73.0723362889637,99.53313100757381
6920,0.010844581118181401,-0.04119205701268655,0.4145060374922704,61.438853355996706,89.12026609522557,68.63964204951353,99.5623550744532
6940,-0.0227272499510418,0.053771973435958936,0.2887936477153439,94.52035463437329,67.29937876755173,94.86402321643602,99.55662191580946
6960,-0.010326754335605459,0.046698117250334126,0.34076227047526614,75.88046068333797,77.45078291021899,67.8309249023338,99.53878434389489
6980,-0.04146949354209013,0.016483118904565337,0.41299058063592975,98.35752496867042,68.19483247369504,94.55288555226534,99.53407773491408
7000,0.12035693079041286,0.000676406249625438,0.2719460063440046,68.0576067301127,58.12477966463275,74.3664536645071,99.5394921559374
7020,0.03200986755397825,0.11446494711357934,0.39351272548795685,54.82625875787482,85.90029058505345,73.74660186852705,99.56696982268143
7040,-0.011776190496042312,-0.012456233450852412,0.2961598598853873,90.6981620246074,68.42009919988351,92.2274757705638,99.55382111089436
7060,-0.02815508881663638,-0.08013612031875587,0.35453146913538336,74.12637518943798,92.87940398077046,76.3272109176024,99.54441339814153
7080,-0.052884285404513925,-0.01779539021491213,0.27797494170237347,72.74502825620107,72.25631218259309,90.81011118494324,99.53939961829981
7100,-0.016938522189079572,-0.010367978473264351,0.3428732579368042,60.45200969160196,64.55070857003045,91.36216229413,99.52703691312485
7120,-0.0752040962990767,0.03856555462231093,0.420881331831899,60.12725465131659,61.105495390039664,75.08196922707519,99.52866502276163
7140,0.005648947965946179,-0.005773027139871065,0.40596525846579906,103.93309820780789,55.427140523677515,84.99534340429717,99.5458130832058
7160,-0.04883212247740454,0.030665395291966376,0.38388412659990995,78.43124965373835,77.33144287295116,72.62431652531208,99.51600749328477
7180,0.05211661495012361,-0.05847977426717507,0.3713994446780171,92.0427486333341,96.54474742931575,76.45781988359842,99.53074427171072
7200,-0.05969052686683675,0.01810255689789497,0.324304969482305,94.82199159693657,96.54293999351853,78.73814972975337,99.52745062986321
7220,0.0006546925517007263,-0.03998503470352586,0.3893201374266249,91.80039862548622,85.41877219562346,79.5723324051314,99.53585594415527
7240,-0.0063564795460124175,0.030911341222240565,0.3734205230481513,95.23489697789763,103.76333199538708,84.55463251317933,99.54795079770174
7260,-0.022502431129995,-0.012105775809201455,0.26057702695678153,93.61352616574982,98.51414977687091,79.46364368094815,99.54551297644973
7280,-0.030007761008917156,-0.02878906139184887,0.34916438307851405,87.38399918364381,78.61087390726344,101.18385120189083,99.56428731368509
7300,-0.04723348488977638,-0.028537630338300087,0.35105445223974685,95.38207692676991,62.181097569190975,77.0216222937474,99.57245880294785
7320,0.01964639844730123,0.012442050426926216,0.331410041708266,59.60458257439651,79.04292168952067,77.6762202656999,99.56928014926429
7340,0.029930234756965504,-0.020104861071768447,0.3973662957190978,87.18320309834321,88.12015980794251,90.32219178813942,99.53370894032807
7360,-0.0018146592373327376,0.05413397109886869,0.2918987017134308,66.17554384896387,97.29159848172918,83.003130615375,99.54749630819286
7380,0.006340110819301323,-0.03614464052152845,0.38489932941003585,100.83478020676228,99.11549867056473,86.16912738347118,99.57069870073511
7400,-0.027587581025506798,0.032127014267090255,0.3473646366073874,80.23316267726878,92.59806999076834,69.09706806244466,99.54677311631401
7420,-0.04659921011325511,-0.03793065672807841,0.38850486389525385,66.64297429233149,66.98685122136239,87.38283066253025,99.57798817280498
7440,0.043222747041372626,-0.09777338232215654,0.29684197879813873,98.50775142615835,98.03737526685728,55.59723473956012,99.52393345715201
7460,0.05699227476209067,-0.049159046945813994,0.3194118255991387,78.3528302670816,74.36339470300166,87.1901476873938,99.58369006689067
7480,0.020251380500357543,0.03551779845817341,0.42978089530439373,69.28049317571984,79.73234447635438,77.69345296310094,99.54786135171031
7500,0.011106722415180051,-0.021075243460077723,0.4210521355992809,98.19323402801953,71.62541451971221,87.20972894191061,99.51927304134406
7520,0.02105283802369436,-0.0012572353190803414,0.48121199825063954,92.99848433068928,82.01920253142913,67.12006016167555,99.53316676833748
7540,-0.009209078948008589,0.04385985948064475,0.3631462313538622,76.76688530984877,81.7301170166457,69.77422496344528,99.52894376812536
7560,0.088855272856886,0.0070483774617923906,0.32441671500666397,74.4912643438978,81.26980248194056,62.33022570908666,99.54698965382599
7580,0.06532726704744458,-0.027971123365964357,0.3486833655156709,98.49162626376594,82.7071139321776,57.63964970441827,99.56867846908517
7600,-0.07286512937059612,0.11434218462739676,0.2868851776551167,73.78469992578258,85.68757875553236,82.59180294707005,99.54999284110075
7620,0.11459014751865088,0.06572870017745516,0.4377971258899125,98.37465085989336,80.11936392076638,71.49394734307134,99.54521944827309
7640,-0.04354036257753984,-0.12428660104135841,0.3537597627433193,57.95620489625407,89.23305535633017,82.98923197094538,99.56076456617393
7660,0.05481905347094486,0.009758287696133176,0.3595881627880573,59.23875413034333,72.08263346878452,85.6673105583922,99.51602121192573
7680,-0.0862377922086825,0.08963726930009797,0.4027997740725191,81.71160184495679,77.01883992379034,77.75059532149929,99.56054026938295
7700,-0.008240181179400391,-0.04272244237731772,0.3185141127101953,88.9544359380985,74.78688616172904,77.29961365616875,99.55794114108467
7720,0.002284095320178435,0.09799659831535573,0.3813960257042763,84.6890895970918,76.09440064111872,62.575243647309875,99.55664009281331
7740,0.042512717012373365,-0.04627972609973063,0.3176879147160658,71.90803646143031,88.06183290290318,48.5050623826725,99.52775190617479
7760,0.015950054566674657,-0.09079305083770889,0.31722090591067664,72.8247707490016,84.29254078064342,85.91444057336786,99.57623247605382
7780,-0.03465036661336164,-0.08941267507362267,0.23158430099991134,77.43538200099185,75.63601544276219,78.57972175524017,99.61001297700324
7800,0.0018633484132234614,0.05216310554944825,0.3464208753094142,76.73878234087293,80.65623312080545,80.06695352073922,99.56856087007414
7820,0.03591761718054115,-0.021818716384523734,0.3908266276782283,83.0242420919222,87.87134697634421,94.04648112827674,99.52866766585412
7840,0.018828386384425064,-0.052454604768576135,0.38586761549163595,75.7544814897197,84.16537669144824,107.47161551657143,99.53827356429316
7860,0.05096204859259963,0.004778636869767465,0.2935064498055687,94.95278532079807,79.51343768199358,80.68306585059298,99.52969491311984
7880,-0.05642653417845818,0.03596985074594196,0.37142342339949236,67.28076167736113,77.67811115231967,68.73023154236785,99.53186949454803
7900,-0.04336154561789154,-0.004789622821090676,0.2714373592058398,80.78266608313817,97.05362217392373,80.25836690696127,99.56321310787466
7920,0.043372002897917594,-0.05659087679917625,0.41706174490215997,79.36557341590157,81.16234549747587,103.24040748375177,99.58918101276436
7940,0.02530459501235026,-0.08566439048684997,0.32797087986873735,85.33296187087682,67.43109727075988,74.05059110588228,99.50803006191225
7960,0.010670293136249523,0.01595655720782268,0.3162119214808186,97.49025240365431,75.0212099189265,94.04591181895846,99.54493906870977
7980,0.07691892384236168,0.020023880106002014,0.38717512293521217,70.2226841503011,85.25762543160673,82.17408097898776,99.52614476472336
