timestamp_ms,acc_x,acc_y,acc_z,gyro_x,gyro_y,gyro_z,baro_m
0,0.03818163948525274,-0.009087858040106865,0.9216263100618288,-4.997278904870787,-11.773541138705081,27.361828256352563,99.998354138159
20,-0.014507475969722218,-0.01701178445921745,0.9557861578213919,19.696931691134058,-28.381873226052733,11.584582244066356,100.011001940135
40,0.02152195449203149,0.06570903722065123,1.044925690022886,-5.236457236621206,-3.6073175581804753,3.2272677984240214,100.02520401932048
60,-0.013594746973726257,0.03824489874215041,1.0318669836589907,-18.401023322098954,-16.95539619286263,-9.517288208981192,100.01012765915694
80,-0.03429627240057181,0.04512875027422659,1.0550226844855095,-11.06689866822736,-22.150391421373268,11.744806730726925,99.98562010006022
100,-0.008341557333363702,0.03690641229973244,1.0298648400170551,-1.535741499064313,3.9242547389887914,13.72357170806551,99.98924012023994
120,-0.0005067806063259213,-0.009235609353386307,0.9957891764431963,2.653056530537449,-16.33303079944224,-7.502681147061065,100.01524426250337
140,0.011056346138627056,0.02642182740369994,0.9706733882370233,14.79673665867907,-0.7202466849620796,-19.718258132205143,99.98859580842564
160,0.04496854604160973,0.03139018518358737,0.9978716000419318,-14.188931010451288,-18.204897769934256,4.8970265791597125,100.02728424761663
180,-0.06801348244329623,0.05413960533502785,0.9916785915700203,-11.979926413677779,-1.8982603676303769,-11.256925225422364,100.01823170585098
200,-0.0589781250781991,0.008030834995643606,1.0240776466742738,6.611472932515909,-15.774996772962133,9.1241495089325,99.97927941942918
220,-0.03027392997503476,0.04024453946359763,0.9721915181695016,-17.08277903597989,21.90203692630997,-10.181018169765045,99.99674085646673
240,0.05949231444056215,-0.01039079178792077,0.9975667692368945,1.8086618504317458,-18.77308356473441,-10.64658162222701,100.01643597553577
260,-0.04237100261746016,0.01129003280111044,0.9948631251400232,-11.421319121900652,4.570958418930498,7.797464478093078,99.97702018131646
280,0.013466081352065963,-0.02328801983062789,1.0353767160846985,-11.047497300955184,-6.6688874523634425,-2.240699587936186,99.97140117562196
300,-0.08272545150141772,-0.05048744062931219,1.0066382647658985,2.892536472989042,2.541768273246106,-13.39737292502126,100.01655633495928
320,0.022460528004072,-0.036232461551975265,1.0482034819712205,-13.309510584699135,-16.829926932964753,-14.717686867021213,100.03965675184918
340,0.018620682390850407,0.07642864381412169,1.003751995810517,-7.572983509079042,-6.524569196722654,15.11326222365319,99.99055789858934
360,-0.016303165005609146,-0.009550096984806796,0.9772577101839722,-6.7105037044070155,-14.026378741277943,-17.30515673509295,99.98105471017199
380,-0.02372806512906221,0.08922178399999295,0.950017259199611,8.31102050532658,-8.16507003280685,-10.534851754518336,99.99486535301848
400,0.06268189058165519,-0.017944323835693075,0.9167926118930971,-8.81637356285099,-10.367242885647704,-0.4535518240784274,100.00217769069181
420,0.005771910789943978,-0.0015521006592262075,1.0104364346674315,-3.0644570054204743,3.1796497009082456,-25.64794988154335,99.98380289541879
440,-0.03282269560883738,-0.018444349162837725,0.9646010229344976,7.0336315347289595,-17.052877052925563,3.923508393810013,100.00664581237884
460,-0.053591608678538086,-0.020431119318056773,0.902902885971639,12.791474996562222,-9.647684357488448,-5.255209916837212,99.99717966023032
480,-0.05041212749440849,-0.009611928322176723,1.0225952400236085,-14.985720559215359,-4.380082066348431,-1.5473065078282464,100.01055096075599
500,-0.005853523044757369,0.018244189531567347,1.0185083683176577,-13.28634819014934,10.16637703409851,11.205575442120445,99.99731140429475
520,0.02344885202634746,-0.06030862093295417,0.9922829110913435,10.713877424691235,-16.057627806802827,-19.391736934110234,99.96440255029913
540,-0.05485737249262125,0.06646421821035778,0.9512361269196337,3.1305852769137292,3.236547582063593,-25.193760133359316,99.99755610015181
560,0.009955116114710904,-0.11217651242789901,0.9966739104211103,3.651130784201367,-5.5660683988677,6.106364760411495,100.0100454340509
580,-0.023791451022449228,0.01751001240289139,1.0278244117963913,11.523747226190551,-7.124166975326856,17.047895460873903,100.02704825842706
600,0.09839189536821721,0.04419427501696539,0.9859562591036223,-5.0448915278705115,14.287309620502729,-12.651959340646442,99.96772572115258
620,-0.07165269617968086,-0.08499101409302234,0.931139450444278,19.80792877242258,-3.905564034304043,-12.569740846688234,100.0125570941731
640,0.01688317836054971,-0.041918384064141515,1.0800312774451826,4.8142369140742165,2.732480840234539,-4.206776671447165,99.99935936723297
660,-0.0598744943957831,0.005226274843461297,0.9582684852957345,10.0486975612792,4.401984782231697,9.248187200442192,100.0399402474613
680,-0.013514896989168088,-0.011755678202739789,0.9986600203059887,-7.492036281683019,2.7111290221604403,8.570692406114569,99.99078066354593
700,0.0016361833152768873,0.0006224044550600681,0.966565446281997,-3.485626495928045,-5.716974362159179,30.245875376054002,99.9856797364872
720,-0.008792335592543788,-0.008098816913335121,0.9145405735632743,-7.558721023015243,1.1636143589148469,12.581432110428462,100.00347766176229
740,0.08554332055516341,-0.06838965367775456,1.0361604862423301,-8.524796533181245,8.938167627764251,5.353508499491231,100.0068111836328
760,-0.01550100225326635,0.11045933808070917,0.9903959764527672,-8.45425373987111,16.53866475884423,10.82587370713068,99.99928791613821
780,-0.06633846194564054,-0.04968779833094358,1.0066397493369026,-7.817460730602418,7.448108051408239,-23.583243188963237,100.0125292246209
800,-0.012968695693469421,-0.0204846397569223,1.0664694131781378,20.123867827745137,3.3560816964928826,1.3619994829072966,100.01859092326595
820,0.011700763625700591,0.0002487818327904104,1.0455806411168276,14.273162420420688,2.553620079539577,5.8484054472277105,99.95924478435592
840,0.014738828102277786,0.01644420338954989,1.1264900467964518,-27.374555513273034,43.6355122302667,5.732903467279741,99.98108948381562
860,-0.024619627557207237,-0.027355346462813176,0.9897649868516537,4.851468100604107,0.5728257667786893,-16.8311968498131,100.01594789944649
880,-0.015994986580431355,-0.09699979592733203,0.9973361218694495,6.664234219536111,8.127103504157429,18.85256870334543,100.00267385619168
900,-0.015327160548012834,-0.033226965386023606,1.0455825291651943,-4.014324838193837,10.159981293631958,-5.3393324751901154,100.00099984739069
920,0.09869454561745666,0.014402540765798971,1.0276712889804103,-0.48170135732967057,-5.318018943592432,-1.2918376451317288,99.991338745221
940,0.014928536169013679,-0.05307689457052889,1.1185423411598454,4.530930686010283,-21.201228709891456,-6.3983211956337485,100.0041280819314
960,-0.030342532360819116,0.06447491090597035,0.9743573574510331,8.673059610596162,-3.8253733508453696,15.131153717563919,99.98885263461122
980,-0.01256253006955034,0.017626733618247747,0.9445627896251063,-14.792834796808918,6.289154968598282,-17.19751423405168,99.99852250627814
1000,0.060056130807697276,-0.08344230890551439,0.9865706621261546,-1.8164918454665493,-4.776281701141887,12.80218829344805,100.04795785505534
1020,0.0040670713842861856,0.016479019467748518,0.9713265892967189,-0.959942678107111,-10.5959608382121,-7.906018814891784,100.01798785177716
1040,0.036688719576760766,0.07504584039758158,0.9705362970949258,4.36865115602629,-15.257772614893769,-6.423062719716512,99.97074944916515
1060,-0.012522058037126511,0.03759834066075847,0.9638762746507438,0.5824421818558256,-17.27066152543543,8.162407226549902,99.96533049465488
1080,0.14130248422617545,-0.034224444230280586,0.9302167020130888,4.7272081315124,-11.29036752000757,14.921052590029978,100.01613031587681
1100,-0.03345332751521778,0.01297003729211789,0.9989521585090884,1.3894473141890462,-12.299954602020694,20.14256977298164,100.01560755434295
1120,-0.04105182284498221,0.009977551822912873,0.9713579146170631,-7.327696855814866,-15.599981820588496,-3.1704910238970343,99.97920580234312
1140,0.008343457414719204,-0.01947899582130925,0.9429352458563329,-4.983189160383492,-6.642662885352905,-2.5009980089204404,99.9945451986831
1160,0.008437483229949447,0.0329453750941829,1.0622811592947414,18.781887828794947,25.036010856999265,-5.6890076118545165,99.99454006398005
1180,0.05633893470792132,-0.000556235429748601,1.0308771504906173,-13.015938316487507,7.872051392485659,-16.64628206221995,100.01413482342245
1200,0.0018846286379546773,-0.0021760051065697634,0.9120142603732438,-2.9140116499358166,-6.129766741822615,15.965332888148131,99.99706409993702
1220,-0.02827532165606203,-0.01599015508767778,0.9566887640737273,-20.282699584643183,9.203697388811829,24.243857832316415,99.99440904291762
1240,0.07064219407954321,-0.00705920282961273,0.9479392470123175,-7.684260965862902,0.9418487789710412,14.815610773426886,99.98217021945275
1260,-0.0002978679215951404,-0.027130126294753087,1.0256218956012573,-13.458916821753926,34.368350377581194,2.2244580418265762,99.9970913388403
1280,0.05725323200790893,-0.08611140534931401,1.0996268840924013,-14.604829488076685,15.242400141495061,2.7633717441558194,100.03679803478894
1300,0.03362920558825718,0.01694431714394402,1.008915571638028,-2.966231645652084,-16.759524988630076,-1.2894891563069681,99.99552163222597
1320,-0.04848161574475327,0.04502027591113997,1.0095276081291529,-8.986689173836284,-1.4723160833996496,-3.7861000419802284,100.0258839966849
1340,-0.07947852985851461,-0.025781659669789233,0.9861559079388689,13.83836186876589,-4.61420200651694,-14.574542077938109,100.00439546217329
1360,0.07267929491626475,-0.10407596333814025,1.016459517412647,-3.9188940994987647,-3.5652936294123725,-15.135399113473085,100.0200902986513
1380,0.003000338930689219,-0.046611678512476065,1.032817786788336,-16.635401985809374,6.368004874387319,-9.786325839674248,99.97078556356578
1400,-0.0009510397622609666,0.10514375293863253,1.0542828445033559,5.868006752752892,-11.403358166729806,8.761974371973222,99.98280692231081
1420,0.003164906260235977,0.07384765527414888,0.9463136237254255,7.469760895099077,-15.440503539839053,6.166009927457584,99.98228227179912
1440,0.1122274629548805,0.00829863477771454,1.0224947627485983,-30.625125681877094,-12.09623006828409,-4.686635133748035,100.03086324713286
1460,0.04404258713015427,-0.009624325436559134,0.9923898408793067,-8.902632221861209,-10.235366556996173,-3.0219690137919333,99.97734797862223
1480,0.031127903909147898,-0.001252236848470872,1.090225698658607,-5.9713037778963365,-8.526497977336124,-2.78389614225094,100.01637105281695
1500,0.01487409460346684,-0.02526614090461403,1.031118412149916,19.00883555100312,-14.490316358361206,-25.033441341241286,99.99129179283709
1520,0.03373003374322572,-0.08612293813896754,0.9392966017099935,-5.598737790969558,-9.385270037313159,-7.324984200111805,99.988520123623
1540,-0.009548497098126024,-0.004994373906470059,1.0175893786006516,-1.4188976849872674,-0.799087967955092,-23.89758847526277,99.99667174147329
1560,0.034597128274181044,0.07755766106630255,1.0215375428084148,13.458105737581151,-12.915097398236659,7.015827265016182,99.99531690695031
1580,0.008276990443259857,0.04410051562812557,0.9455193650732002,-4.49012803077555,7.1530802324398515,-13.784218021003108,99.98918520724672
1600,0.0023682845617980374,0.04621077364978737,1.0260460880700697,1.9823225454248647,2.9544871817414533,-3.6436477495161768,100.01602446609057
1620,0.016385487094653744,-0.07380148090473271,0.8644837905520267,-4.441341225612943,-7.3475345133202925,-12.948606133701738,99.99037837638812
1640,-0.07311752531867537,0.0625679224193084,0.9798189010275625,-13.502389111379541,2.131437683390975,12.795314832313629,100.01280134806214
1660,-0.05640594113617871,0.007225065821225176,0.9876148842479959,17.36357012228959,-11.146143560721526,11.607618228929791,100.00132376306343
1680,-0.021810020452847148,0.02194004170805321,1.0042542889341488,-10.926597265522172,-4.030646176217886,25.637853390999823,100.00621276867597
1700,0.0011597397664682638,0.06334296554020366,0.9633569353004461,-20.232450728231363,-8.253517590019449,-9.202026111638864,99.9765332656403
1720,0.0036405669412941516,-0.01701215281445679,0.9924775778903956,8.216738298594414,2.1445358513500414,-11.578076938896768,99.97809153167725
1740,0.03506331072125331,-0.05776524041975552,0.9671200181583625,-3.6941468664728507,9.798625882040888,14.70527711761536,100.0069134919898
1760,-0.08471313978864559,0.006779574715525618,1.0066894566475604,-1.8596788618720916,-5.485596411229526,-14.162576492314756,100.00687194432415
1780,0.009261602978436381,0.04047802390879245,0.993555099440396,29.405056110006996,-11.16567300583547,12.696096771206669,100.01459121803757
1800,0.045249523485870156,0.033218732240333386,0.9986259522210155,0.5256676701500285,-12.007589648993605,13.855755420179332,99.98857718098022
1820,0.0248308108221158,-0.04848371578625244,1.013165483829667,20.28492408909965,-2.490099387545379,2.9967510537075643,99.99677271186836
1840,0.04635333453553182,-0.09067464110797453,1.092206211478055,-4.62499934846071,16.317973200860862,3.4043712514575173,100.01145713625878
1860,0.029588026762992565,0.004422350957790151,1.0591318824056715,-5.059565058193379,-4.687014228932484,10.452861150866063,100.01353898126845
1880,-0.02997386728072701,0.036930750299649116,1.113645341608236,12.171610861975362,9.291617466082116,0.7953020873579166,99.98752858629771
1900,0.03505249474934478,0.004850287340954704,0.9813528960273459,14.298731826940573,-9.703177949464731,-15.402883273250051,100.01403934414029
1920,-0.061385486523709204,-0.018616249735554848,1.028917027022091,-10.680926865126914,-14.762974735520407,-1.2935605848312122,99.99437901338877
1940,0.09733876550109247,0.0032314387986701713,1.0501387171305285,-5.380636514401759,3.2360899594363373,-15.797661066158994,99.99274426056387
1960,0.039882600111017796,-0.014396634697943873,0.9618452419219301,-1.110183228855686,-3.89743654775456,15.802370653736357,100.02291440108799
1980,0.11867043434160013,-0.023861726940826878,0.9101823532751919,21.655641041370636,-16.551387173025343,16.919400728991075,100.00796769525905
2000,-0.026064565037759842,-0.027189249710383025,1.0400741563480929,-4.324104471532633,-5.085396927102864,11.077702230131038,99.99074736216849
2020,-0.030877464956155,-0.008577949674993882,1.0757989108647195,-8.794978471333387,7.89060072807629,8.588655282602847,100.00471827662838
2040,-0.0542932158732537,-0.04144355458652671,0.8948509013858682,-27.615662977226833,-10.100558960356787,11.108661837263266,99.97981445792425
2060,0.10086115368181675,0.10748389539211385,1.0008304966627775,-11.823021270399138,-30.498839856793882,7.931810609673301,99.9530128849281
2080,0.021646755260401634,0.006069899778344575,0.9371308285539769,14.595396042640878,-1.9155146490986512,4.213072041474293,99.9770593699155
2100,0.07801909477700451,0.024837814016631713,0.9972444653949111,2.1950093101188535,15.433725124491925,-8.75646222418661,99.97158749372069
2120,-0.06024005548103722,-0.02271789190402802,0.9721182335086385,19.753630814427076,27.5862090535632,5.491282091485128,99.98106307591326
2140,0.044727468946727494,-0.06692150311961109,1.027525439283202,-18.206563688927663,-15.40326042762828,-5.549294474405698,99.97694978772554
2160,0.08713148450923575,-0.041146344435122925,0.9922776424285032,14.65153353398009,-3.984600342705204,4.512602529943118,100.0113065179947
2180,0.009846542965001651,-0.07052799557328454,1.022581770457304,2.211597324554718,-3.2661500669703383,10.486443315478866,99.992880771758
2200,0.046403687479013085,0.05452081236637512,0.9891129900771797,12.45201694159693,7.945309576504972,7.295961149243073,100.02413313916729
2220,0.009961101760883608,0.01236133335381203,1.0344612184137183,2.805634582499544,6.069636740288801,8.166243251585227,100.0551769261067
2240,0.07203829893487222,-0.026235601890259502,1.0037463715834098,-13.981318645270395,3.3615425693268204,-15.247038142607622,99.96141553118241
2260,0.06517494775231072,-0.04789349562430234,0.9688771963148144,-0.6336356671761127,-4.287517111867084,6.3373072954834235,99.97295639361553
2280,0.04952850600833697,-0.05825050045270459,0.9661765829441884,-4.319474935536009,-2.4881847553077234,-4.020487824116646,99.97788099017914
2300,-0.04599478024863835,0.029567144192741937,1.117024906113377,-4.865982393909346,8.598385458232206,-2.6578091054717534,100.01660219852728
2320,0.09538114731221049,0.0009096212861778715,1.0366085619759806,3.093977369828529,-11.943545182781339,25.906146785474036,99.97827860532718
2340,0.030713278598654088,0.11586439254663317,0.9991275395045367,-2.7117721017444545,-14.702179876956269,-15.793735491141,99.97524384345104
2360,0.06505792001325889,-0.06921769536647009,1.0325366261187936,-13.522149500208386,-10.060633592298924,10.416777053123349,99.99336417675207
2380,-0.03196690240047586,0.0794214999307768,1.077097717935867,6.679032568962712,12.444723847151257,12.2535325042071,99.99024213625684
2400,0.054986805256111396,-0.06930992079471292,0.935733894272769,9.964534227134916,-5.230705416028211,-17.170189319770166,100.00610782315653
2420,0.0006784386660656436,0.023891486943602866,1.0093686167790634,7.669934982826572,-7.786891424516762,9.720888257590293,100.03795846866167
2440,0.07222229397056823,-0.013354948164994749,0.9410610537858998,18.229424533798287,9.284962883537396,14.011081167777174,99.98606707220208
2460,0.03718534915403259,0.009571433670894369,0.950167989604173,4.702232300872886,6.103630631379517,-0.8133214814015044,99.9894360270718
2480,0.0981209668544521,0.011707070922108133,1.0662218435630808,-7.860834311085323,-20.51992154855701,-7.050729791891062,100.00642720973298
2500,0.06328916859999292,0.014994018785423644,0.924745211191417,26.074711971983106,-1.89395239971949,14.204295632098002,100.01245612923094
2520,0.0047375053490179495,-0.025523389301232616,0.9588346348578975,25.701075174115985,-6.344789026970409,-2.240442312917639,99.5328066765255
2540,-0.06803951020704697,0.02128689394056832,1.0209717248646961,13.646731377521258,0.9486722799420351,-12.656337801099529,99.52405855860722
2560,-0.003912856296584523,-0.0670182143388452,1.0618222948920713,-11.846201686764257,-10.024397067866422,15.081739227224858,99.55203465485536
2580,-0.06321380019688182,0.014245746345634242,0.9391461637011286,-15.834772958242148,-1.0450432265969862,-4.415411625250858,99.56911773418587
2600,-0.04573590517983549,-0.09779697638152302,1.0099260904973149,2.864853203270826,-16.670284646858086,-6.356135285563771,99.48765783488359
2620,-0.03828127957783682,0.055546477836343394,0.3894570619418685,77.14015379827683,68.30026908484064,55.76321644446194,99.53527625303484
2640,0.0004188367622252552,0.01206198694501948,0.49358473643614564,96.37271357164666,76.39321337692444,80.56304708093363,99.57398850172315
2660,0.04405575992075022,-0.04707459219667526,0.40754917057059403,63.20645184145832,76.8256650063691,87.8355325862379,99.56469075005054
2680,-0.04438006424815013,0.05600716702802916,0.2018090442327152,66.65219608798739,99.07004926951959,99.02118919527669,99.57655289051739
2700,-0.05988366365204977,0.033136575555590526,0.34375938936975925,97.93314640402124,75.55753608807079,74.24163338744847,99.55834601266508
2720,-0.04601078996794574,0.019242281423787817,0.365407405729735,90.77664754062724,81.41316699221507,78.76085644046225,99.5580796991512
2740,0.006282518880581581,0.05684126946423429,0.2788436842388813,87.30012358179304,83.42741536354288,85.09868119395543,99.54685906777424
2760,0.048407703520229134,-0.11031000618306892,0.36039294527802995,80.95922903408521,91.65905669434535,65.61569834123692,99.53169039748448
2780,0.04457122185751742,0.04310104852297698,0.265956643808103,82.61420334773698,77.54431423992997,78.35102904943285,99.53751292457464
2800,0.01609774595254111,0.02981669834103994,0.3276156717815096,89.00094508257583,72.33655046320274,100.69391850942857,99.53662591607606
2820,-0.07324567280290939,-0.030636716114131508,0.464094294647547,83.54627101292166,91.00008491425137,91.9134324204055,99.57460429598824
2840,-0.04366376603931572,-0.0917658342081843,0.4054971639879191,94.09723858986472,82.2206778966581,63.20148043779973,99.54219155969479
2860,0.000524317454277415,-0.01318653192829116,0.2635929023848983,80.05422057157129,99.35476461604217,74.90856023252604,99.54991194526589
2880,-0.00575708576404213,0.05015503596591702,0.31807137312546974,82.48046943221031,70.69244396531734,72.87749846059765,99.54102931179393
2900,-0.09243690935761051,-0.06625226582902087,0.4292750582930751,95.25696559487503,66.77355664756534,72.09556069089815,99.55172168589647
2920,-0.013333099758002363,0.03260004400182125,0.3553616522017645,78.6131656146666,71.3906945284417,69.22389344049051,99.57806481639417
2940,0.020468939666281966,-0.038406984135283255,0.35501264854456394,99.32866548365794,86.60968711942621,95.7212210904969,99.50819275086707
2960,0.07389024645877071,0.027025701530169068,0.29998249354403334,77.17765486923956,82.30291503872799,76.05590784239043,99.56567098528069
2980,-0.028669760504039216,0.03202713880581266,0.3488699932062018,77.32482235809582,90.45281830310638,78.61434916271091,99.55054004073074
3000,-0.09714737530013931,-0.010093719627039666,0.3335581124407377,68.82307384837938,93.00375876304327,110.15951282250208,99.54660282012938
3020,0.0851924553951445,-0.027759968120405678,0.417046414043973,69.86389469392316,74.34671768772952,76.81463446261381,99.54187310652996
3040,-0.01223492894427974,-0.03848679790897617,0.3864725014922745,77.8308329764976,83.29423786197896,83.76952789367058,99.53701712526235
3060,0.04338317491632954,0.06550796265130722,0.3698976416203018,76.76172855291789,84.98025839743956,74.7563282606083,99.5852125586666
3080,-0.011035022733076529,-0.04644950217203687,0.28862931254077795,55.16433201948449,85.33282575159711,81.71435642741095,99.56162804270436
3100,0.053165485981980225,0.00733688911808046,0.3844285432012654,72.6411278741372,86.90936273398351,59.84017953238304,99.55521297364574
3120,0.019609649182734848,-0.14555189395800058,0.3978014430536907,93.23385505671357,74.56321765481911,77.15280997683398,99.54774721584369
3140,-0.04199588826743428,-0.05037109196781231,0.3305311747404358,94.74597055005613,59.53744684140233,83.42720987397956,99.54943254876211
3160,-0.054703333739797425,0.011964953397651433,0.3059522512183829,95.62651141512805,80.41980476381967,75.57385868270086,99.5902976635416
3180,0.0034548446281055566,-0.013390540010141713,0.42819801575806926,79.7662356725228,73.81365213362858,92.20890529157481,99.54134241365746
3200,-0.07940861576169145,-0.004830429589511226,0.3108427641648688,88.19064449219783,89.10002188424636,83.30041565776084,99.5620545171885
3220,-0.007044268283910875,0.0007463054307855072,0.31247844907643,76.85442704044445,82.69468927076332,92.42713174779206,99.5641003157318
3240,-0.03411640534354007,-0.10559306081485718,0.2853341494300279,79.47156942074702,94.8360254247601,86.77167951741413,99.54225076020022
3260,-0.11814628337261704,0.07249578237385744,0.3023368115318983,94.82574594479765,85.28907675231386,75.30580698415103,99.52659263153514
3280,-0.010014147909372502,-0.022432978557383475,0.40613599404394396,74.61370233000234,67.68420921228957,90.17388784179501,99.56959185003376
3300,-0.02794581577595323,0.0676634277176292,0.3545383169569856,54.64819940148568,89.88347962729141,94.51500811139113,99.53515064237673
3320,-0.058947235774140155,-0.07328946986024024,0.3992895745001226,85.77411445265805,69.71476279518556,78.14152145733343,99.59340250733757
3340,-0.0231255286665979,-0.04293980135812294,0.3489220355161198,79.53575475697886,86.0983244057891,91.1744539518699,99.55020217407755
3360,0.07413105743042783,0.026549355556725936,0.45914795305811384,98.11084316630206,91.21909893219409,84.69426141570567,99.57286031061409
3380,-0.04977137716022396,0.12786165135288755,0.28272263311866586,96.14630566898245,75.57698085500778,86.43777176736909,99.54440447704684
3400,-0.07215716100660029,-0.08001893100442994,0.36625241167390254,75.04699585938158,75.24408736471472,81.03727381760528,99.56330899731945
3420,0.06302130376661241,0.04834492955543054,0.303034823549395,70.6214447091209,74.20788629923601,84.96452407884587,99.53774884862304
3440,-0.01392653706074292,0.015316299804939646,0.2811323052782092,53.31308253862062,76.97542813736186,78.41741096697355,99.54953913597217
3460,0.003066475253416354,-0.0351008395951461,0.43171803067133413,70.24141255391224,95.30626980545564,67.08038316620107,99.54640260022845
3480,-0.07192638424552776,-0.08723630775246409,0.296063301262682,73.08445224881329,84.83541224744293,76.1264429209769,99.54014206433433
3500,0.02067642643334183,0.08602540315378386,0.3773760311754051,66.43043559874383,84.03516953607091,84.75452766508677,99.5358509150928
3520,-0.01839982753981759,0.041198438417570926,0.36317155909783105,76.248480554707,79.99276691026269,65.94301946404278,99.56958140470388
3540,-0.11942790499250787,-0.08292616436615427,0.29702368016887604,86.66380825806449,76.84391297305275,93.73843604156986,99.56170031727653
3560,0.1232672402666492,0.014370846217404337,0.3803648705586863,88.33092840139949,80.42604025641387,107.74290385622952,99.53993532608227
3580,-0.043560524417305464,-0.0211092587839317,0.32861468036603786,76.68554001509293,79.23669328988616,60.006282086848714,99.55144895843648
3600,-0.042884735791683136,-0.060787587631590395,0.35147470454481367,73.55103651536996,84.61281981475557,106.47698344427454,99.553964901088
3620,0.019149837195235653,-0.0363435150904899,0.3290700427344017,73.11590856820763,69.70674879811946,77.72195124343182,99.55396677419303
3640,-0.11545630965939067,0.0021495269879691276,0.33992744154297866,87.47338519560397,104.44845974814979,117.00168061818235,99.54222898230569
3660,-0.08667104578966449,-0.09508135185605635,0.4779567406540464,87.08938915328032,76.65021857700957,83.42135477523443,99.56699306534449
3680,0.06369154499715371,0.02712044129069599,0.17252978386663817,87.90403121908199,76.42263308247114,96.29275001968622,99.51438296147806
3700,-0.015622572401094804,-0.036051497154050975,0.40123824008784154,70.35644820444764,80.3666669626178,58.73113507386193,99.58272841722516
3720,0.08524253271417442,0.013230085631433897,0.3384281882857418,59.06566873319326,89.03634529403843,88.9210916639783,99.55862937893502
3740,0.03645361603567115,0.013401944225399615,0.34581494890207876,72.65226147456366,80.32341366332268,97.79330979922236,99.56806645193359
3760,-0.0023051363633647356,0.04619507600897596,0.3633771236322704,71.6830255956129,77.74342425259218,82.93830453690215,99.54416061120571
3780,0.0011624378672043867,0.029495458640207202,0.4006722326246002,76.6116927597721,77.33315173408796,66.01984313503573,99.56194016106498
3800,-0.057063859526337,0.05379048259607283,0.36190812661754085,63.657269216608555,75.20405618447812,87.19975328518363,99.55935332457967
3820,0.025700609409755933,0.04118417487743563,0.35371336466284276,114.13935758712263,83.1589522669672,91.91391837033922,99.55729199999098
3840,0.01078439739929751,0.08528028725377786,0.2921795098615666,98.2704310421446,66.11281972768292,91.0524433727685,99.55964546573884
3860,0.056009749818013516,-0.07642768212082342,0.34753093581053346,68.64279878572167,70.01805223015137,74.74223793073845,99.52660073855023
3880,-0.010897177642283472,0.02445859760757947,0.2771793338257442,79.47152018238116,90.84639033336923,62.90664087071896,99.56379064204887
3900,-0.09946147652687398,-0.015264248221224356,0.3201812074409245,71.48803254584587,78.91238024848118,77.08041991540186,99.55826203505286
3920,0.014274304003858197,-0.03431804949444977,0.33765033036296205,88.68314065059802,82.54474478241684,68.90753763164051,99.530014823345
3940,0.03447201901305111,-0.06549961641038832,0.4304086887938686,72.83934570901816,75.03201362071535,59.813680599149784,99.57966107102621
3960,0.0752392695955829,0.084873933970741,0.4200548482792697,84.17545140177,94.96521955357817,62.01905458481048,99.53606180643388
3980,-0.03154351023785703,-0.011621788948294293,0.3304834642875663,81.96935122734304,75.0891336535769,62.68866004247337,99.56732517712555
4000,-0.012141821472875208,-0.04067787195870272,0.23684223671631074,85.06813362745623,78.05542571847185,78.04750206963874,99.53352474481306
4019,-0.037762067509699834,0.05612971474877178,0.3827369901926997,117.9204725189062,76.19961710740135,105.58589748098913,99.55217473104557
4040,0.03703124838377017,-0.009184336387366779,0.301030544888776,84.12307524653575,93.74168673890516,72.92964182994213,99.57747031700886
4059,-0.03286559311968781,0.016085163819545202,0.3527782194269836,81.68637530228268,71.90952337720341,77.79245999494759,99.54956548048052
4080,-0.03009815250854332,0.0239232145425325,0.36562361813341676,65.6674690841308,75.3689528581546,97.16803736018691,99.57365597429944
4100,-0.01302334719995073,0.01997635257150474,0.41249763287362917,92.4169745373817,75.56762394002835,72.74267762222213,99.54883106424093
4120,0.11159717270159697,0.004933824566830231,0.30381740412385494,83.50147464666976,59.88727448186829,89.0706403281563,99.55044814412224
4140,0.010640886198086256,0.0005169966547547018,0.25547200218955657,73.78783713366116,84.46464877343325,75.01541152348435,99.56935953879265
4160,-0.04579187588402119,-0.006277223252883656,0.3205017457929614,83.4421271319423,92.69585565787108,91.69676036738606,99.52370441453961
4180,0.02697064759202133,-0.12457463606170863,0.3971114364808188,69.21471323345374,81.51242410849606,85.34785771993577,99.54265278464467
4200,0.04305669388772021,-0.01829645525567175,0.33064912791242657,76.44525619820087,66.7730678743947,94.76523990238398,99.5874892868476
4220,0.004366098168734354,-0.024316527671384564,0.34796223213709876,65.32664973636165,84.3965101923739,81.87125594567668,99.56839519420645
4240,-0.014188871056448263,0.060495816410161045,0.3452338535054818,58.599110847905834,85.22002918259538,89.1352261632261,99.55675623416721
4260,-0.04249154645760306,-0.00068663987369319,0.38357293589207764,93.42723798873669,63.243039591040365,90.51851963583907,99.54994367228498
4280,0.026038584619755972,-0.02823892237831694,0.2985131383283927,87.00942468390059,68.76717224183183,90.2160182138442,99.52187557047239
4300,-0.04332758423999481,0.011030709622045583,0.3908026346060832,68.99891319018779,93.40679041978251,94.9808113236427,99.55694282943375
4320,0.013040944858756221,-0.008687456245628672,0.32425174933488576,63.575524790839495,73.29597066168994,78.00057246268165,99.53551348858433
4340,-0.040845277538221494,-0.012920138899994441,0.35939454329643217,101.0615617148556,90.05052414827487,77.72755702558152,99.5645679774328
4360,-0.017068678987742884,-0.02015739487544453,0.39088036733990417,74.0684183529479,98.61002256367709,86.9921039657355,99.56742555286044
4380,-0.08706748285548549,-0.003483115400834288,0.29115741356641933,80.3091123792355,65.79969001531443,82.1449684222244,99.55037764692977
4400,-0.06621241884174672,-0.02343647436129544,0.4215534171422534,76.84314567669749,88.17120341984011,58.63396289834448,99.52958292661235
4420,0.07402338702392239,0.019459518077816786,0.3956040246125399,67.927688354677,72.20892231319715,102.13927864025871,99.55857215728663
4440,-0.01836302612371434,-7.287166966367774e-05,0.3021177649986597,86.31078602238125,66.72804585952866,83.95615304224957,99.5445262219204
4460,-0.031271846300566404,-0.06710401825896821,0.39187968556960423,88.06451896213586,57.508905261765825,95.66920104124927,99.54119460673283
4480,-0.01760370435979884,0.025839945119322052,0.3490067923237935,71.45352176875612,79.50372717813794,93.37636838569995,99.55321607675562
4500,0.004576954128889734,-0.021067201777922828,0.33212814442149574,100.03033000016997,71.60534743382439,78.14344750120264,99.5425070321819
4520,0.14424850582233473,-0.04425918286910837,0.41991241324567197,103.54230700413261,61.55709009426643,102.00296327451022,99.57545731293304
4540,-0.009913549734233189,-0.04031918110418809,0.3011430588290714,74.2486086824559,58.93060028780849,84.54456735113791,99.56693926971003
4560,0.005818470526199337,0.058536377881099215,0.2922275191933514,73.7597742016524,70.38958740682601,81.3087333635886,99.5572564763572
4580,0.0315878319765312,0.11104605956602642,0.33676562963180173,73.85814452949646,89.83918605809603,84.46917365481481,99.52343465285983
4600,0.023563169764116067,-0.06444064106851266,0.28836244261139327,85.60831177615658,54.395329041258776,86.44671653248878,99.57684228622608
4620,-0.06735920875756808,0.0283275939891154,0.3695034273498982,75.30445227487189,100.81238805157588,68.6929730989326,99.52164641075584
4640,0.021223189236049655,-0.000686284110649061,0.35996413073301126,88.21257160243987,84.58972517672353,89.15888451182933,99.55767487860899
4660,-0.04071930850973914,-0.04811931311606815,0.35046315625457247,87.58337067498395,73.45992092088972,75.36755970930574,99.56057786921899
4680,0.0035695426862828467,-0.045561893471351506,0.3592762996544341,92.7026259864969,92.89653462696596,81.28898579532351,99.53737546566292
4700,-0.009648854046920688,-0.06683914674067189,0.43003514151894645,93.12532986590446,89.25391046955198,83.23896159003107,99.54267140590866
4720,0.0038200754517566204,-0.018392832745612694,0.3423878242902913,82.11681250714815,97.59114771018051,78.48621700370715,99.53765279022647
4740,-0.018786505867405323,-0.002268197266260506,0.3622932709731915,95.14418553563713,83.43165335037192,84.4666113350423,99.52019283489582
4760,-0.016239482792102133,0.05455168294936912,0.34198250582542955,82.05948163881632,77.4232732481102,83.27513721609621,99.55409089850504
4780,-0.05205193881423834,0.03970745160619672,0.360935215656112,68.032113176705,96.13212929960376,73.51103259442986,99.53476288496248
4800,-0.05124897117761558,0.009530475258910992,0.38804507815866573,81.6761966660548,87.33285403153891,108.2017378176375,99.5347154202912
4820,0.0009169307993110453,-0.07664760748801062,0.2514652362389857,94.45941182067762,78.50045795988673,84.95453951470991,99.5722812935241
4840,0.05961346068102507,0.03051418170785823,0.34789809226387913,82.11463225108237,84.55590730080863,68.20631377017503,99.53826709393114
4860,-0.04498412353890876,-0.0780686285512595,0.37606283277412067,78.79834263995879,62.69027639842048,85.70868927533323,99.58571207629296
4880,0.07765584682745649,-0.044647029761960444,0.334118707081834,80.04290621361196,79.88641516855914,84.7920415875444,99.5644752971821
4900,0.014370411356942637,0.05179353663384714,0.43889344397858265,67.01217794654248,75.22855964376876,80.72365643941987,99.55337836567725
4920,-0.01452195793442854,0.03655004405305606,0.3481401871809548,60.55337787358062,84.90524770554242,67.0732917602327,99.56149183366793
4940,-0.054639065078332265,0.06305312031499273,0.2727357871508033,71.79134237250818,85.74325772294088,81.3600936284703,99.55591578636965
4960,-0.027740033969411767,0.02567822495067489,0.4438191903323541,66.95573334141888,96.97190888993904,89.846469730376,99.56730220706314
4980,0.014842287164805571,0.06106833550880253,0.30473540814475364,55.93220607186821,67.9544979856309,78.36129003545233,99.57567969426113
5000,0.01928445349799068,-0.06488803584852748,0.36903580467989655,69.9913680687105,63.70860917050949,69.35705242220568,99.54887754925254
5020,0.004977278283901196,-0.020434948791787123,0.39050742669753813,94.9527732138665,68.0722968411982,98.22017574547158,99.54741010588118
5040,-0.07942919978669442,0.05415537324757448,0.35048917388905787,69.82406620092034,79.72096775882524,82.37407485645053,99.57642696209929
5060,0.03559184311441542,-0.02407202441282048,0.4171864413575811,57.952420033784264,90.82053860300282,82.08656017557651,99.542756480176
5080,-0.0707968509744364,-6.0561699666706196e-05,0.3784638692556757,68.0974665744237,82.52343723657674,64.79823264296803,99.54004762425713
5100,-0.00011895242816829454,0.025987984653836668,0.3840608721181733,71.83998117037991,91.77690813259957,95.72038880939533,99.55455840370315
5120,-0.01282158344162247,0.011196892770963696,0.35764682660081626,75.67576792337108,79.28752173126924,71.62984748263483,99.53138934519968
5140,0.011415321791280422,-0.05982353071297225,0.2967931774867868,85.26311556763567,98.19692946885084,91.38689989768262,99.52920500791409
5160,0.0017584211140881396,0.05774113793042987,0.3518985163213915,75.92270537425345,76.95518733772666,90.92096229944795,99.5432933930389
5180,0.0202204249253764,-0.028810471093856177,0.3290473357577503,72.40343844642955,82.97925904276131,63.90932239842236,99.55677244919079
5200,0.02931651132563779,0.10478803325281345,0.40465856595840394,81.25692561134383,84.74877326005259,69.96636242507736,99.52144165921818
5220,0.05319661969788915,-0.029266316734636994,0.28528508092874794,63.40495011740735,64.69406267749213,85.39472746427589,99.52796777695931
5240,-0.02287664852924523,-0.03488186481112544,0.3381040563394223,61.37783699354876,66.79965006014409,73.49542178386284,99.53902853269327
5260,-0.03817537954978498,0.012714367634205598,0.33041214744993663,68.89048390969093,76.1457743907675,86.85146969480824,99.5119295133355
5280,0.021143940691100722,-0.09334318484179133,0.3475325535399367,81.50888129260139,97.17363514130103,88.93603965933826,99.56068788360778
5300,0.024285292851925298,-0.03620421690184751,0.33549476790953725,76.9924140361137,73.20590065024534,78.01368716489809,99.54556518511414
5320,0.07498303892926043,-0.02877966313767071,0.4386253292046143,53.181089920298454,64.51164931863131,67.87763286575418,99.57823685330074
5340,0.07418399060918328,-0.04620863274111931,0.353302229102807,68.08516254939053,82.83922457018458,86.70605310324892,99.56153922136062
5360,-0.017708837588326996,-0.0918442868017488,0.3197393566183159,111.3040272866424,74.63064259893214,79.50178226054938,99.56719647187796
5380,0.05984016632091374,-0.024635692555950786,0.42607928088125313,70.11809056708172,94.53172744415522,64.97103837794788,99.56480249745012
5400,-0.007969866987725635,0.041924552067747305,0.34360990037768696,81.34193015802735,56.4395195485224,66.07511260698543,99.54360873275785
5420,0.057721743672024865,0.0019739795113403887,0.3942624186314981,67.84271169231366,88.2433841752752,69.68140590005613,99.57125531993239
5440,-0.0009106331736131479,-0.02457516822329879,0.3238183247781398,59.166451979783304,79.46009213266336,78.64604024606535,99.52801592627843
5460,0.02969600861605874,0.03944140086807787,0.268596694158101,83.00729196555653,75.1989883254817,78.57673104036918,99.52119625765089
5480,0.05689442746962384,0.05366329027279529,0.40126379701437576,62.15183771216392,83.01423698171084,72.90946705603561,99.53914250138513
5500,0.03196519472279994,-0.0030355843362398238,0.41635783496859,77.68155627741544,58.50090880401704,71.18142260109752,99.56642380741992
5520,-0.0172534446552102,-0.03383786072778715,0.45992704378786053,68.36496783591544,67.82102791968407,78.8492887277515,99.54352422195781
5540,0.0699280514875578,0.06504857128982049,0.3781049037264816,100.80184477823728,89.20115754301145,86.24446369717941,99.55873527893037
5560,-0.03623129682590447,0.011286415474481115,0.43949933359594673,73.75626556643283,82.88776109949714,74.32054129680026,99.56107162256015
5580,-0.047367608916434885,0.07707750036191648,0.3356866883992679,76.59541423768289,60.9524479443309,69.28426134100991,99.51319550227655
5600,0.08461072763227795,-0.048603464016374776,0.38888765378382906,91.25147409660613,73.56504911963101,86.85906362536451,99.55637779182274
5620,-0.021764266216825416,0.03367399142796403,0.3339973969237766,56.639792315679976,104.12852596958619,61.57334790509991,99.55166729530218
5640,0.02152512106774085,-0.024667020012428435,0.38128141961715223,82.84188696163177,66.4080562414109,92.36787325611849,99.52502087518579
5660,0.04187324548339998,-0.03580097015599721,0.33052175291032576,97.49810403550336,70.57976896534556,53.535132643996306,99.56893438293878
5680,0.039974776459571565,-0.07862979871100208,0.30723860569274597,79.21800715111087,78.30871127799853,90.82632165478476,99.53703986865968
5700,-0.15039778363430475,0.028269043259197837,0.303213241587178,76.6632641289631,69.10089659112862,66.91598690933813,99.53579425280559
5720,0.09273953791717822,-0.08646377010132154,0.4716119298971506,65.88361805250797,93.2474628666953,79.52208148465519,99.58738803126488
5740,0.023138740412627534,-0.025198916667576038,0.3816489778643218,65.54961964306915,102.51434271821334,65.3627659823033,99.54797581041873
5760,-0.01805112805353372,0.07409794304286571,0.3177046796513735,69.84490934926517,89.7589185620567,88.50175018266195,99.55252911361777
5780,-0.022372374272990173,-0.03423840508505729,0.369774465517565,71.58472957127167,93.00500833840897,79.04282290172883,99.55343600197301
5800,0.012952500552746547,0.03206289028038982,0.453518185738641,94.2127856560631,101.10958401791977,79.17732920223148,99.56523685080712
5820,-0.04837152890224078,0.03338071837260021,0.3517832044321207,70.94845836724672,94.25627042264378,88.48624956921776,99.57069803342269
5840,-0.10155052549717428,0.02482433754880258,0.42021341349640867,99.59948254712009,64.62806855884219,81.0489876663043,99.55268216164868
5860,-0.07973839302642734,-0.08195162536296127,0.2836126553341308,88.88626894333454,76.21466376839795,72.4158887654433,99.54691104099986
5880,-0.017412174873197458,-0.07396044139806388,0.3276146738419974,80.87968698501918,88.01359381275586,50.87642784865996,99.56808218727227
5900,0.06248423751503607,0.0067977296350044,0.337131804833905,78.04577741162666,82.45324380320591,70.88049940222383,99.52212594381069
5920,-0.0342928572065165,-0.027369851756225846,0.3696479070026229,77.36250042829036,76.87227683434563,97.29945222543579,99.52877325164714
5940,0.036214697369898595,-0.0017454636905554783,0.3389755105336531,73.9118292283457,75.50159568986987,66.81072967485696,99.5211898418521
5960,-0.0027676989320830226,-0.03571364664664269,0.32213546938153526,82.54517818700586,84.44623526770344,66.06535177975275,99.54481457991726
5980,-0.03719911999978989,0.06471072142061227,0.3710523664279445,79.67847761827929,89.08423698884461,71.97184126005097,99.53426777506182
6000,-0.0777033237758256,0.030580459416997014,0.36595224508773055,71.2425082182223,89.29340104507439,74.76390303067592,99.53965573825988
6020,0.07454212592726447,-0.023058918133261573,0.3415584129874883,64.55347768109297,105.19347137419453,94.47597439212828,99.54914012747507
6040,-0.04342975622303777,-0.07196173115621765,0.43744580217281953,75.08573656115068,59.12001547320142,84.31974101946602,99.54251648247124
6060,0.04632446724062205,-0.008202838286099957,0.38421647708439416,76.44746939746307,78.90226409851199,83.4811249444375,99.56465877216897
6080,0.03845225149620123,-0.04321886932679361,0.27717043871618063,83.93766207280169,76.81668202955524,101.09340542297979,99.56468616541895
6100,-0.024036344167925883,0.0480447563904957,0.3697738179079562,70.40115469722038,76.52693496824352,44.51829992350737,99.56028904265074
6120,0.06960571488014815,-0.07243822020213472,0.24335842113246703,92.35912700702247,72.06758290907115,77.47622839037821,99.5465389198201
6140,-0.06283877439431479,-0.04911887056045025,0.35933873653372944,99.43172488873017,63.621960184350144,87.9580700375778,99.53537516485844
6160,-0.04125834198967598,-0.020844651575252168,0.4168681722411154,72.98876911153695,65.10914256341985,76.77127788246472,99.56512026923706
6180,0.03255748829742435,-0.04323382141380777,0.2624466563173856,90.54753843893573,87.83623309792513,87.10694744515447,99.54687515923605
6200,-0.042496084500207115,-0.045383843499786525,0.3524217376333623,68.75562553871592,96.76377437457964,104.11127567656041,99.52433865679103
6220,-0.00043968217154599306,0.023018337238818118,0.3082044396699267,74.23063974472376,61.115811709750936,80.28246507346124,99.52155442983714
6240,-0.011915033106466374,0.01255424333888332,0.3923252848811955,89.6935556117873,76.94988991057886,73.89622875759633,99.52290621203944
6260,-0.08151768547591154,0.07851974372013254,0.3582779393278645,84.92791920634927,81.19998269161438,61.40481015398917,99.53559033152054
6280,0.011076059223553966,0.009545512191993118,0.4138306293705141,69.74504589213817,77.58023666636221,77.18430027977338,99.55562503554147
6300,0.01604682788722782,0.047726735019384646,0.4708100178138085,94.98207957078336,99.60339011415225,80.6125787625921,99.52154226590683
6320,-0.03603643534379738,0.019268673715033057,0.28679348012477984,93.9606114566537,80.66996115148771,83.59459609852884,99.57323911501358
6340,-0.0806793586400405,-0.01473668835967499,0.3946683277374359,68.02409630191444,77.56197938476595,61.26684053595977,99.54232554889632
6360,0.022876795180897577,-0.03853492987055724,0.4057970121924026,78.75581108956888,91.35542602666952,76.84170261156152,99.55703221179158
6380,0.04203280762900205,-0.016921429674155226,0.3972150273374484,51.104073927323014,72.15621579533577,75.94293970839549,99.52305787978577
6400,0.03817290194730785,0.005062984254156601,0.30072743620916587,100.13675688918221,83.81379631818841,91.8604838212601,99.53795913066745
6420,0.0202341623409799,0.0036667046478262954,0.3709083688524665,68.91381246207914,79.05963143640464,85.205056577694,99.56818716595951
6440,0.05454184207587787,-0.016525109835049175,0.3279334620655906,80.72688948874568,82.13777975246464,73.81907099357444,99.51940682099399
6460,-0.023897893686550657,-0.022714236962083852,0.3188677894118348,73.03585960186113,78.84255647699717,60.109777822825734,99.57125764368342
6480,0.03836414956810755,0.039685698855629614,0.30263457247609504,96.56380379058818,106.3986556476117,82.93079364711882,99.57273165869881
6500,-0.06344543542590068,-0.013384629112854577,0.4126587705517961,72.685843513052,69.99508442046748,102.07960317422604,99.56421164614687
6520,-0.01219633548163046,-0.04969002447202005,0.3085173779711804,82.1516737525967,78.82838694158494,83.91454288410831,99.58189345572842
6540,-0.005683428382648615,-0.033938906612095386,0.4117259089749579,83.31368166441341,65.56379244287727,63.26719586788924,99.54547176884368
6560,-0.006812492325317471,-0.06897098277754525,0.31965026471511127,57.36895821117361,69.48115257678228,91.85864979051202,99.55004399273045
6580,0.03154517179723082,-0.07257525106188836,0.37934322509989304,64.87153557446243,55.5268000806634,89.93433574885995,99.58307841532799
6600,0.10329190764710885,0.02754691271896144,0.3248051383940085,91.79098421041293,88.44784686832445,88.23926435297801,99.56388075519246
6620,-0.004560868246765677,-0.014364440311724494,0.3526390552835233,103.25017265945355,89.79516438118038,50.590690276933394,99.52341945553067
6640,0.0026517099020287784,0.01829718286127007,0.3768856300633882,69.27386267992483,78.92628885376912,64.12457221110981,99.54592779018698
6660,-0.10371587552622817,-0.029161786976935784,0.2839937539589317,77.29370590940734,72.32620342071456,68.95910977014957,99.54949705347282
6680,-0.026203300720007944,0.03179889245349105,0.41127752162363856,75.80678369427855,93.59585751197653,67.73495217714577,99.5522740980574
6700,-0.03074445251883612,-0.05648894193039797,0.3669907595427492,92.9291755083468,92.75543664423847,91.50539156190747,99.55824892988362
6720,-0.0212119272389913,0.06293157532708112,0.3000759705924835,81.79716450150447,66.75641218383079,66.98319361019331,99.55356773128374
6740,-0.04592833882747698,-0.02936608405927892,0.38379034127401374,95.5902408607848,78.52126437163065,79.28811331532616,99.57230213943029
6760,-0.026185384750189902,-0.03359411507749906,0.2218625942597425,76.49330003882866,75.35826859075868,72.71145320719984,99.55035308080619
6780,0.05538657752001877,-0.0011549554833494011,0.2784489836270651,59.620858778016974,83.31742705428714,109.7002197001265,99.53433237618628
6800,0.04852983795268439,-0.046842025068369264,0.36667278366742795,88.12836811667067,88.4709448822819,79.73929203741116,99.51727212711674
6820,-0.10964504098894193,0.06689033141837773,0.2799569664308136,80.35731295023311,92.34589132589385,72.68172826454598,99.53869012757627
6840,-0.0574529516819676,0.023331366837547943,0.3714669026649316,113.43637006552012,73.80898433555765,99.43637310699683,99.5817085351237
6860,0.017435815407156822,0.031893424476359816,0.3199213660395484,98.47900861111725,83.19471039859658,86.28850002092129,99.51242396900305
6880,0.06836254067553514,-0.015170837648944075,0.22139885307252363,80.60334217206729,78.8537905801682,86.3433466051461,99.53295375015492
6900,0.009717676246733538,-0.009016805109369483,0.3683848189865831,75.33360163174069,91.4920145581186,80.58889907780039,99.55013810497162
6920,-0.03337638625622813,0.013533209346512335,0.33849220835304517,85.37161509845423,83.15579388862713,101.82788889823291,99.55279983181218
6940,-0.08456966212282704,-0.11124891876037574,0.37106152872311177,75.56511539845032,90.12430810029699,68.24303972901438,99.54913143436553
6960,-0.03872563392468234,0.016153144570716628,0.32278587766897243,67.33968731089458,79.77179632541768,87.3495596057117,99.5352627536453
6980,0.055746193620276635,-0.025916177982081387,0.3646463721027446,50.225167722813985,91.11170670243338,71.89747265955214,99.56561497075522
7000,-0.08434736765366169,-0.038594125616572134,0.32659177749491014,91.22533078568978,45.84846241272981,48.57329908168571,99.53948974747954
7020,0.05839632778485387,0.0520694835114831,0.34803324723639145,82.63792989219758,75.74557045801728,74.57608617460443,99.55420599056184
7040,-0.022236427939146323,0.014829160360221156,0.40221906699208587,73.58324901742364,63.41636825163309,82.58104217210769,99.55323573122475
7060,-0.03535739419678956,-0.05342193310531981,0.36055202342942166,73.65966453967712,73.93242112021548,50.894591556325636,99.57295310253373
7080,-0.0109346754030944,-0.0017492484675108247,0.26559525555819874,107.84192787349927,79.59926960790582,75.20589721076311,99.5914108549839
7100,0.0332843813931182,0.03109953225622958,0.3425618211750055,61.48795946341737,54.6348800136823,94.67489110669354,99.52177562255277
7120,0.022511813357066864,0.011165440243945356,0.43756600069462326,79.35992187178111,65.25555013560162,81.33214794491889,99.55496473986511
7140,0.021731402126738887,-0.05490040338122354,0.3158350520519055,63.555030432099436,80.49829319875484,74.7772151899154,99.55140684514261
7160,-0.008031876177358765,0.017574836262308838,0.34920819143197257,88.7364130385749,59.17931265080736,85.14508745291714,99.54957643303683
7180,0.0638634571872476,-0.06256298414403538,0.4541474040173738,91.03049621535756,71.83761753428062,96.88079564483583,99.56409722721085
7200,-0.031340369272100606,-0.016668415144538425,0.36639805209736415,57.42395475003222,94.75612253935854,67.104995018417,99.55340994839968
7220,0.012903384518439177,0.011601466980797516,0.3682049045354072,71.0072105732397,79.48868964037771,83.73301480253231,99.55736194048744
7240,0.03129892899702884,-0.04159285534135991,0.24918467883288287,82.2052088593863,78.12377026224375,78.47416817765635,99.54711628700261
7260,0.04699539131906619,0.021039320889924263,0.3223962589809087,88.70431191113767,75.75868263118348,52.3099341288556,99.51595700007846
7280,0.035009623133650095,0.05978754551858905,0.4327475793765149,76.83165975174485,75.65767017401777,85.89809787530072,99.55368432275016
7300,0.06074884881374598,-0.07789455282541814,0.35275425613016803,95.3879814894483,87.96574576695821,73.96372512185552,99.54721454247657
7320,-0.004335189388325972,-0.012781460033975848,0.3103420013751826,66.0163739049265,67.01750437603323,71.85552494763034,99.52972352458812
7340,0.04896120381226113,0.005172248380046935,0.3102955206674549,76.04973246190025,78.75486193973401,94.93353910257608,99.52885392033343
7360,-0.030397627983307196,-0.03387658505635482,0.4053358670378705,74.87238103718835,66.58154202917899,64.48783620250019,99.55643135470412
7380,0.13112676990480718,0.04843282829097206,0.3294263992407205,51.30903461853869,89.31511487855592,71.8329094647494,99.54183898613296
7400,0.019745621789188258,-0.046011022131565195,0.3313616542429593,77.88673387025455,83.14738959109948,105.78021904669279,99.57020299850116
7420,-0.007513271400969782,-0.06363855713323952,0.43298981931446806,90.47992593354361,70.0210266395985,73.72570818396774,99.51241432972508
7440,-0.004215913008317223,0.020522682379169876,0.43144011682291705,84.39406472357844,88.8305955918849,81.56834124613964,99.52846893019466
7460,-0.030706716978645823,0.07542903904467373,0.24955202740798688,61.47219504580906,83.11414639380749,75.5653692483998,99.54009937470374
7480,0.03216198991626786,0.061359490380731296,0.36010320645566507,92.32763829563689,86.67888475684701,42.72542352491551,99.52966450135939
7500,-0.11492458144240092,-0.02456709099688456,0.4106855019863823,73.7013375314212,91.76264071106878,88.15118611100286,99.56201222059029
7520,-0.037574516438957206,0.0559115430531533,0.3510460975323401,96.90691570985659,78.77561666347671,76.26621635696887,99.51624295565587
7540,0.0161055442865136,-0.0530755440810004,0.3570596034744183,73.54755124416539,68.31193066279786,95.14886954514648,99.56706557695112
7560,0.017610286785048536,0.04032868347508762,0.3414582062801865,72.44657837879925,71.73522842185417,80.60507659793454,99.55040252426328
7580,-0.033780762331555546,0.0012969151670152606,0.36872696885547246,70.44653579150801,86.91148789128749,75.13267263007087,99.55648711864153
7600,-0.03161513402597942,0.027621002626423936,0.4365499670272501,70.49289866680351,98.50784918085176,89.44071965216865,99.57002119602399
7620,0.06482506114600743,-0.019937848405099313,0.3597636898274655,71.7642742644729,101.0972935658157,82.03757337089115,99.55493742233108
7640,-0.008079710881790683,-0.09677345066235804,0.3399317604101303,65.69784942015615,77.01006109836685,67.0326283078355,99.56033382808987
7660,-0.010732696372607984,0.04520029398144356,0.3372873844993577,75.744316775391,76.96237197868409,76.19438412700768,99.5557611388447
7680,-0.046426796616105395,-0.013805822151197198,0.3373181766390505,80.94213048809686,86.37508053142152,80.83078829228904,99.53298914434467
7700,0.059411818476487466,-0.005105611659174551,0.344177720733769,90.67974242619418,78.63479202726306,76.64435677280672,99.53124166063228
7720,0.0597561875163734,0.051266650735002695,0.31364750555774296,77.67130114618267,70.69343686576937,83.58262838304928,99.55195637232863
7740,0.035450296932282306,-0.06396532046044374,0.37078612027315744,59.29363082110635,100.55862559768907,80.44924615982207,99.54918496956154
7760,-0.022510205196370703,0.06670686950830577,0.31711822995141087,77.8268057432003,88.2283310452812,88.41424437032202,99.5478967194049
7780,-0.024274266908166975,0.02685950276927672,0.32707523035247593,96.94013627981644,67.95764992311649,77.39560770440877,99.54729178373681
7800,0.012160159030633541,0.023261017020961117,0.3694251870719877,69.47880894127269,78.74460720728018,69.43962737909737,99.56038819085478
7820,-0.09080271675484768,0.08466978201061755,0.33670549975809255,74.85354703711933,63.605080268642546,73.937802263,99.58218363028102
7840,0.05161041925334561,-0.0920966088379639,0.314976954098484,64.62995138740033,79.55781118875663,56.82522329023203,99.57734695618319
7860,-0.026455077709398363,-0.06212281844895029,0.30393899767643623,62.49539517930289,67.63941064756374,82.7344155477648,99.54686491714385
7880,-0.042698549054669216,-0.04391782364880977,0.34266557918159046,93.04528127439845,103.94472256743467,70.78627782904985,99.57089960890538
7900,0.01745076059230745,0.028523415077187465,0.42062216015625326,90.89809048819484,76.43350460846595,95.72343124625857,99.54469333336523
7920,-0.08449914538413898,0.04757526263655887,0.2928864619602775,73.3917059150021,79.48111130802519,94.29716228131771,99.5437926874347
7940,-0.041808535182564346,-0.03290672194368314,0.3812227344327106,81.8208507289177,65.42763842241175,91.01421517710394,99.5031158541642
7960,0.009089396737111512,0.020425792930098573,0.31529089971812596,76.66369042000267,103.85134007234556,67.16101486666301,99.56101752496316
7980,-0.0017872167119010404,0.08061179887605206,0.3186223916090648,56.38542907684435,96.49254827626663,70.53285085118571,99.55636439075843
