timestamp_ms,acc_x,acc_y,acc_z,gyro_x,gyro_y,gyro_z,baro_m
0,0.005030293864062619,0.14511112774876783,0.9933565511035111,-8.533279944729397,-2.178329703202231,-6.931362499863363,99.99782709848692
20,0.045042156919810214,-0.01747803294594388,1.0770368126806873,-1.8845335697297183,12.277728171157165,-7.535446464530426,100.00718021782912
40,0.020081616923739092,-0.07228823564404482,1.028010678785262,-6.26964019521299,23.578657436582244,-24.08972806864619,100.01412774318995
60,0.013509836328254688,0.014183175185751067,0.9435806057706038,-7.6261687152345505,9.941820228369343,-6.1902509996444826,100.00356701727385
80,-0.021141493131906205,0.011522450004451285,0.9922264871608965,-5.892572738242056,-21.02283937348724,-22.96952818939549,100.01276024514902
100,0.02377329641369366,0.058279922920068505,0.910209831668393,13.732144103018602,19.81517603941719,3.4970700959140997,99.98631645371549
120,-0.005044028107399668,0.0272939837133583,0.9036379823657906,-8.648142831555568,-18.4922940201636,-2.2610196034347156,99.99967335842454
140,-0.010530735915051326,0.024920724914537375,0.9708133424242823,3.080787224505431,-22.79050461454998,5.497686426779804,99.99707401674203
160,-0.05521431163683426,0.007316304585111973,0.9971302249457223,-5.542816736930991,16.864361990684017,6.282105838567073,99.98971561693945
180,0.00225118559557185,-0.06358886012596608,0.9336220921382455,8.622466561008958,-2.596903450954621,-6.92672966307188,99.9978167222249
200,0.0863089102389142,0.06418291754099771,1.134802872129123,-10.35748569270603,16.021788928139063,6.994758825687484,100.01197114945501
220,-0.05659551479031605,0.0132349730134714,1.0115306316346944,0.33767089103583975,-1.6877318445679057,-1.96161780777372,99.98383244374351
240,-0.033817355974222495,0.03143375928678639,0.9531295075493832,12.172055588947686,15.864664339807213,18.251590556542546,100.00062606582732
260,0.00956004978954157,-0.024613750912314505,1.1008189495507592,-20.88493474355632,2.685837493880002,-21.125223321339632,99.99615577309254
280,0.0024539305448690435,-0.032307377219115,1.0102373112388088,-1.938753041802074,6.5433518352502915,-3.345524455541966,100.02314599503576
300,-0.02283763739133208,-0.06688328506523121,0.9869856229768796,-1.7546740765440583,5.314693289811871,15.677747412614575,100.02570906137261
320,-0.024614864675895007,-0.028981829022751718,1.0205444184321304,-4.398924905702273,9.045721796161002,-13.193736521584288,99.98762757867983
340,-0.001973663201314638,-0.08770522603164671,1.0825666367530782,-7.983807719635216,11.173451578941599,8.423309188478699,100.0211673748356
360,-0.022886579475090853,0.009831749210916046,1.1173317950524828,-5.359077253404733,9.012362002264522,-8.791672977304891,100.011188309275
380,-0.09338193966107464,0.1060400682677357,1.0597985958106781,-8.476097225702334,13.475051638866724,-9.686765735125451,99.98562293939085
400,0.026188247797332132,0.036148099125431765,1.017793856307303,-7.806254843262186,-3.7508727580541565,5.106065647575825,100.00434380661933
420,-0.011484387909077229,-0.06722125256832155,0.9966844586279064,2.34496595211649,7.981296144537728,6.040999991360666,99.98595293273736
440,-0.06806285941787181,0.045108504968846636,0.9470208954967467,13.41659790218338,-8.1964473735606,-2.6217767415579436,99.99228642699313
460,-0.04534983387655028,0.09465043894338462,0.9844975401795786,-5.235428325643655,6.250901761686821,-11.776292754863167,99.98887095521107
480,-0.08120520982340262,0.054708077228823794,0.9616502690208012,2.2528942042594506,2.6689700348305685,-3.8081973523449726,100.01326895733693
500,0.0719978258448363,-0.05430212210083485,0.9805933738796132,-39.15120725322255,-9.959216160395947,20.284505844647963,99.99783100237856
520,-0.01873251060026006,-0.00019361219363083596,1.0631256154393252,4.227799154458628,-15.116183133923233,-10.603190685596246,99.98218529441077
540,0.01085377324656353,-0.0013366789183651246,1.0398437465128259,-13.060800632235804,-21.664500569533367,11.780408550497661,100.00857230674696
560,0.0059963450898485844,0.010592211709038804,1.0371386008078798,-0.3583014230774264,1.0712528373857766,-0.7150215934158145,100.0185443305553
580,-0.034191400619196975,-0.016442875547877225,0.9655209999223413,-4.494473743240839,-8.11344765840524,3.3687792886004866,99.98147629551036
600,0.010243402307871016,0.045695190157996946,1.0225363575725344,-12.975211576031008,6.191699842153035,-25.010741431802465,99.97329740375635
620,0.016779467448275104,-0.01387736576194401,1.02881416885807,-9.593317015124978,10.787291391122501,-8.45657472847458,99.98812421090804
640,0.07233751388829171,-0.02044719690083635,0.9118899075665484,5.065219492915501,-2.896481691138141,1.9431069213764176,100.00299982702893
660,0.04537141442327101,0.1517511922232906,1.0651337835475845,0.7087027514246704,3.258407002789049,8.385803345960653,100.02536853178279
680,0.011576960305934978,-0.0027441450687322815,0.9745386729042697,5.713275945360604,2.2027217416306195,13.40256606852616,99.99749958924708
700,-0.02898042022252506,-0.001327365645355988,0.9955211315346679,-0.45588650152633026,-8.79696655904428,13.45473738144103,99.96323463804066
720,-0.026685940949813015,-0.10655564232115916,0.9471936053384957,-12.469481199349447,14.332723922742456,11.887959749862379,99.98094146812673
740,0.011723937369971441,-0.06615924278387429,1.0012193799569924,2.4105222423154546,-15.06900469919329,-5.749356558547885,100.00562027205676
760,-0.009110285567411497,0.048689857030774726,0.967528593505265,-5.587087269675324,12.117204418706827,-14.183169282661433,100.03458356313767
780,0.05003213203327217,0.021416355438184535,1.0426199694143803,-20.838028825068314,17.126587091568318,1.0568951350165774,100.00898788172819
800,0.021835338886162507,-0.041566603468559594,0.9569833677462637,-29.51844382155536,10.499186204799507,-8.739756425972745,99.99074253825566
820,0.0673984117469033,-0.04066043786033305,1.036640473327279,12.80570930475621,-9.80175617331798,-1.60502015112797,99.97059498009264
840,-0.007679088700682292,-0.034976042474683416,1.0235180107312205,1.8162916076349642,-2.298085693904155,-17.243820571929366,100.00656693241885
860,0.06496347684871624,-0.05099704438082075,0.9801363595870753,11.406763874625653,-3.4969296041923155,7.650288891632069,100.0100814171179
880,-0.08322176887308708,-0.10885440685616526,0.9927288948931078,-0.009742826770518085,5.999077744689252,19.284040913523075,99.99734641499936
900,-0.011418566064832443,-0.03180220776307604,1.0330420007095753,-26.350528831286653,-0.010716387707839739,-7.9679510645612055,99.99441705874133
920,0.008895564537530714,-0.07486887644065429,1.0290974000562296,-3.6205336929588228,-11.690659660118385,2.5768489969855515,100.0163333613613
940,-0.0002893836952047391,-0.03163548147762699,1.0942378045370238,7.665501469423219,-9.354704288300054,-14.326682456979249,99.99901323543361
960,0.03448414694440469,0.025813795375503996,0.8951720547579235,0.8607874993811055,3.9333181370032944,-17.976345031579914,100.02364842700014
980,0.0006648839935355154,-0.07494946600881253,1.0086992446747507,10.859032860712482,-17.807518778388154,9.508952037696218,100.00548890356994
1000,-0.02271211280819667,-0.012144938506463004,1.0897676358290835,-18.66926163514068,-25.610377364018134,2.3533838824892706,100.00293415003684
1020,-0.0876636066990907,-0.004781624887719104,0.9850329532876442,-1.2795181672055715,2.824808377149629,21.51334375383725,100.00155137655197
1040,-0.06894701848411917,0.03830415803076043,0.9701750607394549,-15.123071090744274,6.496185881850259,11.913783908218928,99.98938676930976
1060,-0.042694108184209635,-0.0140543288117937,0.921247647879117,-15.787638623131048,1.1744143580408317,-18.00613688291878,100.03853258757768
1080,-0.0723557372179094,-0.02691771852721952,1.0437592968280403,4.393175812085537,17.139097779131948,-4.627173602175715,99.97730408063377
1100,0.012294289707912883,-0.02582223320577472,0.9603009035589751,-15.017890770782623,-3.295503879978713,-3.676976913092262,100.00090476625411
1120,-0.0033907630709718753,-0.056429567778261996,0.9182695891583785,-1.4945373298186944,6.19866516397803,-3.665730823668061,99.98965098024551
1140,0.0770763192309965,-0.013336897751792705,0.9149496157938615,-29.26842710932456,-8.013762884070541,10.644516303420914,100.00198209078552
1160,-0.07637708070527754,-0.046064783333848475,1.0036558322701254,12.2547146465601,12.295774598926652,-10.310800883399256,100.01049741015339
1180,-0.04138574086199352,-0.03841089827313651,0.9136746984449866,-12.66687156106737,17.406859575540686,8.001480838026625,100.01676888099364
1200,-0.02587139079741962,-0.0023416739775579715,0.9113558487115194,18.182668736298815,-7.306243612783503,4.152179301282626,99.97944608127217
1220,-0.001435645167844158,-0.02889322727532701,1.013376887884421,10.240225880439212,7.711446407494905,28.719743139981148,99.99395828210382
1240,0.0621267378632818,0.09237369099118407,0.9760636297902777,-20.180052843966124,-3.1730888115856826,9.212703548201754,100.01678286427872
1260,0.07402041079801246,-0.01135448823967606,1.0005802200864178,-23.357640826414393,-0.4974984152966071,-23.36409542258794,99.99737872710965
1280,-0.02513075515911777,0.07203833850785835,0.8950411859221723,9.40601902555347,0.734750590107257,7.445370101940411,100.01438505327528
1300,-0.027739903668969626,0.06719856876947188,1.0872564862942409,19.065784529875444,18.090981861712784,-18.43097992863189,100.00602781028935
1320,-0.007595253271173958,-0.1098093911013107,0.9757331335407752,-8.03163618933371,-7.59060574932356,-1.7299840706532086,99.95282812450509
1340,-0.008496166119404954,0.07018021158845783,1.0135826570816298,-5.798528677293582,-3.1856172967344785,-25.12716564242446,100.02146350184721
1360,-0.013279742060753892,-0.023235876115347463,1.0146424946155552,-8.159005916515744,26.298830119528922,-28.289697085990902,100.01001839028135
1380,-0.01284663119479356,-0.028041464203931346,1.0573948693198711,7.872573762176936,4.467263197465213,25.861206841176255,99.9780009218496
1400,-0.01499756555230116,-0.025217646563792565,1.0406918160074645,-0.3146508633570616,-5.820221520160214,2.0524019918421823,99.96827308021051
1420,-0.0649848679503449,0.07115662798875684,0.9540149630431312,-12.43590034341836,-10.369523096350775,13.320225458798788,100.04013614485551
1440,-0.01529126088780601,-0.015215197610564375,1.0118747858006805,12.696743445252022,-10.043797150442916,5.7725445825451285,100.03246933800138
1460,0.08818185218578384,-0.037183953055753984,0.9635782559527815,-0.4879050218014224,-11.264768931031602,17.88948037021006,100.011616425769
1480,-0.08653170305302295,0.046538677779228654,0.9599466861889078,7.1339797790393185,-11.489820815146318,-20.414277727708786,99.97639708962446
1500,-0.0219559034481424,-0.03779420147140786,1.0333443270898925,-13.400181862431609,14.131835688451357,-11.603638366112287,99.9940778539639
1520,0.0066805487877195915,-0.01952506842136101,0.9860754825934046,-8.01409461759901,25.853514735620447,-6.228230215343342,99.98850569505666
1540,0.06869045794949145,0.04315575471956323,0.9692387774038774,6.423125032457037,23.36628543383062,4.7324548182588355,99.99523563199914
1560,-0.10167690357359992,-0.013613535218179339,0.9881488516993702,-2.844686494010917,13.726593460955986,-7.2378567785988555,100.00726251699906
1580,0.002350847967684035,0.03711150803031878,0.9980138483057319,-15.964537727725023,10.602807337242758,2.27792197847954,100.00759857017131
1600,-0.026405329296260518,-0.022314214966333776,1.0210055929425104,4.8361411870302735,-16.395661919243327,-9.47099253467991,100.00936238267279
1620,0.05048524375087944,0.05540638110521803,1.0249559904112884,3.2919672335387684,8.674922053460733,19.547104575872478,99.95435048361514
1640,-0.03684327137648806,0.01863348266570668,1.0173258632584288,-0.2145677567030712,-10.444036292066901,9.841533978691734,100.0119750235777
1660,0.029284869994163406,0.0722071545597894,0.958574042857838,0.509020110893712,5.777403827147525,-1.7732151527955677,99.98173531920389
1680,0.011192787918411107,0.008129126781631265,1.0599756691537925,24.087688780064408,1.9302806673192854,3.4515733663178105,100.00741773855768
1700,-0.002302203914598627,-0.08438347231674241,1.054832095098506,5.118059758941248,17.997844778866202,-3.082873155706096,100.01832075217979
1720,-0.030947667993960044,0.0691426888112279,0.9279912790845433,2.6011862300846316,6.112106753262731,-12.221991300819845,100.02104974010591
1740,-0.05060604885585999,0.07150813793748888,0.9323728645880933,17.66119691948512,-1.5611252961401094,2.1954527362912,99.99508807639542
1760,0.00960221028776008,-0.009836106881086056,0.9787486557462473,-6.684949536037314,6.450822712205486,-8.262733439106533,100.00974094040605
1780,0.05387126271587868,-0.020081402079236435,1.0221354269467218,-18.32985480701248,-6.981994459988641,-19.907158322834874,99.97117605437529
1800,-0.012646407047034285,0.035507140164946625,1.040104983472019,-12.944595532163671,-7.021352015668896,-8.722674067542918,100.00167998432924
1820,0.10985122624875704,0.07481198682046732,0.9228476244079201,-2.891091115190124,-6.058142561059688,-4.1944389490197915,99.9801837811277
1840,-0.05373833910999764,-0.012719722664618663,1.0691031501853754,-10.920704919164587,16.84385367818975,5.7966960416286,99.9721483898203
1860,0.05286633101823739,0.08564925101967684,1.0582270159050666,-17.22189660745073,-5.336756724507215,17.78355345880963,100.02362349894362
1880,-0.06510302639447764,0.026340033216918548,1.0370225857604423,9.726262389713828,6.693098942920888,12.973448032462034,99.99684817187247
1900,0.034455524331808284,0.10223714492708047,1.014956434014349,1.8606922932864702,6.789356944668896,8.678328145709202,99.99999940710114
1920,0.05334884268517024,0.013191178907898225,0.9789160163113613,0.2803695635105136,4.497330926576601,-9.195652718039,100.00514318058902
1940,-0.08795137712016368,-0.004047604171832816,0.9952429671875627,28.99808500809879,-2.9499456905242236,-1.2089511595794136,99.96799410796474
1960,0.07206083556492171,0.1367189634702278,0.9241113578826117,17.43678296204078,-25.607266934540224,20.10019121903037,100.01781707669396
1980,0.07338633401614106,-0.07219361274890512,0.9535970419443819,-6.145631874245698,-10.482522371508486,6.3336064198789295,99.98356860559761
2000,0.042784650360600154,0.016979520003371804,1.052635978450827,-4.570767447915723,-2.5093187318668293,-11.9013260774502,100.01541922679665
2020,0.034356719567057416,-0.08068901436904821,1.0414300961415361,-1.6867301116451168,9.801585749848206,13.978385481441597,99.97102719984811
2040,0.025797855697465434,0.03460015714380522,0.9569860153635384,12.940393545362275,-9.398886180399781,-12.145608412306686,99.98046078654046
2060,-0.044451784770880985,0.011012370640741363,0.9757885343155424,0.5314392676696162,3.891591385231487,-4.343502702219056,100.009929529342
2080,0.04148611653010156,0.04108458268667265,0.9053080995051355,-12.842681562502682,-8.07441152595016,-27.706454498870848,100.02339016414827
2100,-0.013487361044951563,-0.041174471517613116,1.0601171980346529,-30.25942399744782,-12.748346915852764,-13.06148477878224,100.02983155559025
2120,0.019348527764633514,0.04114169830312057,1.0209413659820386,-14.82456643935533,0.4401170403732161,16.49532764275781,100.0107326922396
2140,-0.01124716778681885,-0.03428934154459245,0.9889083699666185,-1.5504523833565302,-0.887668945387927,-0.26115370350700357,100.00540643413673
2160,-0.06727724252778776,-0.01682184939271568,1.0027946003492203,10.175289917655975,-8.993082628421721,5.6889835603764585,100.00478020612358
2180,-0.023465196491075806,0.016150933673204654,0.9988520726556587,-2.7364493130428134,4.760815197420985,-9.004840207306462,99.99396241703074
2200,-0.022397967518086252,-0.0005431352273808765,1.000891893940087,0.6522384328816736,12.71010925271252,-3.2425055828115044,99.97513036593195
2220,0.04967007277545918,-0.026311342701320517,0.9438811642318512,-1.5262675153091325,6.457348473993509,-23.162102971638262,100.01799689290877
2240,-0.03311735991610504,0.06088769600261889,1.0285720078784402,29.079534901017325,20.311550999772077,7.787358372416933,100.00796269722947
2260,-0.08475362990989689,-0.022926150324097214,0.9725241005525115,-3.8179402677786953,-16.768583520781945,-4.811754846478033,100.01309367645406
2280,-0.0232916646722171,-0.02153239220295261,1.07091747031547,-5.251769127881879,14.60164717690169,6.30065697675483,100.00223099971727
2300,-0.007269031216188728,-0.01487817146348208,0.974492519345097,10.934382824129202,13.1006132775787,-10.522099236042056,100.03920413378418
2320,0.0012572633895648875,-0.009527766944193737,0.9821051100793341,6.270123400616278,7.911665806355428,-4.762133364427267,99.99504192044569
2340,0.06663385249503993,0.04453336235660358,0.9452013921615132,1.5094884902483154,-16.047129937903765,-3.6771555652505454,100.02005397570878
2360,-0.04329987848614176,-0.07527374376003383,0.9995839815362769,9.678410786870586,-8.596618983409602,9.682670658751718,99.99738818800368
2380,-0.011605844667574299,-0.024944475310745444,1.040245005115354,-15.367133057772513,6.696137976639692,2.175694909272341,99.96907058950158
2400,-0.002099034803303539,0.040522894869323624,0.9706691309232042,24.72153711452298,-10.209952485517423,22.554944271916074,100.01475926687839
2420,-0.05363736691208957,-0.07057072376133404,1.0578075674491518,8.771198070374297,-4.795818900581515,11.491309033038474,100.00391812533138
2440,-0.06364276142232195,-0.040046870331729406,1.0373669908911423,-12.332025588796924,-3.858976469341008,19.07254351276437,99.9787203589463
2460,-0.012478255367346322,-0.08582268957913193,1.0096792106395813,-7.443450964311464,10.807260593175064,18.62288424003838,99.96505353005428
2480,0.018940241139240508,0.015375497579782972,0.9938383037685367,6.381071552467521,6.006292318946109,-6.7066985419873015,100.01829840229998
2500,-0.09582700773374137,-0.002361472339512078,1.0046446149897945,-20.06139541740434,5.784395358211166,6.10862462955107,100.00267918504294
2520,0.07194945907063101,-0.0069314490931602375,0.9527474789852339,-11.56586952722769,-13.068691296968847,-17.976363648726046,99.56830097383909
2540,-0.07526131555325799,-0.0852171044355134,1.0057979885008423,16.669205872194915,-18.736084123584078,-9.863395821527824,99.52427687465028
2560,0.06764401937769189,0.017399863038740502,0.9394902562597425,-8.933339888515732,-21.90579275559457,16.359167964783225,99.59598406644574
2580,-0.050573482759474334,0.03181574831764546,1.05086176992568,-4.1296776618986515,-25.33158225316347,2.5559161834154334,99.57004872438169
2600,-0.07409927682953685,0.03437898781588126,0.9847493688052951,2.002179114198873,17.604280443120377,-24.893257579330392,99.53328804365314
2620,0.03222190980732861,-0.05009341419660773,0.3398509921921155,85.85844160485321,80.60807724358136,93.80605174224984,99.55930730693419
2640,0.02154974279436608,0.06935407162424302,0.35259759586169753,71.549659592501,84.56344045613565,77.14789340211628,99.54467715567083
2660,-0.027245232751813293,0.022056968661664268,0.38601058213253664,80.08651738162442,76.94747048395985,65.78823114237832,99.5729688476577
2680,-0.008232045205539492,-0.039586881219685795,0.4408495277939982,69.69565541809294,63.674408455622,72.8764966440256,99.56403033558337
2700,-0.06938021276376555,-0.018942371532489424,0.4064141895873049,68.63107108490493,76.71148737743452,84.82670527561821,99.52597821081018
2720,-0.12497607743230055,0.06560914636883279,0.34546504455597354,85.39231839728019,80.12217338935484,66.04905149538676,99.55134331728182
2740,0.016905530180929766,0.01711176409627214,0.38341948896670597,103.68582927032703,82.21460746692296,95.58334026413965,99.55274104466092
2760,-0.10773890524635606,0.056305416312166505,0.4079641862153949,67.32101188250576,59.44180627110055,72.67316518684254,99.53599537071649
2780,0.026675070578977885,0.05193778496175543,0.3325978550459803,74.29726345584882,70.53804932600546,71.14879319969276,99.52994979937496
2800,0.028940901295189527,0.0577307654390262,0.3251982382689354,85.73304678208976,67.9670935025487,92.80522568159711,99.56285164368813
2820,-0.04444196341555125,-0.053594658369007286,0.39297093691823304,81.70349890905787,77.21200325927576,95.64564489800975,99.55155327820769
2840,0.0637144951169616,0.013055287114471091,0.4457251270766127,69.32067748346456,68.6813968544589,88.72782178074658,99.56456553373282
2860,-0.06000631753904554,0.05248276626180799,0.33515175945634657,80.06963722989897,100.81600891925197,91.98972879125952,99.5646589162624
2880,-0.023699920356309814,-0.03208117702485016,0.36094721904682586,84.88973537989276,78.06794818286234,79.0607668698709,99.55347652206765
2900,-0.011860632399132943,-0.033734441505201655,0.4421991748632796,95.75906585198823,69.91782968484594,86.68186705655103,99.5310489838112
2920,-0.052379170844360716,-0.014401434954152205,0.3867541712044934,79.23751834546842,108.78067043792001,87.5685809215613,99.56464817224351
2940,-0.041407607384816476,-0.011814627867867626,0.44077821027048436,67.00586186539931,83.72622352233506,70.25100420934778,99.55418237720234
2960,0.007878734246978993,0.059501658801422885,0.3545753476804516,74.36313520208299,80.87684402567996,68.62360424098769,99.5682834969381
2980,-0.020294342831090235,0.07826358590507082,0.4013604358944628,47.79142883774325,95.4570144876064,74.6952252235157,99.53100270291921
3000,-0.021191504350804382,0.01965401650693952,0.35173062376493514,63.02296141602173,69.45136759167013,84.54199951351953,99.52933657945505
3020,-0.07523928358230686,-0.08571546182043295,0.43246821430719506,89.67541285677618,96.52554276216617,84.48491784222324,99.57951771450628
3040,0.023452115745522417,0.03223404077012187,0.23865942786220612,100.01652352742563,90.8864906451016,102.31466786825219,99.57897290344025
3060,-0.030144528098322167,0.047350125229274766,0.37679578396906716,84.77854451636043,80.1454681576779,78.06614444104095,99.51414178332936
3080,-0.010535400303070213,0.07690345274040228,0.36682681784730103,54.48588136712356,97.26274853494996,80.76921545739016,99.56837484887765
3100,0.04531720494208131,0.14243360660622867,0.4273545971485093,85.57901823140541,88.32852238954631,102.41291665120377,99.5790647611262
3120,-0.05067342336738837,-0.004357014052337949,0.3838275933747003,75.95474182473778,79.55571561248045,72.35959578977281,99.55519502348275
3140,-0.015060070531301132,-0.004133483626891158,0.38839000873521645,79.0137700107546,99.46643181527912,79.4187481229006,99.5354106975733
3160,-0.019099299086848313,0.0426211916734871,0.38310995176708423,84.67519998508499,77.72403565722679,84.61140647932194,99.53974738299867
3180,-0.04736293829955265,-0.005716926723562413,0.35166882608152644,72.4235459366294,105.82157800374608,70.66013790543525,99.54989451506961
3200,0.05408799177488767,0.003433514543297676,0.4191856126854996,73.25130709324428,67.57135443067216,71.38389742507117,99.54911700961175
3220,0.007621911585663742,0.06793261181281814,0.38154177230542263,80.1471148497699,78.80028184942594,87.4272192743399,99.56407494151219
3240,0.062076281217687004,0.03896896935319277,0.432282268964173,59.205525265282816,83.17586770088458,73.07666387688488,99.50815278905509
3260,0.01560414109142872,0.042178793425655864,0.33634439645685094,69.84087268726879,75.23725358658008,85.12317817404829,99.56964367355916
3280,-0.053062658626875425,-0.006672416803375464,0.3310504411868536,101.68716614637451,58.60668085817263,85.77211880466159,99.53758925739282
3300,0.06835751389023383,0.012247010837441862,0.3791814650922873,66.29514423977751,81.29451609779865,87.89495027812548,99.54025824758824
3320,0.06715456014872294,0.027301549590973525,0.33119922138435015,97.60769617939026,87.82725357235825,69.94148207144976,99.578867321667
3340,-0.021946590559365844,0.05652687238465595,0.32845277562754194,76.88777423038785,92.64112012503983,78.97075607339112,99.52303143658192
3360,0.049256905646752634,-0.0230682099830401,0.3399710187396894,74.17262781129357,74.89472247712898,73.21374134134511,99.55475312745311
3380,0.01583122012625014,0.09342944683808684,0.41989025509841704,95.69404496316415,83.41115251040179,69.50847464824906,99.55760462962662
3400,-0.10487945949470406,0.006403909807263857,0.4154428615199612,77.40090517757064,97.77808659755478,66.36453515557243,99.54373634127688
3420,-0.03862169414747069,0.04045067754313824,0.37941114034767454,81.7696598956335,65.30091965528179,76.40919199100854,99.52501109961865
3440,0.01623984311870986,-0.09092087149081549,0.32246479003535417,94.12074368858667,87.72841354560539,69.4823114409095,99.56442680873279
3460,0.03329607687338409,-0.046555614589390476,0.3015552390884144,72.72624874089219,83.37085151287958,79.94064523528344,99.58618093000213
3480,0.038813176597590086,0.0009113090053981974,0.33810018991622204,84.30347484339318,90.50252161857088,81.04740350278557,99.55355660092377
3500,0.005101488994933078,0.012663928323617811,0.39933401740490015,87.546601956378,77.1620182723382,89.01670719156193,99.552098629105
3520,0.022390621414806494,0.028877709134979862,0.2244676531376553,87.137166346807,79.2307563345089,93.08230886381173,99.53836430410949
3540,0.009514950531017925,0.014008697610523042,0.4647328454193402,78.35145067461693,90.55695732301827,81.52902869082915,99.5489973918932
3560,-0.005234822597049961,-0.12007915348978578,0.38874454890149657,67.85200510412588,63.19152352343931,93.21626938254525,99.55919145121209
3580,0.04869028254973376,0.030132173072008068,0.272710778335579,59.82558670892939,54.00994608023501,83.35490958038817,99.57161514514509
3600,0.005252286127965436,-0.0066765238403841565,0.3190690302581512,82.2278443370526,95.05633798068853,65.61765877364896,99.53035339543656
3620,0.016716181739755406,0.04272245660950443,0.2813990614519256,79.8520856085329,96.15797541795041,90.93291441922987,99.57063829812604
3640,-0.009273582028290468,-0.0053843856382341905,0.35547111939186066,92.8482954026747,79.90269090529671,86.0793263140971,99.55095095873456
3660,-0.07263937847624438,0.0052287373890496066,0.39457183916801614,100.01653417003315,91.60108403683775,83.18096775965196,99.5693863829418
3680,-0.03756685083883249,-0.04742846656750708,0.418960480167334,71.54419406459692,67.50386269700428,91.00211244193017,99.57461019593777
3700,0.031223680758997282,0.03404648802087696,0.37274225831845553,86.84105322926588,74.56550722204146,72.00087476703004,99.56123458064636
3720,-0.004831270351106812,0.08145276468652146,0.42124172558057904,70.394179993768,104.81484910312858,70.83323633069863,99.56434617048751
3740,0.1119870067173125,-0.045022620620551,0.4123014026261478,73.2097498106077,67.18537253795513,73.12121048845448,99.55896132867738
3760,-0.08133627924027287,-0.04773882809865676,0.29273355748311514,100.16829880028216,73.44082829387882,83.72958071448785,99.51198696127382
3780,-0.0042421589867574026,-0.010087920143560854,0.2927429194775866,93.07877847657913,86.81563905032075,81.91559089424047,99.5986708773448
3800,0.0229471161940559,0.04922884470587704,0.20956979237540577,79.65754056340812,72.55818076021659,94.26720410346425,99.54651225723046
3820,0.001094707389142078,0.03130298976444163,0.2404419652592655,74.20688482254164,74.11789979871736,107.14640846334387,99.55527361207797
3840,-0.04879785716342306,0.0006249844945130862,0.4090256045793735,56.52521576187397,90.52117729236436,87.70059430806631,99.54739262666541
3860,-0.0037961715504143557,0.09378312764363216,0.3604105994624288,80.61540702052763,103.4004963243602,97.26386236567595,99.57330248155225
3880,0.02518058407531673,-0.023802593683538997,0.28899453014233195,90.97171030771861,73.60907044779982,67.5474156465125,99.5819503759161
3900,-0.03656398997258539,0.024185182863149177,0.3907088466008325,84.00986790079037,65.46985374394109,102.6116621819985,99.55254472113236
3920,-0.033116216700989534,0.03403276750812613,0.3723400175971978,98.01546131688833,65.8016016189798,89.52880252384399,99.53939591816658
3940,-0.03580752679482795,-0.049585028765864916,0.36333756868663003,87.59694895031463,107.57148965938333,84.65155059626584,99.55889862865904
3960,-0.08097664072476857,0.07970559877995573,0.3277067588997345,64.92582858312518,66.75584734253785,70.07484279186946,99.55782834544827
3980,-0.013476000994038043,-0.003954679251819738,0.37042298441341814,103.52284228990462,87.34858533667747,84.47931328389825,99.57889822493023
4000,-0.008441056967780032,-0.09396754457839693,0.3024381326346624,82.18904977360526,71.18848775813532,77.1934623492155,99.54614920998544
4019,-0.020980618196921444,-0.03912367389874635,0.39278570683351105,72.89637567760913,64.13826674283222,106.8824509708135,99.56249026993734
4040,0.02470184625881751,-0.057195673977907674,0.3138960951667,90.66597320984053,87.70701645012545,68.45228002642554,99.57058817709773
4059,0.05621822687412999,0.03321934093057449,0.2757854272390875,75.12866080206093,72.19791831205097,78.93687724637935,99.53458756270483
4080,0.06672593057087298,0.0530977358430408,0.3743744367580954,69.60604105008937,98.90596308625346,77.6965768966537,99.52976709020405
4100,-0.006080931973693522,-0.045609449495099465,0.3479751825342963,64.94845320443937,64.31470286499219,91.90188150400587,99.55152784796827
4120,0.06327043112626955,-0.017884546813987493,0.3232781677052732,82.78635026229314,96.71409066624344,72.80294383383973,99.56555573481974
4140,-0.06235271860153059,-0.04978582218229677,0.377714617528949,60.822054945581016,82.20197058741523,71.78199331783739,99.53420015643998
4160,0.06731137094262787,-0.0068257937725637935,0.3292916321304041,88.28271542998084,98.20425311286675,99.83602680841278,99.56714525183001
4180,-0.11863693247405041,0.019201945263990258,0.3249017901656175,81.63265804482447,95.58803009035171,71.74727896604838,99.5439527336918
4200,0.07547372726923662,0.02947073873273062,0.3428682082092346,87.20520479126614,94.91722690374144,66.12472086898136,99.5475666560436
4220,0.07061133155056015,-0.03785653538122605,0.3990662454697854,72.69767596892106,67.30022338538511,95.94279332417732,99.55519896889506
4240,-0.07063343982621766,-0.0558095319860224,0.33061748821866843,79.64845288167348,94.43327160538344,107.23957524782375,99.55830326087441
4260,-0.007580324932839626,0.01995006440042535,0.30747694600416453,86.00375446205015,90.64744159202519,75.0091930782174,99.56225333022235
4280,0.05291111445459404,0.017478138171795166,0.37007609170896294,87.37458467189195,92.12769199875954,72.51864577868271,99.5280581757716
4300,0.05846154697979847,-0.02859900172440857,0.3392635800783833,79.1175162347275,101.1553891397696,80.94580421371366,99.53407839536513
4320,-0.0647000920562325,-0.08187224426475649,0.31181608815514716,74.09509191403458,68.89318995361836,90.84145203685003,99.54470140463194
4340,0.04515930625486001,0.018941696032064498,0.38351792567769244,69.87012514007706,78.96695034783535,86.9641111087416,99.53241706693841
4360,0.05934498490582649,0.06756239173426105,0.38686275187733643,90.5456939366567,98.13126070080068,88.63023470560509,99.56240057538105
4380,0.028869446638541397,0.055216507671570915,0.39005781697857295,102.94938663731212,89.5865370192009,70.49298105900152,99.5467911468201
4400,-0.07406459062174847,-0.030175729589524622,0.3863089818003614,82.24136722423202,85.50883598194046,67.9339804736932,99.55156687789803
4420,-0.0021777338190638214,-0.06598981857702516,0.3641910025803307,62.94557010446905,93.36497391728825,75.22250243071866,99.55153254297662
4440,-0.001903328700404151,0.004263223964852413,0.34954754057131293,77.32104542280857,71.72471238425311,81.03885378098364,99.50820344102183
4460,0.0017287717157425755,-0.0540378646456309,0.3317519921334518,78.83131996115397,70.47439465845048,63.299223649432314,99.55508802875764
4480,-0.02311167520904528,0.021523172605015347,0.33732563195474424,71.76666503726159,89.26505153141831,94.20834890527746,99.58890753790159
4500,-0.008212107261088,-0.018152658174298092,0.41787341666769173,58.6720792593852,77.0287705920203,89.05428723814568,99.53088134869978
4520,-0.06155609548658128,-0.019092087991510534,0.26561589384884465,80.15725358283679,87.61231567205894,78.50452701798974,99.58242921122046
4540,-0.06449596147032126,-0.0857887356169149,0.27687759261603134,79.8591642026244,67.60412001355076,95.79565556024863,99.53340483572792
4560,0.07688729051879027,-0.04356817142270898,0.3144681390914665,84.34957097914658,84.27129077663751,41.14115086609581,99.55274040274259
4580,0.02847898259132702,0.026357121629237003,0.33098903373692634,90.17042830539731,75.53167984614994,71.93642046880665,99.52953655072405
4600,-0.05393443994736913,0.02796635537349922,0.26756182687095925,100.23589102258168,95.54778774383163,89.04964881030784,99.55371410068123
4620,-0.003691080123744797,-0.006916220946203366,0.3987623063411915,89.16298113462894,69.24292469085717,79.50216289561911,99.55462907948989
4640,0.026930855355110608,-0.01271332897147243,0.2843242802878995,67.84782082336548,108.84450792057484,95.32208731185194,99.50811970234057
4660,0.0831266987908851,-0.00783358514778641,0.36815777126695254,56.33213418301055,82.54385147447441,90.4906467189309,99.54767043456312
4680,-0.020373465388863265,0.00464951972967765,0.2949908182817915,71.66525380498749,65.75274894302387,60.03748057769876,99.5781734503175
4700,0.045050529369951915,-0.008593493006579416,0.38626215315598167,94.8978018320633,81.4603591756086,79.93513261211493,99.52818203560985
4720,0.05988065616825516,0.004284664820037215,0.409373112550214,78.1722824480349,70.66775658270764,75.05749826710134,99.53089822573268
4740,0.03997266544661787,0.008900319172917292,0.38321321581023476,76.7522396257278,90.60124310485791,83.1457587601491,99.5522583033284
4760,0.061995819020847456,-0.001494105244307715,0.34709891593228887,78.1680317397515,72.19642389087703,82.498789758351,99.5452024439189
4780,-0.021794158259269412,-0.08431377218282075,0.3980947814347809,100.01802631477534,74.47665045525842,75.42616168420605,99.54888493125945
4800,0.0324939421869944,-0.018898776023633882,0.34730241723252575,82.99240094207511,89.59208290356003,88.58892970350234,99.55683343931223
4820,-0.05413352624222262,0.04927524297831043,0.30610537494353346,72.56062257224164,91.4317906845999,99.75149829588975,99.5737190387151
4840,-0.0007768783609396913,-0.010592149638517519,0.22170342389197903,74.86160845598693,93.95905934207813,66.63311016030616,99.57209499331901
4860,0.038446949913680084,0.05380705424509428,0.366967459098415,65.37196912087325,50.314414532013146,95.45087220428694,99.5434899593362
4880,0.02343291624755963,0.011064072543808496,0.3074084299053795,83.41891353325359,57.54963383811801,101.23193655448748,99.57289586958113
4900,-0.01516658221905918,-0.07249215448805092,0.3907043867659577,66.70177371361025,68.38476971202951,73.75288721856855,99.55147895584128
4920,0.128357127944168,-0.03774625871374154,0.3361911938720942,92.12488198156603,92.58678038076366,70.94316984220673,99.53846354999604
4940,0.01736058583316252,-0.08866995400000999,0.42739656246276136,93.90369117849372,66.9427137937422,84.5390053793043,99.54743409607028
4960,0.037381704507023286,-0.037739256700905804,0.3766224989247862,71.55465161008031,83.59354883080329,71.98456700500553,99.52160806110429
4980,-0.09901179084241353,-0.12502953846292003,0.22540263402801972,67.85266094745134,89.35532712971879,69.83010732266158,99.54719549232439
5000,0.017598494825748306,-0.019519780772451947,0.33400076863171363,54.80774948925182,83.36556994715595,65.03916643061842,99.51882721774302
5020,0.007491334970824372,-0.005364659570440893,0.39997963662252717,82.0400273075122,86.13132553984718,61.764582050779424,99.57472719477238
5040,-0.03608310126812788,0.009953643043265934,0.3276688916653314,91.08975090647158,87.36744691269342,112.55592460721977,99.58398499236324
5060,-0.004012045925888815,-0.026238339469912993,0.3213178381724459,82.94903238931862,99.65047929580527,54.69600490403649,99.55933703024404
5080,-0.003369152675272375,0.046417331670781596,0.4121388058089179,56.13370769516936,86.72431298292835,69.50316971397726,99.5737870254726
5100,0.02835948023334758,0.10228128228888732,0.3135707598801133,61.46509414794687,87.43948911647088,81.70548158790234,99.55668914946166
5120,-0.004403646023171482,-0.049417857516068336,0.3011801166850657,105.54722148604125,86.93348832943641,85.00323580686285,99.56171345562078
5140,0.05145941231319362,0.04954035215548666,0.32484147422483534,63.29255831318061,92.2493337714427,56.350234903285006,99.56297906360741
5160,0.0016202704530575496,0.03733224952233182,0.3397066048569415,91.09289697108944,84.05795824074916,73.84649070373787,99.57171633695367
5180,0.017591758714862224,-0.09030949498997518,0.34855709784129346,81.45915166336488,76.04183416508221,68.50281101160866,99.56644589353185
5200,-0.06397442160404389,0.055716830703697574,0.3427330188711348,93.50928063477576,88.4293703546208,94.53413028786031,99.54065218098263
5220,0.07951986879863979,-0.028337145002226394,0.40871071829164307,87.39184231120154,96.88337764033969,96.5180166525883,99.52756277465465
5240,0.03921365260693163,-0.03732820756270168,0.42808794596773847,88.72806898892026,70.37521125346045,82.00513669459968,99.56551176403195
5260,0.0017445734504555452,-0.017726263644049733,0.30502804435716446,82.40369928621158,51.74052928456912,80.37388835663191,99.53904170545066
5280,-0.050141150794299316,-0.02678762463035513,0.35241434110265285,73.44167100977826,91.40233274374256,76.45080893656596,99.5813385359547
5300,-0.03683477448290567,0.07219353955337902,0.3737318290000686,60.62889943673903,89.62069243623974,74.37220839560503,99.52662513252116
5320,0.04003376702182887,0.0018789883055244363,0.4209734248239974,69.93312242162152,67.43068649864507,91.42736176240827,99.53753242038024
5340,-0.0008526065395923941,-0.05473474300071436,0.307702469118448,81.45823587491839,79.5817723705228,84.38502484764021,99.55519957389122
5360,0.025479050693515748,0.06686780010716661,0.4057643982922876,90.89629658960894,87.96961470901137,78.55040875691695,99.53230727388089
5380,-0.010869080405762448,-0.021314520190839972,0.36019580933937856,95.23476215845213,74.01213570270127,71.38083223558766,99.55457787401276
5400,-0.059591504711886505,0.017337412706135754,0.458336845358346,105.75929614275192,88.87585722632656,80.78412241292133,99.52116507206759
5420,0.030665997333946007,0.053789432116146355,0.32202846825038955,88.58125544281688,81.2457715171024,67.25600656539235,99.56116887649998
5440,-0.08929907221890261,0.018154459054895895,0.3963640149711891,113.05900039637342,77.57900697538591,81.12100018275042,99.53755122647541
5460,0.0851808930416497,-0.02568337381380614,0.32624991836477185,80.01425617907927,93.0871675464848,85.73745951643704,99.54983055063192
5480,0.06380641430071907,0.028237807324970356,0.3725830092949052,85.36091385232274,79.97572668264844,65.86592505711624,99.5585713172957
5500,-0.03429363636852816,0.021102951599628366,0.35422901682013597,80.45125554577305,53.958626098701345,92.54059943872038,99.55923157892641
5520,0.04313682818699309,-0.029069229997104193,0.28846569333934957,77.89736307431006,85.69068720525378,85.20965102638075,99.54934937960638
5540,-0.005445975852737436,-0.02211031641610959,0.35662929123598186,73.58349124534348,77.91910916061057,66.13036103428647,99.5775425308858
5560,-0.10185053145649794,-0.06225084905012939,0.33017456161851544,74.94857637940866,89.48270707733235,81.2343931784858,99.53859481577344
5580,-0.05076247990706108,0.025424492548959527,0.4137841951033613,101.83264966494096,79.54110149786572,68.38539481701366,99.58183798781177
5600,-0.015197506583858595,-0.09041442420456725,0.2779807338936383,81.62070735052896,87.4441992789944,82.42094836210335,99.51679728020841
5620,-0.031598356481492146,-0.038835626243022975,0.40719790370538256,74.71302434100777,87.32883974541042,87.22733790547046,99.53167184500285
5640,-0.1050225223401385,-0.0743562646160471,0.37452276312999166,56.659116337696524,91.84569446701661,79.36034592796025,99.52967893713567
5660,-0.053886517023235936,0.015393265861495507,0.419654899508116,77.09672243556108,93.2313897150772,67.33485371714299,99.5456316314591
5680,0.021781831672276257,0.047382063642465166,0.367894846023412,83.08435761325144,83.21551767837298,97.57565035268138,99.56270105493437
5700,0.03480108100021769,-0.030037500601367707,0.40157705302963964,119.69793490403114,107.78080279386884,80.63223084071596,99.5630200353111
5720,0.048731088761281446,-0.017346028613736714,0.2718324380185995,66.65542473813976,97.96830095966693,71.0443903734373,99.55434806756553
5740,-0.013314612526923418,-0.024609647806259582,0.32966746640531785,72.68298254448467,85.76929589654009,89.12852824004702,99.54334489777924
5760,-0.021619265561686325,-0.0027523319337017715,0.3536596703067487,79.45559178606412,84.71961473162644,99.04862644895351,99.51352562316377
5780,0.03479947758035219,0.02936801410467381,0.31905705875127344,75.53756895798567,88.22077784486439,72.02008881135225,99.53822858935933
5800,0.0019295151447334667,0.01139265889111122,0.35655383053841766,89.52750314709704,80.92125955934631,75.96061475035867,99.55622017212274
5820,0.03921167944678002,-0.02218506130180574,0.38267295096681,74.13495763904244,74.43311444162214,86.5438002692614,99.56457284014681
5840,0.07499099970067853,-0.03746425589003926,0.2853495351981278,71.52266630765462,83.07820702955279,95.71606175212838,99.55852843112602
5860,0.05690820785806316,0.03904774782370711,0.36669514298105615,72.917809797271,79.99847865392798,108.17621946242136,99.58248717491838
5880,0.05678963544636863,-0.03442973959311303,0.3986397622641846,60.79587939997306,68.53357787024414,76.59593310728427,99.58401357933126
5900,-0.044886111134689856,-0.015768969234933716,0.37253895986956787,71.33371201104998,76.79523603599121,68.74025921500758,99.58678869369095
5920,-0.031042049325326067,-0.04042943751309441,0.29370956717391317,86.6296430367767,83.49545298384899,74.98931942594251,99.55425219334886
5940,-0.0012368814309146453,-0.02122074013259484,0.36389641913779497,83.65730304978992,75.84975603377649,76.55567106154177,99.54156718753534
5960,-0.02856199674901884,-0.07910682447253206,0.36312320581856045,61.68318473505001,85.78575606644324,88.18277595905549,99.54253147551204
5980,0.0886935024044065,0.07968083404072593,0.3568646424824399,86.75941035548489,51.2036308879745,89.24641868904833,99.59940180630942
6000,-0.06691570545554935,0.008566505462485047,0.2758461376704543,95.25982549021063,81.08425045998487,56.9719267616036,99.55333496200518
6020,0.07155890125988357,-0.004532710358886066,0.2977832568389969,68.43957207591392,78.18841872732817,61.13882873115803,99.53665155989948
6040,-0.039664788362407014,-0.02164333470581254,0.32111347319429434,79.8176184106238,90.06279985407814,80.86821469795666,99.52461451437719
6060,0.06144779314059195,-0.04759991048185093,0.27274426658076867,82.03478723656364,81.0590284737645,78.20656127396778,99.56795741496155
6080,-0.03350529090298649,0.025504315648282767,0.2863232199481837,75.26716465027013,76.6246187056185,67.68707328636555,99.52390381797757
6100,0.08567900440939012,-0.11089311062074417,0.37635850917521996,83.25871922009436,80.17633896549805,77.31185473530805,99.54324471681704
6120,0.02562157115496661,0.03786770739880015,0.38573036821989154,73.89003969524757,59.58055528623392,77.75801472969808,99.56763051935667
6140,0.029205109632845762,0.08702472093929853,0.3634926437951921,81.64632850926469,84.93004815333813,85.7503925062699,99.517588358914
6160,-0.11049290144277375,-0.015372330094752135,0.32071114439827103,101.62303766018081,76.92314884064962,84.94486898812332,99.5327500022299
6180,0.14653101847021743,0.0033738084255026685,0.41525722248676733,88.63720335181345,92.42442598030699,99.82351729781485,99.52808376788307
6200,-0.048889709963819535,0.023640549234927498,0.32989961438244875,64.0528038518012,86.29946741707808,77.06531578367459,99.56363288754056
6220,-0.12788429712794333,-0.003125108651740021,0.38879106041065276,68.70070861020308,78.72881662603628,71.41674793780213,99.57844135229163
6240,0.045652747428532314,0.02013354137182738,0.36483417611940805,68.98903360676276,79.21727980262708,89.59030794327947,99.56769280648037
6260,-0.057654273545197046,-0.05854630479663006,0.3445061100266488,64.00172967070867,65.69510559462267,95.02865794913289,99.51417502475253
6280,0.09643489157006814,0.022860599230535635,0.41112224247551704,77.23866935815954,82.54619312391429,70.60086781328857,99.57014923939998
6300,-0.0313590275992381,0.0005776570924530078,0.3013374973779941,101.0503986394466,78.87599843317442,85.61803397775229,99.5493512946421
6320,0.02694343790799892,0.03186170840777667,0.38543144302704,88.26755194532247,80.11474302752009,91.26733083788902,99.53983509943828
6340,-0.0369785054820978,-0.030526493834369173,0.28240895663986465,75.71493759617478,75.45503402726894,74.55046307200702,99.56254070567998
6360,0.02648547847041649,-0.04067415532656334,0.3270673538371484,68.91231877156669,77.52572505440666,78.80630801378085,99.54817240195091
6380,-0.016523117856498713,0.014195052363636346,0.36786889094424524,94.36505120401377,68.9185698246383,72.66734045542896,99.53282823569748
6400,-0.027140987168154843,0.05508853520308343,0.4054570085013135,64.96512863154355,86.02958697009797,66.27240904535299,99.5757026131265
6420,-0.07705751520547038,-0.017824078650232455,0.3358064945973819,90.39728408656173,67.51975708666197,59.17448950312325,99.54960798565337
6440,-0.0426567690787063,0.010608589678591367,0.27504130219703665,77.08655255357307,85.14709128432898,65.50057115444585,99.55020735913666
6460,-0.054743752118994876,0.0652668301486542,0.30400692768157456,87.02767024569455,76.37987057589704,63.18768278180666,99.53025285098887
6480,0.09145717503852448,0.04052109038506497,0.27758383077594384,63.93799031488908,66.77403131036084,94.66526253296259,99.56472896085702
6500,0.021163907210324573,-0.14148053305820155,0.38581377281500123,92.93873932637767,87.02442638647528,85.430521839414,99.56633158828885
6520,0.011360851963311169,-0.0345405273633154,0.3385257967146912,71.88914481958602,71.73747602018348,75.32636427615778,99.54247952291821
6540,0.057498963675753904,0.0408523660971994,0.3830007158005169,81.45728635060618,93.82007283707742,83.56387689725831,99.54121628289457
6560,0.07198241397682514,-0.04958002921141916,0.4126078973502761,74.10717310443651,74.0378858672976,79.0735316274317,99.56192062114116
6580,-0.04954843893152728,-0.07983635131876421,0.39794954303582036,70.72898547757269,61.943079783834186,64.2242544035182,99.57403883643595
6600,-0.02687798040376982,0.0727463570175961,0.3197389204692391,81.86871210785212,87.20914744933263,67.1232370942203,99.51397900017827
6620,-0.054433862327908866,0.04423424669506702,0.38289357640654703,77.57804734588197,83.87275343020457,107.25990036507113,99.5687671976137
6640,0.03909398159430056,0.025623870782029975,0.3334224909375663,75.84568974258531,88.3619690173589,81.13195194827053,99.52102664902263
6660,0.016129147713966344,-0.0036454328772083464,0.4044574841391872,80.8143168184325,70.82125679220712,57.4238601562988,99.57238505718942
6680,-0.051396828567588905,0.05935222296883666,0.2914233540503375,70.31375952612831,76.59739097540738,79.12718723592491,99.56301510203957
6700,-0.029339006770096005,0.047290110488492944,0.38106373220536033,82.60079706549598,75.84468308071636,98.2769684253192,99.56287745504558
6720,0.050443130655786685,0.039411439746077165,0.38250108211104594,81.30002750872538,74.75324159783136,64.39315902432418,99.52366511593951
6740,0.04471564475312101,-0.01586833459125068,0.3332964154655905,83.27735846635346,68.21014042136481,89.55054966077441,99.5576844979753
6760,0.012994735466064703,0.021297814521602367,0.43990517833552795,84.97220813812098,78.01143418394601,92.10089784542029,99.54659590865379
6780,-0.04184287174483186,-0.003951680760657972,0.45321110792896874,75.47596059652484,94.9697222385157,78.23185943546996,99.51068033246257
6800,0.059295491017834795,-0.035114918244556814,0.3416752284980693,75.74187851007889,79.56243234915955,86.78395779743575,99.56740146199576
6820,0.03307104385760398,-0.043398733820968885,0.3563080669413887,87.65801967682656,78.37734047890295,94.52290854992364,99.56027625264977
6840,0.0009003255596798278,0.03712597870127654,0.31633518644914893,106.8329047001705,78.21661726362727,91.46383824744633,99.54651580328822
6860,-0.01502725409814228,-0.035547689883471345,0.42535146930058254,87.33800019010226,101.87117979847727,74.58932326413674,99.53625280105975
6880,-0.061339291726988154,0.08795408694614626,0.25263521307684017,82.02012028497872,67.05439457887476,67.33542733198462,99.5411051753185
6900,0.03198168284536095,0.010952340978567576,0.2679869211316698,67.8232214982632,78.9688548192793,98.3232452804044,99.5405190507883
6920,0.07309584716861424,0.10913472965555858,0.2985123159245563,78.66547409194331,74.05987258275682,84.12784219209045,99.58030427205377
6940,-0.007559859172404937,-0.023211122893795955,0.33604427222868344,83.425691073832,83.42658225500875,76.22735730089988,99.57103306461143
6960,0.005332372050976919,0.11302904082956322,0.3852062144688464,70.76555942969082,73.10378076348567,87.0041210248788,99.56098570630758
6980,-0.02461733557021543,-0.04024221896247344,0.28221687107024324,81.34421638971072,87.17585510641209,92.45222510986329,99.5402439151338
7000,-0.012166103943122697,-0.05032722586675247,0.37415751894616545,85.52778982171128,60.016441391581054,66.72983188680777,99.58634703803573
7020,0.053875088144112696,0.009279449835015092,0.36766700725154977,62.186941089027954,102.71764051828187,71.38160282555728,99.60266286341019
7040,-0.0256680604223742,0.06447955204993282,0.3758137381030525,101.18226051853048,102.86892021369178,106.21677825719351,99.55596765819635
7060,0.08966902952163304,0.03240819275001091,0.3734348271192996,83.3981752640181,61.66508080495432,83.22370066106234,99.55617507469854
7080,0.09036825217677336,0.008149068746504432,0.3899266607372483,76.53802679772002,69.256743443599,53.43398492345821,99.55534451700088
7100,-0.021340156041020165,0.028347737232092857,0.41625061014912224,88.1879013518016,77.63627740239711,74.56482220290398,99.53381630702694
7120,0.10711533119771528,0.0684124027956045,0.3295772558360659,64.58810353603744,76.8736470656827,79.08965708306584,99.53759776448229
7140,-0.04953013154328062,0.06161844296143781,0.35863202826183793,90.6762951464471,90.70957863762752,86.034229081195,99.51576726812499
7160,0.09934074482731736,-0.007177912334715885,0.28670014127107313,72.8879043132402,89.4972162278039,92.12407406435001,99.55022806847839
7180,0.006009402919134255,0.06584324065016457,0.41092446879330513,93.38331471573665,119.46741430296527,82.11788779434194,99.53313007052117
7200,-0.09528054946633263,-0.03878412751715594,0.34380564304990546,96.04304558249734,81.47201541450333,68.76200988404486,99.50582096434854
7220,0.0191929558932462,0.0633192218401881,0.38228610275143604,73.5231294481916,89.35392208994763,77.2271411908907,99.56730852759411
7240,0.05093688296240189,-0.06005656017077171,0.3307756855092491,85.80433202794454,108.31187422861179,106.05918237565338,99.54647238573807
7260,-0.042612162008436066,-0.007159037672643347,0.39273101447272213,93.6577332706963,84.78237629700996,76.92003610659229,99.56433631131299
7280,0.020786350128284295,-0.029326768798575625,0.41044523417415735,72.90743303013818,103.21229594893279,78.95745306269342,99.54523118929818
7300,-0.05244861452453369,0.07097793552177899,0.3294191197445502,70.98063497013368,86.27665056390572,78.56050153529188,99.56383118570416
7320,0.02926561352589646,-0.04886197799023213,0.40242341795706627,94.48479782481414,75.2703208885807,88.85994438871373,99.54214157095657
7340,0.025965303679349863,-0.12180975653360367,0.3928819189698658,81.30446863570722,96.81899657228158,89.56890019983732,99.55044196276557
7360,0.07893379396280147,-0.007568524882071207,0.3658371887252252,62.423920841250904,89.74890842242651,65.84200773005632,99.53152509259091
7380,-0.08524131337879934,0.024856812181777016,0.31835197643814966,90.68727121610931,75.02734247843834,94.91299198702762,99.51257969310599
7400,-0.02239556112221124,0.014073213522576442,0.39059673712074033,79.29817321252342,75.9688607823983,82.70080256750441,99.51063501502829
7420,-0.0501185366959793,-0.008550029341798064,0.3799477699780775,86.5505679237274,56.05317152309942,77.21747611098162,99.53866310517998
7440,0.06049666897977679,0.07254945570761019,0.3089357592367051,83.28706356438151,76.70090466957468,76.47532208517363,99.53450914127097
7460,-0.03315004591050246,-0.05615826723637088,0.30933741132565223,74.40030773578599,84.22813295852278,63.09282976143508,99.55467253501348
7480,0.11433300918107632,-0.03768263823339059,0.38450824911448017,86.6930435171145,76.26393023500113,74.9755689376968,99.57433587252703
7500,-0.021186401997691617,-0.05042361781606704,0.34624875528728927,70.24840462457789,74.81954363793675,86.96915311953036,99.53276285810118
7520,0.04740450352669588,0.019460227582497786,0.27932006297293926,86.5935089585395,86.68101252330554,88.11735441649576,99.52046483368649
7540,0.017575103145031534,0.0528305583553752,0.438185495183826,86.24962416671144,78.99793136944193,74.21914097288669,99.5691151532073
7560,0.007867263418160273,-0.05203750141603197,0.4297558032145381,66.56326720975746,89.420091555851,78.46217836258255,99.56659092329805
7580,-0.0730650838397096,-0.03305491312861741,0.4503849534498302,86.84082832588331,67.80099044763384,83.06430736882835,99.57306556132012
7600,0.06568920455314735,0.049499294436908835,0.2588732929005706,84.54400741784013,77.78185735351802,68.1140037466458,99.55169699259856
7620,0.0015129174844098763,0.09948284213147546,0.33792969818841007,107.49729906181241,91.72279671058426,59.85255377892526,99.52920680236076
7640,0.040126806700310484,-0.07348661404697349,0.329558479680325,82.7284366112873,97.49548834401524,86.97986575659446,99.5518306550863
7660,0.04149066306269126,0.02478088320339858,0.3153159197157731,82.18115282188717,80.03444654322648,66.97686792034493,99.53366816415272
7680,0.07309951481055095,-0.022242569446124807,0.3778599629579075,83.90824233594854,91.52450705001266,64.13850273683805,99.55268284529463
7700,-0.018369575096078613,0.03352914433946293,0.36390016345069665,81.59981530382956,91.08375209712725,58.882958601626314,99.52489617957362
7720,0.04155884083972758,-0.02859923128915226,0.2995429942616364,67.78529652705285,81.41364872861206,59.19917623812842,99.56623395211184
7740,-0.10589549906737379,-0.022160062513426133,0.40836176516081807,83.47831187743472,88.44039021834902,75.38521127607862,99.53221799516685
7760,0.04021591102813556,-0.012773268530645646,0.328879785856698,70.3264953818315,77.94422218824643,96.55859761751239,99.55876842911
7780,0.0007421387315177524,-0.0009288408667537,0.32489597633032496,72.99739951469475,86.93905023991572,85.4521947405903,99.5362455104637
7800,0.04744661317542892,0.0078005772971192645,0.30935235225134566,86.6676745668636,99.04754194390036,92.24969064034121,99.5794449436015
7820,0.02959873948895411,0.0487664358019949,0.3988687410216578,71.70682060102806,85.48793065397123,59.59054537262377,99.53664796841916
7840,-0.021969846895898593,0.012472802544587318,0.3146723761628308,83.49781950129353,103.65588080496624,78.5231011059498,99.54403979946409
7860,-0.0196489442979324,-0.0671692649864903,0.29291518152685003,60.30236927892688,103.647100267817,72.22233125159036,99.54548715230561
7880,0.005370118528612196,-0.0253998645355837,0.34676926465383046,82.00047889994912,71.84014473605761,75.98684048390095,99.57296799807048
7900,-0.010402896923174412,-0.005476795592552117,0.3594164308853507,81.07797168736616,88.45162409688186,76.29576196762224,99.5353808249969
7920,-0.024598146485790805,-0.07781205264387406,0.27606539082181986,90.42553324312682,103.96276634086108,82.60892583785596,99.56037936756377
7940,-0.014904618080941316,0.07169197366590904,0.37174283422573234,84.75000828012766,81.69712680585904,88.8552805271882,99.55704908008255
7960,0.09620919484943505,-0.012298922350824063,0.37077027503128357,78.09822543713257,92.07597371855437,96.76772890395324,99.56596581227893
7980,0.04546662343484711,0.04991982073861296,0.3655345953504463,83.08587954775517,70.22516705927133,76.02406310437974,99.5415699283436
