timestamp_ms,acc_x,acc_y,acc_z,gyro_x,gyro_y,gyro_z,baro_m
0,-0.0365619602542234,0.06296774375300866,1.0424936349845721,14.027706701407315,-23.974743869267407,10.491359163402223,99.97080229617241
20,-0.050858650993776726,0.038341300003116564,0.9211084450875332,21.593727084136766,7.729012773520239,17.51318117419525,99.99273732892017
40,-0.0005910731391696393,-0.06585312226114308,0.9733520579347466,-5.3155370145702525,-21.59728644279166,-4.48173078046006,100.03729677226963
60,-0.024757487733871448,-0.046721013214948384,0.9594942897159405,17.09245112879507,16.715894069474285,-3.976846111602686,100.01228479094827
80,0.026629063232320744,-0.016867047187181832,1.065177751007778,-18.858573136420848,14.280661410964559,-8.620204701264697,100.01438209630972
100,-0.03168664648968147,0.08298870941404604,0.9784216100006947,2.4662814581861503,-4.703384406771747,1.2038738579955044,100.03410048889121
120,0.047128784000012025,0.030088989159566634,0.977821406997095,8.009932576321498,-6.689228705409137,-1.611615859564169,100.02384394139962
140,0.05206994746075139,-0.0492637216813564,0.963896166710394,-4.926562359196391,16.08550206428651,-27.051732070372232,100.00776604605227
160,0.06764171660085308,-0.03857802743692385,0.9617934255353254,0.01942911456137842,-0.7948578554877559,-2.726702758743689,100.02316971841051
180,-0.04041249049887546,-0.04320374821995246,1.0209002305724293,6.942439510159401,-8.069383770082307,-6.067748003273314,100.03531255182682
200,0.009324771048824386,-0.06798400580689425,1.011798842169872,-8.886393758778418,-10.970687459791312,-4.535977882691903,99.9909470151826
220,-0.02975367927635665,-0.0024342262793366374,1.1360294504920354,-2.074683889446255,10.398995737456337,-10.745173232565268,99.96810181341034
240,-0.03013012140065124,0.057180659311603224,1.0423664036111542,-2.768024157231026,0.2034481797617721,-11.604877267852322,100.01600937461167
260,0.07669664207308732,0.011197670552480207,0.9279196764348487,-0.844842492739895,-0.6245184046686116,2.8773943445998436,100.00670628294837
280,0.0266638327726789,-0.05174508771342871,1.0350638273858077,0.799291109371648,7.249348638840879,-2.5231491085189584,100.0037407088589
300,-0.033172848259140575,-0.011029800505948748,1.0157752104518751,3.5808018492432945,11.045598351604784,-3.3178822211233525,99.99211407350754
320,0.012549817252889024,-0.08307330131679994,1.0813995046737885,8.411194187513441,-14.133870160744312,-1.5968349435623352,100.00443178469988
340,-0.06637187274914544,-0.0017720704688019432,1.0557242924270687,-5.829439582469979,3.784721833728787,-14.400357339228199,99.99076389052192
360,0.00873636943198164,-0.057629699958505365,1.0096276025495465,-2.410236207081486,18.349185257062228,21.9336810625421,99.99698340551808
380,-0.08809556038504884,-0.023448770902057575,1.0413926377251312,14.887042367941692,-2.529614185835401,-5.611602481955579,100.001749381891
400,-0.04664312120940823,-0.1009596314230155,1.0418436557445068,23.417442700574508,-4.551499392669867,-4.234523695571632,100.01782251893583
420,-0.06944469238355684,0.05843421096954228,1.063454215378309,-2.5311915178615454,8.355604821649042,13.905037703162758,100.019796169545
440,-0.08562549611617828,0.021698930731820585,0.9431052313208034,-4.761114825708743,4.536493873638899,9.305267760089764,100.00805533268237
460,-0.12884209817249434,-0.035612972037075794,1.0237380986631217,15.085523284677297,6.639461415225206,-1.6298650237198493,100.00300061685644
480,0.08259138291175534,0.003045564195846527,0.9227607414754226,-5.331627422502508,-6.271299573231621,17.186078080657712,99.98572204247475
500,0.0007161357039129429,-0.01843066418317585,0.9462185592704815,-14.441153079178523,-9.475048082225157,-6.324436805190311,100.03881425850149
520,-0.007520472689448427,0.0899882258367473,1.0265215782849417,1.7149502162228036,-27.402663319353138,-4.941023862863752,99.96569792096179
540,-0.07506233609191812,-0.0022790782249594074,1.0652559765102014,12.141203501915115,11.86551302865969,5.606981967159483,100.02201278023975
560,-0.016020536749833756,-0.05279623933513764,0.9890001464160435,-8.60916059437761,-9.027235895756622,-15.502129282661784,100.0353898119992
580,0.006610405073746395,-0.05333815579741716,1.0205371594803267,-27.224775535251002,-8.98638064945518,-6.903133752532173,99.9798110859361
600,-0.03120276466688254,0.016094410654624657,0.9924030279396008,-17.9568450491604,-11.904540130411245,-13.82468038449207,99.99894021747052
620,0.06192819971646083,0.023118355075677725,1.1141283154156705,1.8692502915759857,-12.556760468692346,-4.01222387026798,99.99920103955094
640,-0.026651279973254657,-0.03945664858526413,1.0993334834962853,-8.98820147905274,-0.789789615193815,-14.90115972600536,100.02532161528603
660,-0.0561172583843558,-0.05679976230076426,1.0145866955381466,-4.645414103852094,15.146296002047302,-9.563199530815718,99.99643958481714
680,0.008846321381683432,-0.01612742366972631,1.0195501781330911,-10.77505793030797,19.756544273313708,-0.3673090826554275,99.95401211784976
700,0.020443576565116632,0.0028627224684276238,1.0687879021266404,-19.948191924249375,-8.592988158764957,-27.79827936626978,99.99018267769421
720,-0.01223434642847411,0.0012628030848727818,1.0642423446040523,20.803896156293064,-20.36805387785588,-1.2605802269707116,99.99483946004128
740,0.07332722514781478,-0.04233611101556474,1.0352443253189145,-10.087395215763655,5.786094288880204,-1.262476283195235,99.98551800772341
760,-0.04361719302143696,-0.06453639520654725,1.047557864662103,5.378927166328157,-4.451434502708301,-12.899882728945052,99.99846036435784
780,-0.04471089615873406,0.06792381717414003,0.9776550879921864,-10.695733428797574,7.206447314064823,15.269704581075885,99.97190146436867
800,-0.019664969451909303,-0.025528195737985024,0.9935512202931998,10.088810426582956,-17.65048876874771,-3.993964901551233,100.01041965728484
820,0.0642411868050324,0.02979364437474685,1.045056231528183,-4.943911846881139,9.265872581962775,-20.457431487488577,99.96416870750141
840,-0.057411777786128375,0.03657257921159628,0.9485029715535278,5.810592079516781,6.195979757847483,-2.1346278836971755,99.9907256378459
860,0.0447534137658748,-0.05194401794678785,1.048481307935618,-8.862833066438952,-14.487416724283236,-12.309320412072363,99.99951800208879
880,0.05416629200113948,0.05950813270921897,1.0083787064513734,-3.1925162185067424,4.087012241180373,7.904720646993984,99.96251323362345
900,0.015342155427365573,0.0024005770624931973,0.9365521771065357,9.224305932049129,28.775244012371203,19.20890652928444,100.02359461377033
920,0.010230031967578752,-0.08269270432079394,1.0889244458441996,-11.673063984510147,0.6837994754043712,-17.108898340224762,100.01702467081846
940,-0.019945359852756223,-0.027237539266826816,0.9275601574813362,4.742786415156514,6.315205061787248,-11.476204948647155,99.99666740606581
960,-0.023286829069222983,-0.018199419951532285,1.017637819722523,6.70170704203944,-20.31657950505659,-13.951049568022936,99.9736192136994
980,-0.002133868476388299,-0.02845791552083156,0.9612984855460095,-7.271666004246201,-13.700749240460873,19.43517170823266,99.99216331969446
1000,-0.05566477371405154,0.02509985962704782,0.8739162170793412,2.127665494099449,-2.7875651361945057,-4.578172378504713,99.97194506809149
1020,0.08932799449879414,0.02789526431865283,0.9670703446299634,-4.797390961115816,19.185865887544473,3.8339834815463743,99.95957974344188
1040,-0.00035731454475345617,0.03345447920086978,0.9918761888377589,4.468692109618818,24.88678844990156,-13.010843117871556,100.00552319227087
1060,-0.0741975317987296,0.061956882931427794,1.0482172562582066,-3.599897645735145,2.512771870509848,-3.4325909564874237,100.00607658019977
1080,0.044301942199213094,-0.0369319887807761,0.9310723060382672,8.461150066773806,3.924589358438226,7.449094879625953,100.00520673315758
1100,0.05113004312593607,-0.023732179265727453,0.9247462961094436,-1.0999093966972913,5.577855239169418,32.708968523697436,99.95749713804845
1120,-0.04044422543944687,0.04458685305759629,0.9932350706534432,-22.058322482124854,-29.259237793279286,-16.427411913256574,99.9787874083211
1140,-0.0354397318779602,-0.011032146937051835,0.9651686927886389,-16.92517231219367,-12.211884957347813,11.716868362730263,100.03152149230847
1160,0.014432800700459339,0.013087968613319345,1.0002985641340312,-8.809494512232915,-0.667288506665636,12.31972144649266,99.99281455829845
1180,-0.05561763558915253,-0.055747316946106164,0.9866500250703277,-4.527467451314501,-11.53069718207692,9.449656826190472,99.99222525345093
1200,0.009113943104447929,0.09826332906393148,0.9207380736668488,1.369895777768959,4.251695625205705,31.479123868342754,100.03391094556571
1220,0.017756188411578857,-0.007519481980522458,1.032592412901738,20.643440716915567,-0.5384090907574667,-28.26475133371045,100.01039090819987
1240,-0.05881978187870129,-0.03250747802546763,0.9807742125574299,14.040053216154654,-0.32396031284268845,-1.3518071869864017,99.98260800664646
1260,0.03444981486386622,-0.04166812653227678,1.020044642803489,4.6197344369383835,-7.496320816241521,0.02096227747506881,99.98847900520855
1280,0.023346503924851283,0.07609240122619833,0.9289670794126482,-3.414464525500357,0.5577031762614221,-10.46339769954506,100.01159622903769
1300,-0.017414147097226947,-0.04199588095641494,1.1008782304712001,-31.012515327122426,2.4145914438480864,23.15433099440689,99.99983213086401
1320,-0.05286981014535132,0.10477213256805451,1.0761077346740824,2.2601722973048526,-10.279090396181616,-3.153693311433078,99.97271644819132
1340,0.015437291203587583,0.014373160217750239,1.0534090789135115,-2.1272028721753466,-17.558709811902688,-7.184543026442937,100.03498319063831
1360,-0.00971005812320765,0.057298931006652246,1.0155911906421053,-0.13872400975082247,10.67968054641928,-10.552902274161312,100.01227469478383
1380,-0.052417068081821165,0.0005401796223820244,1.0086705771214186,17.309898383951605,-4.08910154339298,-10.087803894541441,99.97659944120502
1400,-0.048436030170063475,-0.031746412670985796,1.0330988388089086,-3.8868427742478637,5.10054664698666,4.083676720812212,99.97528163972088
1420,-0.01035910578134209,0.0718762968283482,1.0375859766620543,-20.149808255743622,2.803028643296529,-11.34816485146775,100.02148710391438
1440,-0.000958180562918696,0.050109311349484244,1.1013749085660602,2.389573108663205,-9.800167397120308,-13.414468820363481,99.96313719737161
1460,-0.03775277169281029,0.015506419587989881,1.0506377045129003,7.040475915816089,-0.11241895884736258,-1.4300826909967659,100.01993195882902
1480,0.03058161421630591,0.023530602462052283,0.9510895660301417,4.938639397213371,8.937331705597146,-7.6099396726640505,100.02200354442628
1500,-0.0261701351131179,-0.03375390402168491,1.0005405634644464,0.6896438515533507,-7.891673519017283,0.7253184207644648,100.0120151768796
1520,-0.04425427781753764,0.06931203554885751,1.0313237221794869,-22.851702723946453,0.1449245440863247,-4.791659419837337,100.03557747703138
1540,0.04565296570060859,-0.13138537521469998,0.9656350058811306,-10.386122129352948,1.239452953302289,-1.9260202387068057,100.01285595081258
1560,-0.059011841574955974,-0.015341513624967551,1.0243722592062419,15.467718299784273,25.22450003545489,-19.874132461112836,100.0121042839725
1580,-0.07596978340782236,-0.05898172688142218,0.9581338692001484,1.1783359133390139,-15.11554423336743,-0.15206231690609923,100.00355847637223
1600,0.1163166750061186,0.119440039580742,1.0033926384610259,-13.365682139971568,5.069051126373862,10.9675721054749,99.97923680818009
1620,0.03466011866236536,-0.021894284159022562,1.1264347832490413,-3.0750202537556537,5.941933765284888,9.990219780021508,99.98682556201139
1640,-0.008322863223749557,-0.04925211036569477,1.0118729289465107,-12.40474535390654,-6.238931170937924,10.345751428014077,99.99324038622375
1660,0.13229501221930182,-0.08543342832113261,1.0019408451188834,9.730283712281349,21.969516973268313,-7.8549399013632115,99.99322416427916
1680,0.026260384096297967,0.0065934535820309365,1.0555389066017702,13.059384184115952,3.8165922503131515,-8.59557433831114,99.99055570704395
1700,0.02343882512973927,-0.021816913687570112,1.1053496893951,17.44954797995168,-2.9993061182264538,24.69561440759047,99.99496337789249
1720,0.043849494997800643,-0.07187175672492375,1.0987631829510631,11.823264678055743,-2.8599093712198225,16.776403200432085,99.99804885135748
1740,0.038315461574633426,-0.07126253872618278,1.036106107693885,11.62769376917496,-5.609191366282772,-14.761595628714757,100.0096346348684
1760,-0.017612101859478972,-0.018800420472857612,1.046426775007676,-5.929802390612477,1.5330945271060092,-12.480361398215912,99.99355441425963
1780,0.039973063781751576,0.013985840762285904,0.9577526572776242,4.374830678523702,-10.339404058707903,46.172547046822324,100.04071851517504
1800,0.026314235250632798,-0.057734662390026406,1.0264667567305998,11.235921044751306,-19.498758795937373,-9.270835552924856,99.99342282292776
1820,-0.04461915315736602,-0.03565256860371057,0.9584509603679858,-7.4295484041532,-9.123987195430269,-22.77800890882857,100.00874973247589
1840,-0.04859708656637454,-0.058424718165701765,0.9856076134944877,2.8733732620426493,-14.812678649057409,-16.207564129237596,99.97253799939044
1860,0.054325017288767735,0.001781975343043635,0.9872157771275042,12.33709992152181,-6.1034538942236365,15.883924782172272,99.98136064402813
1880,-0.06719924789207221,0.11773776483084489,0.9981275403158512,-0.9701012249023637,-1.4836050832936183,13.99395737720191,99.99328865374521
1900,0.009343631771339402,0.020920451814629145,1.016755289089586,-1.3599917645803616,-2.6757511143400325,-15.354502602973689,99.97374708739429
1920,0.018769250994214805,0.025597759094167158,0.9413797288059601,2.8904574015448565,2.102152169324949,4.31593607882029,100.00996422014207
1940,-0.08297211092368265,0.03364181762383393,1.0260646558333144,-11.204053714060787,-11.930419633437634,3.8721194409278716,100.00740823033439
1960,-0.008995744816071067,0.025070124187443768,1.0504837821276636,5.278932303387034,7.138198674628061,5.388506774525905,100.01551890127185
1980,-0.03240089066160174,-0.023763539188222264,0.9935499018409175,2.5560570643166045,13.730068113647713,-11.243353902752936,99.97617758107208
2000,0.034792789685601,0.03891937730306253,0.9823701004706911,-10.138608181315995,-7.17208344970221,13.888118653646535,100.01360601199048
2020,0.03841886027429949,0.055963695400057946,0.9324924828276505,7.011118808888831,-2.5211403377170365,7.792422054778675,100.01007606325473
2040,-0.01269455245132134,0.028859928609936976,0.999288417336929,-24.084814999963335,-0.9822755317320324,-4.709502021727049,99.97080567397201
2060,0.08016433969078163,0.02443759421427212,0.9389421882345157,7.370606540969771,5.470405722192731,22.995230282623695,100.01027461727291
2080,-0.006696691068147968,0.08968896254159046,1.1131200386596747,5.445639325711772,1.5053825643672467,-6.139548052683691,100.02705626731293
2100,0.08194351843734582,0.002164168534379562,1.059017681974513,19.884339910449757,13.987098515436262,3.670631791259403,99.98376994865501
2120,-0.04574446060210836,0.07101115349131513,0.98640745490227,-1.3709173013855334,-4.187847254770402,-0.7068642054654979,100.00273638988898
2140,-0.011598495389207913,-0.050702274816537045,0.9907453366085357,-13.971939200705421,5.60205999374479,-5.9796661882667745,100.00444926332045
2160,0.025541339691234434,0.03967319365504399,0.9836386949605153,-10.583966281395401,-19.946878479859063,-17.42559314737929,99.99908351064171
2180,0.01061473284508764,0.03534931241624185,1.0494307192915038,-6.9840257112979955,7.120716126743262,25.405373669804362,99.98331211270616
2200,0.058580158880790684,0.020094929094137924,0.9761324223084821,5.7822876892820645,-4.965386723581483,-11.461057473301842,99.99999814519884
2220,-0.031041263377630836,-0.006874343905798504,0.9188109905691441,-4.292041964889738,11.258228758567391,-11.608872936688037,100.0245717342245
2240,-0.09331362807315445,0.0037434564111826067,1.0038689048231517,9.353579869132378,6.905608532594134,12.109549441691108,100.00011398989878
2260,0.021404931366777104,-0.092354274221152,0.9201620355007093,7.5403255911601805,-13.008352513308754,7.728633593988959,99.96471398338242
2280,0.034585577517853905,-0.05644851927503744,1.0297894278823247,23.00321197273648,-5.17571745866546,19.128159131765102,99.97790036479732
2300,-0.04992786446753107,-0.015829018521409745,1.0048035934010517,18.01695659830477,-2.4152404125044367,-17.248288101338552,100.01443345313713
2320,0.03393189714857372,-0.039115281250436715,0.9946009263379139,-14.966676972478933,7.3021561878716845,-7.381678443027311,99.99791044782162
2340,0.0871003780991777,0.04307825879920108,1.0226945365385827,-10.766445511301262,-28.236228332878028,-5.617607700741406,100.00263909868951
2360,0.03878847770309406,0.003563920489997706,0.9810066613746925,6.276761717527668,4.446541585263239,-17.541366840727584,99.96538322026957
2380,0.023463200164650172,-0.07777506872707637,0.8614718593175913,3.429918563908915,2.5384227852178465,-14.70479930417692,100.02660071119207
2400,-0.010663244373734632,-0.06675739368215135,1.0655473322842646,9.3998257267118,-1.5500451977741265,25.964733080617094,100.03649062073397
2420,-0.0058850088227781795,0.005564960795250291,1.0109019557644052,-0.22978229879247875,-6.138392297720251,2.9130232877164763,99.974034540256
2440,0.0028182641270608423,0.02996355389898894,0.9712167145922601,14.06167825571399,14.691670240107541,-7.318674849624877,100.01614861982873
2460,-0.049764337599901294,0.012817778635744972,1.0424848814858119,29.543438654058292,3.3320745386455033,-0.7264740031826653,99.98790150456982
2480,0.010269741828882952,-0.06516893122314672,0.9247571376058391,16.02707016231527,2.271180449426063,-5.273981478952032,100.02180044852057
2500,0.08701925232439744,0.059524372742201154,1.024789528548408,-4.235346576110027,-5.639987726340003,7.763985802704559,99.98576059722694
2520,-0.009402033500355022,-0.05671978923288325,0.9701693387440552,-2.9825142961777655,-8.528131522566916,10.56049312182464,99.5617993648266
2540,0.08844313949332891,-0.02950064656655482,0.9808486594552991,-27.372400663021025,-11.03188334831669,-9.365481886159504,99.55892746741027
2560,0.06440491366160392,0.06926319063686434,0.9557919557732728,-7.945815554912646,-6.510618907632297,2.153302494298771,99.55144912133221
2580,-0.06183805209398272,-0.003274390008766122,0.9656575433081163,-4.926762453384587,10.917886731082799,11.662132262391477,99.56052480294844
2600,0.0057933912901876414,-0.010776399878746975,0.9049991618705384,6.6972826689579055,-8.83579132231248,17.998329161954267,99.55877585282133
2620,0.011433968828340857,0.016298901317441782,0.29310265081367615,95.73075701638828,65.28363099807122,92.46932816035888,99.55790919050074
2640,0.042874101938038076,0.007873800218661428,0.28748492029108275,84.4383244136681,97.87600692201858,63.99807499607728,99.53304950871582
2660,0.07317202458466374,0.006243219015590256,0.393854759629893,80.60529947658871,65.53049292351719,93.44549895747198,99.57536295088869
2680,-0.03749616436384701,0.009792245456787538,0.4242011971764531,76.10023211113163,70.72432111338404,57.86133040878707,99.54310309558308
2700,-0.011131988265264113,0.048051931789544665,0.37387087101402644,58.51890643364895,76.90423399957405,95.35403000832497,99.53407294089457
2720,0.02461988410309948,0.04966492531896023,0.3288385903988479,72.21530070125367,67.74554571857723,79.5162129550147,99.54260949748688
2740,-0.03885831666242939,-0.037606808373868594,0.3282634487387534,87.30310793745826,75.44807523136228,82.27532484861605,99.57020313838686
2760,-0.006468049536843818,0.10422799007961114,0.36281274241000994,87.25314080962174,70.49968835661845,63.248699274784585,99.55874231558575
2780,0.03853017470658092,0.03540591146537497,0.3569159958980696,87.73027153150359,82.69183269085467,72.33094601664125,99.5230375309404
2800,0.009453480377793927,-0.0863547896244465,0.2723849589883928,77.63268758798748,73.97451060304385,80.03775009009352,99.52385658897965
2820,0.07676900686128858,-0.005684089196092342,0.3331095248337303,66.83812364562692,99.59073306149327,83.54838854773179,99.53685245695107
2840,0.03271581304108811,0.03897317269986269,0.3770050741807023,76.54353060112892,95.0972227338176,65.13878421256227,99.52545982909642
2860,-0.04175993443500247,0.04982966809773404,0.36733523146405495,91.99901411233097,98.51624185589597,91.67324510439047,99.55853194774419
2880,0.04812888006843847,-0.07639098361366345,0.3448360135289859,82.95121915760308,73.93471220078224,73.37074828148637,99.56650814676223
2900,0.04467764950864206,0.047342548375826625,0.31264073014615434,82.6766357200738,95.79946745676509,84.00554785433975,99.55160590979693
2920,-0.07143789906891955,-0.08408647796641579,0.3201027026075458,77.56677072282054,81.2596998420062,85.39971676988706,99.54331784254929
2940,-0.001085413999421727,-0.049673633308985,0.27457271763699925,93.42219483418506,95.91120687657883,67.14618279698381,99.524790793282
2960,-0.015758679928888332,0.03691539420891183,0.34636728981178116,85.36780483274454,84.3439670998996,89.81587730936641,99.56627664135448
2980,-0.028239563504032505,-0.05668669124594621,0.3741061058885304,73.2716528033788,91.88313760626555,74.97568734829753,99.56305635245529
3000,0.0201503898603186,0.016212020147875986,0.33799569093720583,83.69475118514839,98.34022539595514,71.05032543787738,99.51479710925193
3020,0.004419274400558321,-0.0437574688643414,0.39182408186747164,77.62886927458086,73.86282656767966,74.87819436365191,99.55793740497391
3040,-0.07431319072152875,-0.03852294330621022,0.32792269266442053,64.5818452280917,58.20940192214249,74.03994085293137,99.53790470252548
3060,0.0699251355742832,-0.08749917908943333,0.326558396135516,85.56223041161994,78.65173041584464,94.42683383228109,99.50956008251454
3080,0.016015539639674243,0.009519619916800136,0.4160579537399977,98.89882974927406,94.19612073733225,85.08837188662557,99.56265590237943
3100,0.0019555726818130835,0.03620695100761423,0.39732666536460487,74.02025584983024,79.7708056170292,92.01955801011556,99.5540775895992
3120,0.07799950461319345,0.047369707450804176,0.39727511170311397,68.6116793419003,54.99328906427411,77.5798833984163,99.58449904412797
3140,-0.05185928973453492,0.026296968983822333,0.3152465082981181,63.7132471154878,65.41853337268556,87.17261992715001,99.58150736156178
3160,-0.0596088424636784,-0.0774574069265301,0.32693672627876497,81.95956809551511,92.06832650569972,68.33908218389178,99.56844758728386
3180,-0.0028011374966773975,-0.03647130361105014,0.29258820321834134,87.12306055237062,65.69747362492984,78.61468139526167,99.55865957924789
3200,0.038516065847236415,-0.0006652568610518213,0.34584472876905364,68.2357027924204,81.21585234782029,76.66417571269652,99.5323902409816
3220,0.005033014630547931,0.06108441209363964,0.45432131701179046,85.74219541141778,89.25792721460496,64.51410267649648,99.53821576668527
3240,0.014413101150316427,-0.058060244115716,0.4524781034260543,108.85744121766419,82.88675913760484,57.292093580684146,99.54589052742604
3260,-0.032430982233242055,-0.031218943230709506,0.3444095792020258,97.08614929667237,67.8435635572871,106.75883242800587,99.55344818388684
3280,-0.006023347676277553,0.028831396734044636,0.3916361532453616,69.28899784471503,74.28094478194102,102.96849861869065,99.53544250107772
3300,0.031725871478871445,0.08195317535174838,0.29873457096321343,69.2804937304993,74.99685439798341,71.71707254912272,99.56545908302124
3320,-0.0003368064415922771,0.019124835590971737,0.34244723212781925,83.2174361713179,88.76924826956005,95.27386119710404,99.53158238940199
3340,9.624295224046061e-05,0.03631114842339945,0.38707805935810247,66.18536990122425,60.81560060949779,71.65469677836822,99.53684605717207
3360,0.0017588976891724018,-0.05975778948518632,0.4016770007481065,82.07780750108644,78.84631592375085,87.58399539652555,99.56774579756365
3380,-0.03717524155787527,0.002308626305262759,0.22941001518000342,58.19147476418049,81.11696266000102,64.05838937460793,99.52367367721655
3400,0.04178885524773043,-0.038787753504436605,0.38069345514472386,74.54930694959262,89.31097926455261,75.86656997595531,99.53923071898515
3420,0.058321958764132334,-0.0954717383234253,0.36512402555087814,65.61998640409347,95.91861335326328,95.18763736164846,99.55766830247354
3440,0.01177427293681248,-0.15910878157968295,0.437931648303905,68.21611846385028,89.00324090811701,74.99865987403905,99.54001695751846
3460,-0.057414908067593834,-0.03582418311189902,0.4409483418984333,78.39676126266173,91.23705045551199,66.51465883687094,99.53958476789252
3480,-0.14103365095082568,-0.029889423497481152,0.3883820577663336,76.9618311665625,90.113861525875,93.09693150620119,99.56283099604485
3500,-0.05383180831684951,-0.004738035325110901,0.23174987810476938,87.09364476550974,89.06670239110706,85.38988929130157,99.57632307694769
3520,-0.013258069191812586,-0.0787126655933744,0.2995184322340755,85.92465407668867,70.92893549618208,84.9456068670995,99.55239694683164
3540,-0.021069175010372396,0.023556805304546548,0.32237574983142353,96.09692003825953,61.598387801930755,76.90398403269997,99.55639669405566
3560,0.07133412324646421,0.046066629639824906,0.39835276796472135,77.90321321504554,90.94598207833712,80.74923211283912,99.5259982153631
3580,-0.025065135445079448,-0.0033298674124956733,0.29693065033365657,76.99794728209952,77.46142215365344,75.6111434262566,99.52379813836441
3600,0.08934748518973094,-0.055928686923138786,0.40588844412346814,86.00485334137241,96.85928099626157,57.108469660875734,99.5322500544154
3620,-0.01617509647929615,-0.07126407018540709,0.2726944239939019,87.25630672956015,80.26894276613714,98.93042315467575,99.57036552562747
3640,0.02093955099944084,-0.0038221073923987523,0.33841697785972763,80.1059426320167,64.10179300481519,75.94627175974048,99.56366777083768
3660,0.008908421643699023,0.02660590289332006,0.3741178363719293,81.24093069322328,78.06426750789733,66.86768888859764,99.5829173746022
3680,-0.057142858275684806,0.03497644465041646,0.3885230840041295,77.38404222480239,105.00497438632948,97.82711899811738,99.5661271296058
3700,-0.038962830969305584,-0.025641621014059413,0.4245689758230422,77.71743582865119,94.24791735957888,84.37028359694163,99.54080818742132
3720,-0.0441313126828816,0.11052490289696555,0.32659959615552114,75.31829873724686,91.40077426761788,54.45454119745905,99.53791135472882
3740,0.03509347936539043,-0.01094241230990893,0.35411865989502106,91.76985105336145,60.50668626191049,78.2308570310025,99.52822441843372
3760,-0.07441419717034721,0.016933146835548942,0.39157279936320266,85.88884276825492,89.24577858690874,98.93156297326446,99.57231868155077
3780,0.08205305203144722,0.017420792599190132,0.42829747163354764,112.49315443540219,71.79670133990409,58.03694962081073,99.55447273304097
3800,0.00860654050141926,-0.032473573091756254,0.3363839069790502,79.75520313474523,72.49702171141043,77.13723280167818,99.56795213346183
3820,-0.004869361435313881,0.054987183571964596,0.3256110573036523,106.62254520958462,73.61280005011818,59.26584489630629,99.51976893093419
3840,0.04480212823774617,0.021248299186042447,0.3096823767798004,82.55264969041043,63.87780705702952,79.38707528665185,99.53149740827988
3860,0.036926025166794614,0.008459397870423184,0.2688933963703102,101.20441014606624,89.86615780752638,66.08482253434774,99.55869794036116
3880,0.011051165877081874,0.040797871878121686,0.38362193465471456,79.34977434655343,97.55898986335515,67.75186870739917,99.5437519901511
3900,0.0036665538407592447,-0.03362082561448394,0.2453845091374127,94.52494524137849,88.41923696738542,75.88952976444178,99.56954970601792
3920,0.046010795989908,0.03143603699380152,0.42620609031831164,89.86320365559658,68.55040246529947,90.77148546776911,99.53060765344276
3940,-0.0845656246213322,-0.024539499169927686,0.33300196520727726,85.54301301484118,98.84447519191401,68.0029923244071,99.55597319893232
3960,0.011326092827251479,-0.03505065845525442,0.26344317506787807,77.76205413122864,83.28779410307907,70.05054479727531,99.56659455808521
3980,0.001035624206755078,-0.11308006183415165,0.4469704365988353,93.79706511412735,73.28263189573318,70.45123328598895,99.52463358627097
4000,0.016991843444653515,-0.0047632629801785085,0.3001621125365011,97.5533027718467,82.9387262486119,94.69429179961564,99.57313368094748
4019,0.039843595248355304,-0.04062375994410859,0.43511529782051583,64.69360979706525,76.86837721712614,82.8861411640015,99.5367001278096
4040,-0.007123129549207111,0.008013646270735543,0.3643004992826275,60.3355634514931,63.86307075509467,77.0064399502697,99.55956364419131
4059,-0.005537048201689134,-0.05401167985763843,0.4015812777255483,91.30630002483572,83.54874907746836,68.21146889696647,99.51365459458623
4080,0.0019155725035117713,-0.04378021628041289,0.3201514606143818,78.50214626368614,82.08414366780963,68.00161220189379,99.50761237957852
4100,0.04932594887954153,-0.03187221821062574,0.3313998315576931,61.733122762785285,77.30101143168422,91.97336457563273,99.53764948421136
4120,-0.027048619850586503,-0.01523253780515676,0.39002318658817786,94.7951878454091,76.42626842889854,80.62687132804561,99.53618655101977
4140,0.04685548300437492,0.023984832754677107,0.3397551967681542,77.55503977094132,67.61729442604639,72.41269959147156,99.52521300542921
4160,0.021605640323650675,-0.017779133393547513,0.427396475284067,79.08816210852723,64.68673724575402,89.42986187035166,99.52750471849873
4180,0.038533175533925795,-0.03643898097884704,0.2593172243728018,57.836959475413686,58.024920902973804,95.59139813399982,99.52694490100575
4200,0.02800990574105592,-0.01858408274052301,0.31347603717617095,67.54458323774917,103.85106192655985,100.50173230747912,99.50587268976683
4220,-0.05322419287647983,-0.12821344590942993,0.32826753929352476,72.89613696282242,105.36741985022758,83.9318404947957,99.53767879480787
4240,-0.06931107380922201,-0.0576452063811299,0.4078254302351332,98.97439234349257,75.9738254341053,73.92552298232732,99.55644114772376
4260,0.013353857048799628,-0.014369099827395133,0.34383909879574515,95.56488365954407,75.80937538671805,63.1796351347418,99.59139550864353
4280,0.005363196897866151,0.0056006345681077945,0.27468235324665813,84.56546437913696,72.60794104790422,75.86361324821357,99.57771659342228
4300,0.041099552203735706,0.022317457748644104,0.2056247009865938,77.12842091427072,76.71755732166872,81.68178236502706,99.57898335036047
4320,-0.02434100208999793,0.0307578725993813,0.45831113688729,69.13788584711278,76.56357714281673,72.12223978502898,99.54491351354785
4340,0.009998135320323884,0.00590238496037157,0.40062534254671506,88.07615868977344,76.64635334802391,97.04225491471878,99.56788922496203
4360,0.038370622741773365,0.006064376606693701,0.5032645925873759,88.2960143337461,99.41002042798624,83.19768051021202,99.57363283318128
4380,-0.09470363350565053,0.03660083199353654,0.3420234394550326,58.178801635887915,101.14579299557347,73.3979870398123,99.56175535760316
4400,-0.07702489200263962,-0.004599883319123805,0.3080524952090956,61.78497946824253,90.79242497723854,74.48627256479107,99.5232294228008
4420,-0.03869315276176545,0.053030517346716766,0.3711572860747648,87.67263224500766,83.92014438412184,88.20352665405449,99.54459368480438
4440,0.018921784416386114,-0.018306266949239876,0.35599515641827234,56.90181861273807,71.89177087751372,64.43361999427997,99.56533127918716
4460,0.03163418719769375,0.029879697941151168,0.3569314109478034,72.16223922929655,90.33681310960104,60.62485100160444,99.55903319482705
4480,-0.05766485968848593,0.02601981172937409,0.3785825797578409,87.25180825835875,81.7027844447956,77.38360411792479,99.57391257478079
4500,0.08053361553070666,-0.058885942052711464,0.3458831400643992,100.6106513710941,80.293889951764,90.81269046325738,99.54895461957022
4520,0.016966431712064363,-0.005153130492471349,0.42728753420238985,67.8075803830539,71.54765633633127,67.03585703916215,99.5832587607834
4540,0.003931759381014491,-0.058257263615299704,0.348145644731842,78.46988818723386,66.3623721753756,64.69515604864546,99.54780997746698
4560,-0.02126225810159695,0.005620927816787935,0.32408749324296626,84.19981101275086,82.43834054291352,65.06919611117249,99.5175593671318
4580,0.008772761002969037,0.029151138399148204,0.2977008517595638,77.38666699937838,77.43435871145168,65.6836619098035,99.52577498386421
4600,0.031351044789441666,-0.023052581601697476,0.44257264810709895,97.80685845906768,81.14181658667134,75.92219293666663,99.54094266053434
4620,0.06307172506337747,-0.0018675154479087395,0.4377578973883448,62.9429232256331,102.82949386515484,60.5194054549242,99.54610620367356
4640,-0.006551539015790364,-0.0065226433874921086,0.3117543540785197,80.1773638536064,96.2708710065616,79.3635498378174,99.56112477316226
4660,-0.01247725444306082,0.013432350733509239,0.4317656278010518,66.21700789543914,83.13725278816582,56.591931273183704,99.55606212253785
4680,0.002999713892858597,-0.01574044602358336,0.31641151152148433,79.71154036442559,75.18300195421943,78.54196846058925,99.55254147133
4700,-0.029736829978714713,-0.02459019010197259,0.30830230790368346,62.52258763263407,76.90970662997147,77.19467536230928,99.53072608477648
4720,0.07203579761350241,0.06592688483574703,0.3919308717610368,84.709278609606,94.97246726603908,93.46333778999893,99.54857845137147
4740,-0.04839650445181305,-0.024110783755435586,0.3446468753682291,54.87731683904346,78.47747857389399,84.45453836280197,99.51786553205615
4760,0.012555182063734602,-0.03067163207992407,0.3994019115834891,78.12509350274246,77.48741522363868,81.35986974747011,99.54713313740972
4780,0.0009175938195544278,0.07415355648508154,0.3814554558884886,76.57822754056757,80.79691284090326,80.59668839160014,99.56365831318821
4800,-0.02180199664472525,0.021831149806726926,0.3402163092367659,79.1514505627014,87.3902997951193,74.32346046654203,99.5725441516483
4820,0.004412504650373826,0.04255000452230928,0.3369478536434769,96.1722828451296,70.43012887243928,77.07679775782661,99.52457723460454
4840,0.0583880501367707,-0.026295932379346878,0.3687143304123794,53.40740074845804,59.25058011986347,62.46713559017467,99.53134866328809
4860,-0.02309439378894292,-0.12311725027216194,0.29861106809806726,76.47665130624085,88.64673292874336,82.71451554862801,99.54282999700857
4880,0.00480536969829717,0.045919108566774836,0.3007538066669226,73.78238988528904,80.30367999015185,65.46443521653967,99.58084554041545
4900,-0.047206574543938666,0.07791353073390304,0.20117746733909422,67.4113805615324,80.496320910436,80.38594621282157,99.58450689119356
4920,0.0042307951105075015,-0.10977924579173196,0.2664827113100649,78.77494223477036,73.19109477396277,90.59086195135585,99.53319587613174
4940,0.0520426989050172,-0.025085347894868427,0.22234928147442864,79.82262545700587,78.18544636919152,85.74736666892899,99.59091066343942
4960,-0.004764345261201425,-0.023461078693998952,0.26600122305872764,62.1587847458372,81.11636379059861,94.53586517805657,99.53532044988609
4980,0.027792441601629456,-0.04256927433421534,0.27710950211020857,76.59908828556318,81.7203605671154,83.99763041743634,99.54305374828543
5000,-0.06954029865944768,0.038585496168743905,0.33412340978687594,66.92855505938005,78.62856769836574,72.61101375407712,99.54908009622956
5020,-0.014060029898963045,0.007216672234045635,0.30015371863265145,91.35965920318056,79.77616757245356,75.01894363076208,99.55373333813158
5040,-0.021953896029364733,0.08233394701118851,0.3128042703622822,83.75980321831526,104.4395972588083,80.31525774342398,99.5982276691563
5060,0.08637805809533063,-0.04639479925459625,0.29625449181998065,79.0116040970936,75.8822578024154,88.04892822470889,99.52349506653515
5080,-0.089783831576671,0.010926783465655388,0.3966570554236508,71.49442753431,70.68714869983201,83.04961292092021,99.56573564942659
5100,-0.07094596800858874,-0.037647753257544894,0.2593218613686715,87.92119223987713,84.96615405773156,66.05101136931668,99.55227885137033
5120,0.009695442765748668,0.1004662853704139,0.403255968748201,85.13731733750821,83.52799691206094,112.81567006569557,99.55003905484423
5140,-0.06540639025421656,0.007869917978564787,0.351454948263599,81.18495289443196,86.45859105349484,80.48256269028128,99.53037282209537
5160,0.0969380173437544,-0.03613321775050524,0.43402511074092454,76.58195722234915,79.48707765624584,79.1511258450505,99.55619838596371
5180,-0.05700831358034088,-0.08485308882670607,0.29107892603508784,82.67186544893723,59.86301621206785,81.4261115904845,99.5575270926897
5200,-0.05372624158436338,0.023457274207365267,0.31655678294473305,92.59316872084841,74.30418109583914,70.21614950785488,99.52896213883969
5220,-0.09798337057061811,-0.0734986861229012,0.37316090822572023,93.73549736227507,71.98649194199731,61.75074640368197,99.58324057905395
5240,-0.0032370813299453273,0.057136319032591025,0.2948981401608217,73.35991859994523,89.73944017246636,90.75072683685457,99.54530485389746
5260,-0.006982363989349209,-0.050404015052978195,0.28045873483865136,71.3140726470829,76.24131108906306,78.88822484219575,99.56209301928104
5280,0.05116885135481502,-0.035466030150743934,0.29171507803871166,82.89872761465304,73.86839431498662,58.529625137463,99.5509231344644
5300,-0.08069168336865641,0.008206621918741391,0.46671073950682634,95.2329670117972,65.97851859744986,90.96644579577811,99.55174750429038
5320,-0.10623359364830642,0.04022440583901527,0.4231609738570295,69.37863623160838,74.60352228685156,104.18690093763996,99.5804030201114
5340,0.09535260898912334,0.03237049622169715,0.3683506905092157,86.33373773474382,67.21793546504598,82.086979803678,99.55667070117566
5360,0.11773603885601969,0.00897037289266034,0.3636565955888298,98.91425695108836,63.4686357776048,69.5716651059152,99.56291237918202
5380,-0.09179547277262534,0.00912254684247467,0.3684501556234001,95.15599459063185,102.10213990628843,66.44583361185865,99.55148415552024
5400,-0.015501979742869413,0.05609097004894438,0.39330119833855726,70.30138640521717,79.0005390645468,91.95273311064216,99.53592293879692
5420,-0.018526046608361806,-0.02378792950355081,0.27510416722959985,66.7552239108499,94.5391427711983,89.3712426554376,99.55478308122115
5440,0.022789378534113947,0.06404959829652478,0.4874138676514004,80.36911209528168,68.27991536646574,72.58245944017128,99.52929672990399
5460,0.018967058010573048,-0.04887571200130689,0.3085874032091572,77.33788246618597,98.75897321058255,80.79928081191134,99.55866913144848
5480,-0.08558808371036489,0.04015283818777307,0.3292768378858679,94.26834274799066,83.23988743240197,88.95901327186586,99.54444988069272
5500,-0.06371267293986056,-0.04666968577157629,0.32679438387146564,72.64336951555146,96.43911275586744,71.16557329431751,99.502551481795
5520,-0.016301918257287214,0.02799917604724116,0.2750195438694555,95.11575779237525,75.45860740861986,66.13441968028997,99.55064974783731
5540,-0.0101771692086252,0.057276927588237395,0.4037751973214744,101.3815242521654,81.33716267978397,84.32398308593696,99.55831649173817
5560,0.007202997862842373,0.0013738513607405077,0.4329129241733194,97.35985424963083,75.01371101443664,100.8498115607164,99.53806606179727
5580,0.0012826458531985819,-0.052804529802728845,0.28170498305674363,75.85700011477698,82.49902486154232,91.70545855865696,99.54501729772787
5600,0.0021555189830837792,0.06313894573514038,0.40146721840516825,69.91856240812791,86.03665848131399,79.46599965517866,99.53752909044461
5620,0.10174093805344185,0.02022579743640827,0.34796724656054107,86.82642099629949,71.54599541895101,80.39764380580257,99.51828076740783
5640,0.048079822208095264,-0.04002406824344922,0.31295896005441987,75.59050006813678,80.88810353672918,75.26333388152489,99.56794594069716
5660,-0.033267247532486076,0.04068087690928475,0.3556246779963554,68.10608478585816,79.99103609390198,62.83875376786891,99.58019104676393
5680,-0.03790491824089826,-0.01781523435284639,0.40214924767907667,94.40304855077237,86.77351334349005,85.16836637971161,99.5253201843295
5700,0.0328485373474027,-0.012302121701808826,0.35026180909719745,96.86681612833064,78.1118199415089,78.36043438328615,99.57831277199483
5720,-0.01762228026706408,0.01025171097635846,0.35891257796283427,77.59583948516023,78.23157560922799,76.35682710132083,99.56250797471313
5740,0.06639332998667923,0.03997558599001667,0.38972074519120814,97.30110280652082,89.09788282784626,64.6250159589651,99.53601774544508
5760,-0.06674446142845634,-0.020937798187583897,0.2622439995667186,63.36145799551343,86.1496357757358,85.80386141818116,99.52988483950693
5780,-0.014664431826691868,-0.032513454636951704,0.4225048551046795,74.81204484927817,69.48268135317515,84.03642663220077,99.557358591605
5800,-0.08510241730703905,-0.04625100879385263,0.3454481222732228,96.8379152674852,64.45593572791304,76.21878547305995,99.56736512176226
5820,-0.09932260319657256,-0.017104762144839532,0.34128028163134844,80.17828663377345,90.64897794212894,94.58855743393842,99.55233758759616
5840,-0.054015899678701455,0.00028351396844717233,0.3815112567196955,72.40247054644668,82.21591188087822,75.09894457083625,99.56584748759148
5860,-0.08725640539234213,-0.019868003635262987,0.3604405266202854,91.07639745025614,107.8330344783163,92.185457729818,99.51762497933237
5880,0.039945068505404364,0.042380081456728676,0.3566460952940992,68.76364284558696,92.78207487554296,83.79864244085265,99.56862767536833
5900,-0.013790952782071745,-0.003971149310629165,0.34836776057331637,66.06881090647832,69.20549270368699,69.55598667701007,99.54825010417647
5920,0.015608135000016014,-0.06632745710983393,0.3805782485930634,86.41760397577411,98.55098862694074,65.92424003176914,99.56338279326431
5940,-0.01788660434886417,0.041445346968114645,0.41493522029639207,89.1202235525101,85.85129789325073,106.40147856625065,99.57816444333072
5960,-0.02693819217857298,-0.05444229433640008,0.41397024190943715,80.46200873657557,79.8296902595142,95.15939096155809,99.52102430584813
5980,-0.028631264402810663,0.05778852175676195,0.30780009351570087,79.32014639982155,60.928190552587346,83.24114456778739,99.53850686683975
6000,0.022501135084140214,0.008516138196850374,0.25781449282942115,79.02453697384288,63.524706699941696,83.71173157659081,99.56503558674092
6020,-0.03844479587377908,0.0529733070248724,0.3709103438385423,61.40086867547807,74.75936636112249,70.13216551688168,99.55221515828035
6040,-0.004149116638897693,-0.008491827598573516,0.33947953739727194,67.91404842424113,76.80523184897959,98.86296863802565,99.5537115911775
6060,-0.0502582882567319,0.029890402427814256,0.28070162267778365,70.65484837983489,75.07362549619575,77.805498684845,99.52748425292043
6080,0.03403465830103937,0.04404626675630002,0.37716775771558275,90.77028338115466,97.3341388821056,82.04570761979046,99.53157052031632
6100,-0.05480541921782594,0.004177729406666999,0.30256228819936437,63.77151388030841,59.088197303656855,61.01483540260036,99.5187198028747
6120,-0.02339976720654731,-0.008064378702544684,0.320917350919495,95.92787430076554,73.38126089995163,68.93067089347497,99.57359623438181
6140,-0.021391443108904434,0.05247813179334282,0.36554891863132905,93.78920252750427,92.49267710540335,76.16083122283092,99.53277074903974
6160,-0.04250537935862331,-0.025550809748774873,0.3502213766119164,65.86232214237627,89.80431154393429,71.419972662907,99.53920905805984
6180,0.017074696128557026,-0.0022995442070305903,0.3734180752774531,83.92109547132188,70.29259057604165,91.85987395358126,99.551232785133
6200,0.052043649704900455,-0.00797581845574549,0.33938115920460005,80.7676937109863,74.76211642025677,87.72859998359057,99.53785641635025
6220,-0.009689051474868171,-0.0838042231303838,0.2642559389410031,105.53355018083909,61.94819480472761,73.49029950253804,99.51460170528031
6240,-0.030949570354439532,0.034219068622691126,0.4036983030215653,57.566007374782714,76.25762006163683,83.69930257348311,99.59480078951452
6260,0.056814907138051464,-0.0401609547327424,0.31224496754726544,71.01077921851335,83.43585931154882,71.33856332611838,99.54598633545798
6280,0.0016627012988049564,0.08045022761756586,0.3896869744598005,98.14969879258693,93.89138113463139,93.85766777879465,99.53147883688395
6300,-0.07726798703670526,0.042915996061703085,0.21978429198354663,81.33980596915508,77.63690652144248,93.44100523891134,99.54524812751238
6320,-0.010147718781925797,0.008396896332975442,0.37382549302499146,83.13309400372775,87.18685211489536,88.0757566168895,99.54578964326649
6340,0.03328709134508652,-0.05769816911671384,0.318888483567746,71.27551381198163,72.95702217965281,93.7766115086795,99.54950021500794
6360,0.04253004455795061,0.07629474952952878,0.2793057500124168,73.90221911241508,84.17236234115732,80.00753946584683,99.54635648713378
6380,-0.03685867149379985,0.02068040676389684,0.33748737747179147,77.15615511477147,66.50369222222206,75.9230652917317,99.58484220557987
6400,0.09765321592462212,-0.12712627220994838,0.28483550897570703,79.71042728426254,65.64535327544064,86.45625378014606,99.51358281337366
6420,0.010765192971251277,0.002103836301676281,0.336275843260811,67.60900565595486,57.69725995094016,63.26418052392636,99.51370963143577
6440,0.016742792379148417,0.030879721332502733,0.33662973190763934,72.118566998065,64.53518530603426,68.80384287242723,99.5489396247102
6460,0.027817744230847947,0.04147108545694012,0.3697178697858471,78.38623655901999,85.49265146117288,104.03673599998427,99.54575412976524
6480,0.07755877805469802,0.05881886118546931,0.385273202324956,88.6537959406876,84.74016079226189,92.59877640785228,99.55404463697317
6500,0.007754608907978604,0.0672294171121242,0.3624332114418312,68.39310988384177,94.29653155416122,73.66785645099543,99.50059175069309
6520,0.03981641696875118,-0.05421486813927017,0.3682104711829544,53.9181642490838,80.96477632972073,63.357652193608544,99.56759333712331
6540,0.06374664537984992,-0.08884079137933726,0.30155046875102454,85.14945627212848,50.56584125617616,65.45732621283665,99.51882551123646
6560,0.008865658320860514,-0.06481389284717713,0.39136812970522733,68.93959005584738,68.1206446127542,77.6226422627428,99.51709066938507
6580,0.017867904858163964,0.07647913307679893,0.3592367443200884,90.76139847566691,80.87488589883442,72.75067780633829,99.56963391489116
6600,0.04873711738280862,0.060961477173513495,0.3955568028683844,92.02275070531302,81.28787187870375,74.9589771999096,99.52137006496314
6620,-0.04537445124359453,0.07059128846387668,0.2945428222829613,51.73200938399622,99.74523992982311,61.57058568947202,99.52717508644689
6640,-0.05960710190788696,-0.01011278737476662,0.3571824655060242,68.89887482669995,74.88611588868774,96.42056115153136,99.56971301679991
6660,0.017734352739251,0.027564852023757358,0.3576772393427254,75.16026739756606,64.8747441092036,101.75766941331486,99.58612986570589
6680,-0.052643097200754954,0.035441353962051884,0.4591607561225273,68.52333034499384,77.57173058785374,69.34899629853426,99.53930244766117
6700,0.011439504953200617,-0.0930204118407727,0.31459598133935746,54.62761318076665,88.33485379756254,74.6448940037292,99.54862247843317
6720,0.0576060695868069,0.00412824054096781,0.3779432783116783,73.03987685118982,78.12124525813182,103.91334417344191,99.52619649450142
6740,0.030743962802991368,-0.015366344619278525,0.39475111187731815,66.23439605673761,92.32666361469276,87.34976170290636,99.53988554670111
6760,0.024204835091963507,0.006108791783783714,0.28810481452170555,79.1269165610399,75.10247815095289,79.05104767856605,99.55233558552831
6780,0.059011559511772387,-0.05095519840099142,0.3508344157391101,67.49226496400496,64.73886847727746,74.06058133588525,99.5426222260491
6800,0.02867185979285184,0.0321826364770992,0.40408673538556,91.20918388622995,83.46516590203662,71.23540315200096,99.52382269972527
6820,0.013228766850238417,-0.029192609210316273,0.3202156661989543,75.07156795283339,72.72752855481372,101.5089424877608,99.48743130153215
6840,-0.019028147491630575,0.0017344396284440914,0.3591597082553499,85.86592564997665,107.00986189502274,87.72183730352435,99.55364566571879
6860,-0.046946932782106154,2.7307009870733274e-05,0.25973173656704673,57.119708766509575,99.09040772864483,78.80830276602487,99.54867819140597
6880,0.013711788690367904,0.0399047183148855,0.35078595927775436,70.18863811856198,84.85657904305465,95.27625546120358,99.57759243836895
6900,0.005279910452549035,0.038743410491898625,0.38510614092887197,71.94831716728494,69.96608151070822,84.04766345897075,99.51078623884646
6920,-0.027385741643765085,0.06304872358011163,0.3910250397363596,74.61399855829875,59.056052780836936,70.41989897185715,99.55021022908034
6940,0.0678809151797035,0.04596353565299663,0.3066159885751484,73.25137960161825,60.65087826720399,68.3808674694531,99.5761441552247
6960,-0.08694115282910558,-0.04070525332408544,0.3830440901742801,53.862719272163574,53.41186280937275,82.56406370852731,99.54066989889657
6980,-0.00932361308716766,-0.040477999748308874,0.38871184401267367,82.92712268562933,53.479979601252865,70.42596430631913,99.53405625447513
7000,0.03219909083489366,0.05390474949304716,0.28840931766887423,67.38496235572171,86.34370173696573,73.21821472622153,99.56227734812023
7020,0.045740736003980466,0.02067598611929721,0.30291375498380735,75.82056624152119,96.25571538267599,97.01115485444656,99.55102654871509
7040,-0.07323997710116863,0.013129704446371427,0.318557926594987,65.15179605702804,53.89804998972772,91.07037414676148,99.5192393068559
7060,-0.006771955848120039,0.009300838072251568,0.3682226114509949,72.51390204748597,75.46885041771533,60.26794337858635,99.56917935841783
7080,-0.0010709473077871194,-0.02317055680585798,0.44231003277534864,89.6318404315827,87.20919053663434,76.37944255295164,99.57794136254057
7100,0.008231744643927534,-0.028077133460274562,0.4553398962846925,86.22814782184506,78.32109694147894,80.04227998287514,99.55672243586692
7120,-0.07168408725154045,0.05931235866134781,0.2825969025402182,57.36179919358063,72.97361603075655,96.16597438290327,99.54944390939623
7140,-0.1444898986851491,0.03937926241365011,0.42710812453924357,84.58659084691507,89.73459571470994,81.46793909427772,99.5499088830481
7160,0.03820357618548301,0.06485350271911049,0.31319042389495183,82.46666375568829,75.18955577823019,73.77801276647897,99.55689640008707
7180,0.02066006176410217,-0.034044876487673376,0.3193959737827283,84.68514541192748,87.0544386828548,55.145087388240675,99.53415985540288
7200,0.030267623947784546,-0.024618019896186796,0.375166042608139,77.66388040281363,65.53753222878606,64.99410541180883,99.58109362161751
7220,-0.03856595616984626,-0.019359192400739196,0.33078945709631336,71.22058977077548,83.72083775619274,60.47878215530433,99.56469359726167
7240,0.05262226637803337,-0.06891241441009138,0.33177056088977536,62.707610728746374,106.99401800128656,76.85279069717947,99.54185373454408
7260,-0.041398741785262934,0.038178385384613114,0.33141126338047333,80.72683433025536,86.32975347405852,92.27076139837538,99.53067754949109
7280,-0.0007997000172021928,-0.002998713599629977,0.29725101543742005,78.3810589728636,74.3995455491993,70.8643862777555,99.54836616627476
7300,-0.06794140673333005,0.062115074978706955,0.31691597629263163,84.30765234841495,92.52518908721886,71.90413560314576,99.52993734526267
7320,0.02183389496828667,0.07037597561835815,0.421458727872712,82.34907692567872,97.6387163955365,59.8613743283391,99.52766751960587
7340,-0.0480318778768878,-0.11375197186842345,0.33619726212895945,62.27177107473064,73.7353963938726,86.00760225194095,99.54587068598468
7360,-0.03580856630860501,0.02728444074635694,0.36323987702498345,85.44282164564191,97.2797607917629,90.03703815863204,99.54709466831977
7380,0.007261453094776918,0.09298286728131638,0.44313000919298257,90.34397715251941,54.00851537740859,73.37691838643252,99.53232778430494
7400,-0.031614271153434306,0.013361433775316421,0.44166054584964226,77.7943467291507,74.19249711264716,92.774452022948,99.56145009819632
7420,-0.03805633887973374,0.009966169709552294,0.3931531243178067,74.67458241021556,69.22395597540707,70.82891471189801,99.51858381607317
7440,0.041279966620744096,-0.040960232594948395,0.3862728944775515,76.72873387076388,70.22344087525678,78.27602539177018,99.54477432231945
7460,-0.05236896416835812,-0.06223013436716468,0.293378589791637,72.19725960576942,87.91982843647602,96.03232642166208,99.54281616558173
7480,-0.10096982294602341,-0.0131352765654046,0.21302514736660644,58.56750884558299,69.19861177111949,75.13718827382992,99.56260691061391
7500,0.008487832064554456,-0.06009855610972679,0.3525287401584834,77.40195377595488,89.02212329369408,81.61025137692675,99.52910773144407
7520,-0.014344507735206484,0.13968404566349193,0.30148529356999765,102.5986107859335,86.13364934644189,92.41229026010464,99.56352660901403
7540,0.03757904242883217,-0.09096608476502525,0.31003902678834855,94.17379845028097,75.6208617867141,71.0093097112769,99.53850655537462
7560,-0.021369672486382083,-0.04578953377017719,0.3490432018622281,78.13949417044306,75.40897274041363,74.51465427679854,99.55269035315565
7580,0.09559261715167912,0.01882736569096268,0.24465994990154022,74.95579823100478,107.41042514092835,92.67111661810247,99.54680829572489
7600,0.09216213841755634,-0.05637938932208084,0.4122868525383262,72.54661588313476,84.10107390558011,71.77230967477853,99.53767504599416
7620,-0.009856740403329622,0.027108090363448873,0.32892933202576713,63.57485730068827,68.34568088525182,99.05780412311658,99.5241360004141
7640,0.0013423266583682172,0.047776598384114764,0.3948538936564724,82.98465154256152,85.72262996257764,86.0784727322911,99.55530506887405
7660,0.1137537190446188,0.0779990466454564,0.3444468090008033,69.1071658463983,59.648162695846736,72.028728119203,99.53877376109251
7680,-0.10215715459742643,-0.03349476736994577,0.3051816575169438,85.22617124571723,81.11123657740693,87.20431305160312,99.53636164975309
7700,0.06525818915005697,-0.016459370663856464,0.2942629373859209,91.43982902726601,85.7353446923407,68.15603329885252,99.54967144001043
7720,-0.022993725134964792,0.007354886218757473,0.30797509644547816,99.4973732673776,94.12631265086159,84.97177751067673,99.56220581836052
7740,0.06632206779438432,-0.0904427051134311,0.31916073354809327,80.51792349436954,92.75071639689708,71.36295377209507,99.5603909485818
7760,0.045402453420342895,-0.005071305424450695,0.3489230179889082,72.53651647191785,70.00070669899867,83.74520237118291,99.5769468569588
7780,0.12742979742812352,-0.04485771281838287,0.32889219633570765,75.93139715681129,78.94281155017624,90.65144648638386,99.55531312471696
7800,0.032042755302668445,-0.019374285711540554,0.40561825536153995,84.95045668298003,87.37950858927381,93.13975446114253,99.56485345112452
7820,0.03700443029378896,-0.04891665916888904,0.44570791787148584,77.82419757981415,72.3794420389723,77.3223416338181,99.5704610345058
7840,-0.1005345454622078,-0.016077239801333507,0.45854211472226736,79.4856799870956,82.73972890771553,68.83577707876779,99.56475356614527
7860,-0.023202495452471335,0.019672002481475645,0.3098675388829307,77.71892670889183,67.23237299513967,78.82939560943854,99.5389659714356
7880,0.022018744978825954,0.08222364866407014,0.3775174194371769,93.35406110335624,70.95986886764857,71.34131406346812,99.55507018264406
7900,-0.0018891755880582476,-0.0533618024294594,0.3587116736767357,68.06058275865061,76.71727663267635,86.3822635550795,99.55764299593714
7920,0.004554762045570851,0.09758363570915629,0.32056606014480515,79.95339696534501,88.30596392447097,78.3479305483148,99.52642121335181
7940,0.0292509766144137,-0.02786672480136626,0.34624759016935797,58.81528636707033,83.65652985527893,80.274965084213,99.55384257203305
7960,-0.048183393410897016,0.032426689634008146,0.32689991739420254,74.43207399562814,75.80185718121295,70.57297308888232,99.53621990578876
7980,0.032527527792780724,0.014273188852549266,0.3239110231619927,66.4976429296226,95.56307534715614,70.32204190272222,99.55477773876534
