timestamp_ms,acc_x,acc_y,acc_z,gyro_x,gyro_y,gyro_z,baro_m
0,0.02305993576201565,-0.05198427903399642,1.027991820945301,-4.871362565426736,-1.4987650557217223,19.181859317128087,99.9533564482187
20,0.05761985982459137,-0.02751785593413668,0.9926877514011976,-28.40934098491957,-30.55179742079013,6.430637079852325,99.99890685133873
40,-0.001616014108097377,-0.023887482742618663,1.033343387207842,-18.870093289312045,0.4248753260163226,23.705637535115258,99.98499283325168
60,-0.02989246941431091,-0.08998958905672783,1.0242003222063527,-11.933801900674966,30.31242869584989,-16.188034834519733,100.0059558256023
80,-0.06027156608455249,-0.005414103906492307,0.9733420576241224,7.768267881971352,-2.997458260900137,1.5412775435792285,100.00532432235312
100,0.013667649835373736,0.09427236666960992,0.9169758187650766,-13.730376125360944,13.426747071177957,-18.713939827726694,99.98758782796068
120,0.06391985160408294,0.01967009650341783,0.9984741995015167,-1.6523020024422999,-9.815743834404953,13.001346484592498,99.98436412388173
140,0.038440879574604604,-0.07411802502745074,1.044672192559006,-14.018564140858357,3.498864692505102,-10.306943853082554,100.0246253462384
160,0.0005427695692639319,0.038506138226224396,0.9790721744379134,9.582130110305545,-6.089584387309818,22.12426967635003,100.00883199597834
180,0.07398743572976264,0.03523360040516823,0.9766521310179359,-4.0727942509284905,-4.43731219586984,31.875603226758834,99.96981775292434
200,-0.0362593042816766,0.06045932553873743,1.0041919669586858,10.314016679380455,1.5707890695512257,-4.16532942737409,100.00004140869142
220,-0.04728979774085659,-0.0024260322900324666,0.9888688911784539,0.35504767287924655,-5.790867529060116,-10.480321699525339,99.99372342079536
240,0.04907349530510006,-0.052067598714982156,1.01008875558703,-4.9491145268481755,-15.055454468801283,-0.4941878537299127,99.97342541064697
260,0.08153021148782556,0.01918486798106467,1.0806101598781006,-6.383664740130553,0.31517563370581503,-1.346305049568362,100.01421545910918
280,-0.017491290898793338,-0.0637441631767474,0.8586656637005321,5.891684137585093,8.070709603298065,-3.9858849617729044,100.00938040848388
300,-0.026362782100555412,0.0568624516376858,1.0231240171342024,4.543764330186887,-15.314802821080455,-30.029524917222318,100.0277745169373
320,0.03147909836049832,-0.04555217381761254,1.0152562728177537,-7.936414869654028,-11.26588692094278,-4.543702237885081,99.95643264685197
340,0.08355198478659016,-0.005346537419006043,1.0059835848860392,-5.91062467540674,-19.72765550827134,-5.373876415914108,99.9941256637289
360,0.003497127830983568,-0.06622222332871634,1.0551175657497733,9.192508568690087,-14.90363491080084,-1.0432093305140309,99.98885969465844
380,-0.05668597452527807,-0.02612423752514036,1.065137779343475,-9.452119507717471,-6.525835351650029,15.645888831093377,99.99825853595006
400,0.004677847317227515,0.06305474825782922,0.9518182696820418,5.327996411129995,-0.5841701557384458,-15.874628400475991,100.00432394725803
420,0.0026805989473888303,-0.011700227622286887,0.9549734193124032,-15.873638973408825,5.714770478861319,3.757750600133334,100.01226134996674
440,0.01989334097117555,-0.06369959408859831,0.9767598930429217,-4.002779851826947,-8.420384295433546,0.16475156624942744,99.99454346252664
460,0.021146261888362272,0.06135637843510422,0.9524386305420999,12.20583718470252,7.169176831844174,10.819541030006613,99.9877314370133
480,0.002622833712884719,0.01536515620498441,0.9558193646750593,-4.663766282566735,6.368587911065237,-6.371692884166762,99.99957772776888
500,0.1554167867302284,0.05103699926971338,0.979042827459466,-17.552161077891117,-7.786106775295492,-4.236256031618604,99.99709709567594
520,-0.011409792736477182,0.002813825331483073,1.0162334548948044,-12.363430045142175,4.28527336237212,-1.0131877753878418,100.00686202643635
540,0.02719831957189798,-0.07368476375407829,1.023609838694374,-4.99450727855121,-0.5830085625910255,-12.705815552288415,100.00071433990782
560,-0.0736274683401261,-0.03308656595924719,0.9963167240459403,-19.11008303356553,10.323367835084325,-3.173625760544316,100.0202197555487
580,-0.07350174274386836,0.01883053099000634,0.9712637854937604,4.072826371233925,4.653572161797065,21.312850814781722,100.0372732865664
600,0.0029796943605345815,0.034153329481295194,0.9860918833290246,1.4376772256427697,19.865011961573284,9.500540545596248,99.9851625006184
620,0.003011433063204974,0.010087403667822799,1.0578151293214142,0.8865318017758528,13.09595183020741,5.396679126301233,99.95619671832338
640,0.026963969987497168,-0.06738512106649737,0.9948664327985084,13.169176430950763,8.677942486778122,0.26802242437464024,99.98410177804278
660,-0.02495688809964866,-0.04583584416016659,0.9805037395195079,2.102357154377054,8.987177620408202,5.455763740466862,100.01511139563279
680,-0.047385400781395956,-0.018669922663818835,1.0112576475812438,-2.1382181578702077,-12.932165533886177,2.2613276938545144,100.00388151929559
700,0.05037450120236347,0.06012767448866532,1.0190691688504812,-1.5191667368174926,4.927696221266198,-14.721685680825594,100.02402664481613
720,0.007771839620070259,-0.018840009648679972,0.9758112293716552,-2.700961754323391,-4.388231418537903,18.93877548710623,100.00566795408936
740,-0.004263385248432981,0.0820313986559978,1.100322482894295,-11.153467333320625,4.879753295504104,13.10837262760315,100.01596308438391
760,0.021977749979856385,0.040358267385773666,0.984781564001791,33.55860418427258,-22.98905545854293,3.456378821663118,100.00075815407685
780,0.027485267639225097,0.024360171306703687,0.9980470001851413,1.2389360498489057,11.549255985886703,29.09897980607701,100.01468195016349
800,-0.05002282821122685,0.02957030971868237,0.9879365260660904,20.51967742480823,-2.057852879730837,16.49083575344916,99.98607573642443
820,-0.0629111499155652,0.002958675985058727,0.8857520623063783,3.8821269878539075,17.075298289593444,2.872759953837117,99.99974141778075
840,0.034707746537004355,0.01811549585931305,0.9037609893582909,-23.20139332386255,-8.449047817628962,4.546418371876495,100.00982779505985
860,0.04894344866101607,-0.06256340495958607,0.9777076705865545,3.0224083521078313,-22.30174154006626,0.3431466501917208,99.99434900944277
880,0.08965357594739137,0.061627786861296954,0.9604183543914366,13.425872467486936,-15.64438127331933,-8.0516149220057,100.01119211881894
900,-0.05727211944921343,0.05503469147964494,1.0366560842168764,12.855871470085606,3.870857929932434,10.802233808145155,99.98399812777492
920,-0.019651964945725114,0.011996661732060553,0.9386920849009888,-14.705934375559465,-2.53155446494479,0.4163889717097423,99.96979590327336
940,0.07017152731714892,0.055109670390167835,1.0216214374187493,-3.686754617654628,17.661517830367256,-10.990787822788564,99.98982792194597
960,0.05173426661426718,-0.06900122639086394,1.0013325689480996,23.954079594612224,-11.793741475793093,-22.582510472274624,99.98857250880357
980,0.05851793904231839,-0.06403241545232323,1.0743534274830335,-7.408224667804305,-14.200789276267322,0.4176725155017229,100.041438492162
1000,0.0438043686699866,-0.026017608740965193,1.0523593548303607,-15.58881467030401,-12.084914186188605,-5.304480396237404,100.00354225807999
1020,0.018198964029448324,0.03961086524629129,1.0204333492443862,-4.505428842299793,-18.616251551297125,0.3669326275200333,99.99453481949588
1040,0.029426119418297397,-0.02119097779222229,0.9740198736554236,4.759217358372104,5.476785712555854,13.857011471323094,99.96419845624624
1060,-0.06059560892249643,0.02841639529785695,0.9495448807608715,18.17401045398523,2.5158203223748097,-3.149027707031754,100.0073810758189
1080,-0.12105017017375477,0.04894776379184265,0.9938209794143364,19.195480709343236,-1.0732197625435478,-2.2380416787720065,100.02624951530761
1100,-0.0970365660769094,0.03168659010899951,1.0384769141009083,-17.40908557262144,-7.880006647171966,-4.502124759284142,99.97022042632612
1120,0.07126688682209059,-0.01899906005395325,1.0138274643505916,-36.34800022208693,13.567946809116847,-10.413997001408706,99.97822400541821
1140,0.00010248331094207995,-0.011416957610144761,1.0204903619956018,-0.17085370521670246,-8.9944386238403,-12.131917686415289,99.98728614328354
1160,-0.002330791226615582,0.018370304381893642,1.109607222437498,6.655705390256239,-7.518143265378545,-5.205408024350295,100.01772918240964
1180,-0.06985941810325991,0.007937829673821069,1.030776163928155,-20.58919071720168,-5.702130012687386,1.2803315692280728,99.98757489451391
1200,-0.08752260131263372,-0.04175036638483559,1.0193641287464577,0.6510462756059043,12.776155337937823,19.831626175752106,100.01603498236348
1220,-0.006901772018196817,0.01215293288487189,1.004438306908696,3.008154281045761,13.268322437954959,-0.7381290887013385,99.96833363657386
1240,-0.017817913237957422,-0.002101638921319452,0.9624495075681866,-7.02793298787045,10.151943168888065,13.918144536440515,100.03109543076671
1260,0.00821280408234761,0.06715955154296419,0.9711426382237661,9.395682725028756,13.360025694478288,27.386481713680777,100.00865451051604
1280,-0.05749170769375042,-0.06325711629891054,0.9216640895112497,-17.956165944097968,5.289927537851029,5.655748295650881,100.04498679498062
1300,0.04842336161506129,0.04010824331849982,1.050617534093383,15.994118071481498,8.539748386700536,3.8184310428102988,100.00448307969052
1320,-0.00262900363462316,0.06998832894026046,1.0108574241955783,4.60260502822834,19.785232480918218,-11.412772245235812,99.9955228686818
1340,-0.0319781360221415,-0.024069766609725835,1.086464405427814,-0.8651571664310033,10.194679272438144,-3.714334725964591,99.99900980672378
1360,0.04667701795107537,0.06674775693248583,0.9634064057905498,-11.383975450374233,6.290931333970775,0.19544683978504407,100.01426821995862
1380,0.04865767500414426,-0.0037194822134508036,1.0082083915910551,2.157366525429394,-2.387128905524871,-12.59183324796371,100.01966855776976
1400,0.0022302599505688307,-0.029063498151475454,0.9489296020898335,-2.4987912953425613,12.436419309934674,-9.246810014747297,99.98764276205647
1420,0.0008982977766904386,-0.012028408094266618,1.0010168727310507,14.015648449094469,-16.323442611383253,4.111669460377817,100.04005125206588
1440,-0.04550004589863784,-0.028665888571217768,1.053877958901888,0.47750123460817784,15.11150538047304,-11.192205617280909,99.97342854091298
1460,-0.06372611479166683,-0.021651496585677752,1.0445801053728179,23.552999590332384,-1.2431750671391453,17.110254218445256,100.017612054619
1480,-0.015958632949661333,0.04288406788847401,1.028746061869021,39.77482526258656,5.698941424813555,5.00819049466858,99.97730250033418
1500,0.0031109783138615395,-0.001475893167857252,1.0589623924225837,-3.275996294979273,9.2298548105764,24.124900120897003,99.97091023605745
1520,-0.046229495918394106,0.02229952348860561,1.0619444363938555,17.06720839606551,0.8963985677494806,3.072502458762316,99.98674509401016
1540,-0.014331869122904135,0.003645133722021517,1.0609910008625385,9.99861789504373,2.4618212281603054,-15.728587307862927,99.98231074366623
1560,0.07425431100977262,-0.054437563013491855,0.9653110272659667,-9.100928429982975,1.2311838912914295,24.33419457083864,100.014030523993
1580,0.022860757966835635,-0.04270278618976719,0.9700959378120677,8.43328447070511,3.123741664052842,2.7387944874809174,99.99393407367086
1600,0.010740836886410645,-0.051450097561470176,0.9923432103014516,0.6779405006512113,-5.846843856335193,-7.768403335798633,99.98949282590839
1620,0.048449435086684034,0.1274663802564789,1.0236346736986557,-30.67416978048073,-1.1813957627674334,-7.319989553077059,99.97741151749487
1640,0.03936946701589661,0.039233637083891854,1.044051482246385,-7.2358690427661,-3.9747888420524564,3.417272860697496,99.99687139785713
1660,0.0037358541609011256,0.031431201232580266,0.9970336427471694,-31.346960099086715,3.8477386193499177,1.625219836873352,100.03278275888445
1680,-0.04030853878317686,-0.07622951378924743,0.9893405080904784,-17.361349102535044,11.266193910286379,-5.4394216080524265,100.02799871673562
1700,0.08562625411150943,-0.029542376237154496,0.9649713150830077,-0.3408188051609563,-21.972677263082563,2.316382142702847,100.00465740778253
1720,0.06515107370230716,0.04256187744745111,0.9346754765593395,-4.714504917189831,0.38651538089549164,9.869790695086966,100.001449933501
1740,-0.06550521971232319,-0.03333014627455137,0.9920695649634623,9.750017945314788,2.6404585258591595,13.715849252386082,99.99418506757638
1760,0.005722716843835342,-0.001116403839527614,1.0100425039377574,-4.410872126342169,-14.799379983296161,-15.753553334377727,99.96665180978296
1780,-0.01120663899140243,-0.0037517133038244654,0.9651778527923836,-1.227481069580108,9.833242318767727,7.287890793944301,100.01289247878766
1800,0.027333407740850187,-0.035641419898147446,1.0792582219484792,5.260289341759954,-6.707896025027666,7.6302799916417445,99.99430622941732
1820,-0.06326192643913187,0.08719442983908406,1.0019847100680768,-0.563662293006754,9.469737252413339,8.81723375036257,100.03298333794152
1840,0.10790790417719319,-0.009477608987560199,1.055269469651558,-22.10918202000945,-5.810326530747317,-8.708591500440502,100.02237939585685
1860,0.05969031407863684,0.07631151581986195,1.051231103793438,20.216889821431725,-0.4559339681485277,4.329788572791647,100.01864757931992
1880,-0.03855375004906331,-0.12441727865766246,1.0225204715682037,2.6088749728728455,-14.252133139116765,-16.152515012147727,100.01507303940019
1900,-0.10133428101383693,0.05313045329915379,1.0333070844556749,-7.471386077906898,-12.627769297778968,-14.690890692688257,100.00250190555026
1920,-0.11420101737292634,0.09240150534329283,1.0200324604222415,-6.01744192251844,-11.145005325531942,2.9674348657978773,99.96697343547872
1940,-0.006170777107508043,-0.03797818348036922,1.0594512457358496,1.5568909520623166,-8.67058705399956,29.041672618317172,99.98767614446787
1960,-0.11885904799867678,0.008496240028250527,1.0120940648038783,25.004021145552798,7.199798766898663,3.2806909534427087,100.03367224602466
1980,-0.027513058256403922,0.009571462343700944,0.9253572741994363,-0.9831375732672865,-13.580449969532204,-10.295826232458214,100.022872423848
2000,-0.007800451810947311,-0.011540527978881443,0.9778758375682642,-12.52507297957991,4.156084054056088,0.36111509581724294,100.0008308498474
2020,0.019158008521553065,-0.025514385737209384,0.9163430865631382,2.7381968973264668,4.894868994426619,-16.75286669865052,100.01465572860779
2040,-0.033765218610138086,0.05039291155656759,0.8437431868621942,6.749009416967976,4.303524327381075,2.5125992954748733,100.00465827121275
2060,-0.04354936247078017,-0.018563680438677926,0.9162802295963743,-24.778528296680815,-2.0047228235889913,-6.7359218299988255,99.98193393535405
2080,-0.09945253057683684,0.024636495811676175,1.0920093053076176,-12.139912454116246,-0.835445347112147,-8.195859196072298,99.97212288202483
2100,-0.06441996716561338,0.0297242876296958,0.9592176765458896,-7.2522974711683466,-6.491656597457391,-11.259206005988105,100.00928545951595
2120,-0.09596216018799048,-0.06512302522937564,0.9700912727095006,26.70257584389603,-0.25223048648866814,17.944569555426963,100.02952758471244
2140,-0.0002239605397210155,0.0017133363624019416,0.9399341909617502,-0.9513024066992786,-3.336057820268503,-1.9488400149673442,100.00362456757625
2160,0.07131491805034698,0.06373713464275106,1.002969540834075,-2.43489764381217,-9.361622619958549,-7.991697080219275,100.02654618647107
2180,-0.07080876654103972,-0.05862405843784401,1.0236989185763543,-7.654840118003637,10.810782942331725,11.613904520379666,100.01355990708547
2200,-0.0634671592411926,-0.03408220249764526,0.9594660393241043,3.251269474231629,12.636572605435978,-14.680558012392195,100.0085799614047
2220,-0.011953680733123168,-0.022614592423699433,0.985970923321445,9.75966938227725,34.86983289554931,-0.42067968960623064,100.02412248906558
2240,-0.014341047505955384,-0.014384890861980354,1.0965685520326065,9.10054060918763,9.85782006236988,-21.535750434254428,99.97925759876463
2260,0.10228588788837178,-0.004018322252261961,0.9855391523003847,2.7469846559179354,-12.32467239619097,-6.864910372751014,99.99347131185407
2280,0.07242020983205437,-0.007635277827362912,0.9508957767315186,14.709301182337214,-5.920773777769698,-3.222314843238612,99.9900125424702
2300,0.02086223080753587,-0.08140339590562898,0.913100585227641,9.780117180692308,-7.675221175182621,3.277938685030626,99.96915211065883
2320,-0.03487614439322217,-0.009272333451427372,0.9864675936044537,0.11936158762953697,-14.65424744704087,3.644207973294343,100.04274217911187
2340,0.10139169461045322,-0.0603924177459521,1.0679599937788455,-14.07561444934163,17.801275674772967,-9.215572651727516,99.9891960568766
2360,0.0031819746427972947,0.010534860868650502,0.9056656103210342,0.03641379050420959,-11.28715846797227,-12.957934253996704,99.96238407184644
2380,0.0009695303312104395,0.020887007934144764,1.0098277612188853,-0.1620070148611246,1.9331730235904687,-5.42586360581681,100.03379306704572
2400,0.030250538027514207,-0.08073984783853227,0.9509566723885864,11.481570366133987,-16.64250369109107,-8.000937616956524,100.00019871384892
2420,-0.0077656507408451056,-0.031630200539376506,0.9985338321622357,19.071136058646374,3.641771332382266,-11.809375090205242,100.01775048839265
2440,-0.08273914083884781,0.007163710720147112,1.0330335448871353,-0.15174573223485605,9.302195504389141,-13.129597193904424,99.9969580424169
2460,0.06135186231331921,0.03894914141091236,0.9588099786846109,14.830211244420973,0.7104088095234959,5.186580754553832,99.96592608440301
2480,-0.030562983277003103,-0.05886327423952592,1.0204454823099205,16.61598661253865,-0.4939336138036873,1.9413219756223712,100.00713449910609
2500,-0.0229680351186389,-0.009429796670044274,0.9729484513798765,10.49109054271457,-7.8946409640291595,16.0598662052315,100.00220245800979
2520,0.021501126543667304,0.10967613413462084,0.9433641467270553,-16.156406280146825,-7.5267276425305845,10.757537566266206,99.53652977247789
2540,0.0787429924826526,0.04863439181925491,0.996718188302683,12.533859119254112,0.9253179325815655,-9.934315124433471,99.5615189827603
2560,-0.04984706170879062,-0.05577753921865628,1.0333166528850155,-16.671177876716506,-6.428280184755087,-3.7442522258036344,99.60036351787748
2580,-0.024056947436399856,0.03477801187347818,0.9899928701767573,-11.870041908417157,3.8009803590755498,-6.537647767068048,99.51285867167503
2600,0.010813342512411584,-0.056458643327270214,1.0195950919995806,-4.067605289120998,-2.2997236205912865,6.729814206162021,99.54426048638713
2620,0.0002609289433090777,-0.013251754917613438,0.35979560253838444,84.98678957307625,73.0203762384905,85.24977408145196,99.5814464825658
2640,0.09148093887427472,0.026681541972036524,0.34561573500778203,80.95226648359987,57.2612971531906,70.2292147998849,99.53159595612362
2660,0.08278925301039378,-0.007649239348178666,0.32288915728766765,47.711198719794275,70.9098953869826,82.26481506724926,99.59517609678404
2680,0.02053209127818593,-0.03206284053231179,0.3909485622755693,92.84239524957769,86.32796335823367,92.583851867849,99.60635544057354
2700,0.07072403145244203,0.02241143180249224,0.37354387177952,81.49502613685502,67.18372568058737,76.85199160698424,99.57057125838992
2720,-0.033789655806615464,0.028592165035495727,0.3088919810378294,72.35557627803226,78.14602259766711,82.19604266299412,99.56730135139013
2740,-0.0026614743988012026,-0.008443257852946395,0.3151076969447497,88.11016146685077,47.56014088806549,89.94709059985196,99.5313679440096
2760,-0.0035315450180977564,0.04325308382274548,0.36131313573419327,72.44924724287557,83.99268724563169,80.38900850063472,99.54643775539728
2780,0.015032038500123244,0.019502581502040303,0.4461305708203739,70.93300241572196,76.3582270947382,80.87778387975334,99.56591767657255
2800,-0.005537798169467842,0.009521165363230697,0.42561536505968134,73.30297203533395,81.61791425950193,72.06129047140593,99.56023843723364
2820,-0.05559285047225945,0.07007116440275396,0.3073342138541031,69.91123428322626,91.5126985901237,84.18003290131213,99.55002629956375
2840,0.024119410911683344,0.03855635581544199,0.35425182961254015,65.81127430544478,77.37878336941785,57.643142828548804,99.53653098922287
2860,0.033746746004561026,0.05635110299430708,0.3454855597767565,83.23956459523612,82.29293777966855,73.55002204900204,99.51414243063809
2880,-0.026811777264575776,0.019823644625661323,0.28295053861927416,65.6889483440465,66.23203655833655,55.36542602463578,99.56197743493527
2900,-0.012802601014635743,-0.04934557035065451,0.35112651774053477,77.01865711333659,77.66181092048151,88.79510773556432,99.54429481134417
2920,0.020478611286500435,0.0020670162033074903,0.4026835847133351,78.4300736337302,81.66558840164946,89.81076259664366,99.55597104798761
2940,-0.011012467242938891,-0.016969200800252913,0.341437587854036,74.09411505904109,81.0143817419005,75.66882534061509,99.52332857223884
2960,-0.023704527530440802,0.029315751391758668,0.3037685081829855,87.82073521337097,67.86217559453353,87.1119537015062,99.54067738857913
2980,-0.017365835079345155,0.03603199369970419,0.29354367449336993,70.64100732170286,88.32509991918813,75.09749322631532,99.54082426107905
3000,-0.033246087108492764,0.012984309429245383,0.3209505340606492,81.1053308736566,80.69295036898028,68.10352516656728,99.57102715705508
3020,0.025102534520869225,-0.017541679532964163,0.3995908652825029,89.78281897906479,82.47385847596516,100.50547222140756,99.52021065688174
3040,-0.08959284487591643,-0.10412854638213825,0.2970556988586943,109.5354324302157,71.56723145333724,46.38177911875458,99.53912996180911
3060,-0.045211416677039075,0.03685566258276788,0.39176869189502034,79.13279024564433,83.61580122308473,99.69982879303211,99.57117556515821
3080,0.05286604376352934,0.011518864967731222,0.321945994124307,69.94449728612088,85.65289633608589,81.64528709511683,99.5663846254537
3100,0.04387124506082867,0.031679936900736616,0.2799891235125105,75.43934272092245,97.79698929688122,88.81677798577533,99.55963228608847
3120,-0.11874271665248648,-0.07383246680377552,0.3615902758855443,73.89820217667598,66.87545646520078,74.45076711172761,99.58110095367454
3140,0.01699264479473225,0.024957445712921977,0.3415131478076924,79.47895193195525,72.05864290399337,82.48735462727751,99.54955507412501
3160,-0.03142359622632905,-0.005825328359942785,0.39526800626872316,92.18185862510684,90.91091377587921,77.13259411156692,99.53936673178039
3180,0.012427546781483119,0.0037246882030974684,0.2719495958342805,78.9143940667913,80.42122716877893,88.54534070591181,99.52504465466463
3200,-0.009314247932469103,0.005378665935492783,0.43750115056145455,68.24519717237426,77.02991854482205,77.89160502365218,99.54144492419455
3220,-0.06898378294163862,0.07221552539706895,0.3896305680120521,78.29766019172129,66.85790120788573,83.9060496024642,99.54832213447851
3240,0.03892112244333725,0.04896929652715973,0.30393364276650975,87.53208240529028,82.73766877553948,114.93687053366172,99.5824589582198
3260,0.018678380868170218,-0.03897119488778589,0.3775473779301883,63.3505138183517,76.77903689462214,92.67797302016503,99.54484161123627
3280,-0.035366919683437074,-0.045924348256507354,0.32801021302889716,83.21008384614147,67.46715110909149,70.99718756989378,99.60343825938274
3300,-0.0996358118324328,0.013646764713534092,0.34945812532810855,89.70294553337959,90.31166840031138,88.37722360008979,99.53884941217132
3320,0.025178077908080018,-0.043995139179830584,0.27480908834268086,84.31877747561131,83.42146232099368,73.71691794779862,99.54050190455884
3340,0.03467995308847108,-0.060718410561762505,0.37953674516276414,73.12226580297653,83.14963279808475,76.3611260701908,99.56466504521427
3360,-0.0341495470598301,-0.02526686550816129,0.3125425797876992,81.16060781954286,96.30913916729165,62.604921734556356,99.5517469402686
3380,-0.02410845120528103,0.06706583769801572,0.4127937545089976,73.60270742753599,90.05070122429548,62.57775621284806,99.52402874415434
3400,0.09888133952212615,-0.02130992116010689,0.33355265619279595,70.16931504437568,89.30822544214644,65.75175500845837,99.52772970785448
3420,-0.05612353473525816,0.022933128269270263,0.3808592558625399,74.69094950497556,85.085003083429,80.44094456505988,99.571816653956
3440,-0.0149463027455194,-0.05728083529305472,0.3977334964257982,105.35736071567015,89.36225563476503,84.85448706140896,99.55842512652269
3460,0.017210689731809805,-0.06991809711025858,0.394140996439082,73.57040720188719,74.56463908500474,80.2470179765528,99.536466638276
3480,-0.04279612844766038,-0.04173756978913834,0.37346917504554894,69.7219852324501,72.60035654753241,74.18493911578221,99.53081387463112
3500,0.007104441155468148,-0.017095109618850326,0.3499879200945571,89.90014662091863,90.67743926218786,82.68039130833358,99.59451593239514
3520,0.0899173856404739,0.01239951714355613,0.4144107962615123,74.07507145467196,86.99035912529564,83.0614481028685,99.55904574324485
3540,0.011749563688161171,-0.008343819015746995,0.29834126993693577,77.08894201768327,61.54269238745135,76.90606799323768,99.52708407662158
3560,0.011459826545150681,0.014839578074685097,0.3630642568949021,84.57841475542031,57.55695869686056,87.23352732612572,99.54205958793149
3580,0.00822563765311793,0.0653420913089028,0.2747472873444524,84.83696427350286,94.13690568096905,81.49993535836236,99.55557439776861
3600,0.03998132750829614,0.02796650674338727,0.3348357706932385,97.51053133581313,96.29072403046169,83.38805481047925,99.55803983313314
3620,-0.013107148381877917,-0.003928379052317314,0.3796034800600256,94.15094948755821,75.42172690336383,65.53954557284224,99.56481821747167
3640,-0.02365539067639151,0.03202589738961324,0.26866821715151173,94.24334560631621,67.78858004856957,77.99470850190275,99.56609389261648
3660,0.007182954118485767,-0.031373968101998176,0.2867075003857016,71.6577050620432,96.08903668491753,94.10609535105216,99.5699072500785
3680,0.043721863291865344,-0.05666025359764259,0.28173912446892374,74.7107834933471,81.90536116153837,82.80354462306865,99.54911595645116
3700,-0.03790702213554834,0.0898332918575683,0.4174849311550244,75.19591969683884,80.52766293423112,72.48910399679436,99.55097582609851
3720,0.0018447244078915973,0.0540222219670122,0.35642014110683334,67.35507260161334,86.18356427365381,89.51773127385528,99.53554071460974
3740,0.01854326874674023,0.0324717258790042,0.36493157811185495,82.05949216150304,92.55365190522777,77.12425681542132,99.54924508700847
3760,-0.09975493623358041,-0.0303816946032193,0.2988108843767794,63.2380571958894,79.9866917373817,82.64200985240159,99.55395071706573
3780,-0.06583399965336327,-0.00775733138497992,0.3418538036352391,68.58562795685224,89.57680671440426,85.34187118170541,99.52703764778924
3800,-0.08781126061503872,-0.017728777569704972,0.38441179716692286,90.76567376415339,52.699718025685975,93.418212854393,99.54752574242482
3820,0.07961841440253935,0.008928867080729158,0.4294511509672522,72.96639925553544,84.59422136932115,93.1392254081467,99.56791531078602
3840,0.009034088508386212,0.03548627591585867,0.3382499441129397,83.0940061436518,97.71529807173391,87.6192426394077,99.52776291785672
3860,-0.04925885816579073,0.0030917949686008177,0.2653054147689863,76.52829910624541,67.08720083659423,84.86558242787477,99.54253992496642
3880,0.015766678376954706,-0.02840209505459182,0.2957504528069226,83.42939273421963,71.14535979714185,73.71062363270057,99.54957739403962
3900,0.003992513698221754,-0.035941506385693815,0.3762842465492964,82.82667765206624,85.23703117374016,82.27212686172592,99.55656737863052
3920,0.09618553737456158,0.010090788087734351,0.41518697911862723,82.44215088092338,99.62071449428011,70.20028943673714,99.53023334276023
3940,-0.008460376588421343,-0.0011498095385844376,0.3506068743969964,79.82745330714039,93.82864111131694,68.32044766929891,99.56759352944198
3960,-0.015499139098022231,0.07636902565112831,0.4083780310689506,73.78913328862825,95.12688380948413,97.46484565803351,99.54956402341219
3980,-0.024009690021258488,0.010744503133204401,0.3853131129434261,71.78175615274422,77.66331258217568,68.17409086254483,99.57511169652322
4000,0.04406260765057285,0.062296210246372656,0.3089711965921711,75.99872946872692,76.68961083105177,83.23206352790189,99.53079293854407
4019,-0.049878099485460146,-0.04389726286249331,0.3367208185597664,74.33294588943726,70.98342358438153,85.5715193898444,99.54293763605007
4040,0.039708112762986164,0.06427727965367074,0.36408607067044285,91.68766560354001,76.13677295740041,82.96395505288505,99.58133845970649
4059,0.04162665217776249,0.08896990665689876,0.4087761320276685,69.67753348465668,75.24813403022243,67.93870874124238,99.53310837033087
4080,-0.11400349455010075,0.10537277740929887,0.3723304065819208,82.77738902109583,67.27297249978182,77.54504734877085,99.55014061180393
4100,-0.06912817752880697,-0.023665422783959878,0.34461971199593955,76.07325903555792,74.1340169307094,64.18690782070506,99.57710521913718
4120,-0.012573329562048883,0.04166997071669745,0.3496628749833105,96.1507841886015,82.21506999442715,68.31852098205042,99.52688620871567
4140,-0.09135599705240503,-0.05047607745291306,0.37984066379116027,110.30781247443298,77.68427378546895,97.56962528423357,99.54651360070544
4160,0.12692353745144255,0.07797048881590393,0.3091767173643491,89.7113980005178,75.84324737740079,94.47617430094476,99.55125065557915
4180,0.041832921058971385,-0.03595379437872894,0.3109612530367497,78.49068795786255,69.2902453177738,85.40109865899888,99.52536162050585
4200,-0.039792010902013925,-0.012707953057476901,0.4311286721233083,74.57889590483593,67.06125513490915,83.49264541063921,99.56674721437969
4220,-0.030076886040339097,-0.06555442443206665,0.34930619450004524,66.98675986440378,77.25742390955988,69.80954552004926,99.55139898507635
4240,-0.03138800482437988,-0.09325140621847515,0.43453868470678125,98.94757000879643,102.90849553702519,73.52308203885504,99.5425843832824
4260,0.045299539149580986,-0.08008058878709375,0.2878752790512068,91.38533996389467,57.73922341503235,80.81481176294938,99.57514537397994
4280,0.035060188691819934,0.03405877389958278,0.33428414088457664,96.62974417339511,66.26182153991633,82.13422318959815,99.53279413328065
4300,-0.09871383784907295,-0.06199862927965203,0.3808730586739151,78.16849182754501,69.35035025725847,86.59890232186596,99.54972947367989
4320,0.02157840723751832,0.007224704156818704,0.3432280323992269,69.14264496429179,72.78348184992512,71.36403169866944,99.52885868575207
4340,0.0028336985579159005,0.0004959421402769644,0.3058416046413355,71.59530829936985,83.14132869892433,92.55403876450245,99.49260396471061
4360,-0.12295410882276861,0.043038444446661744,0.40890237917804595,94.24473399868519,89.55193601317748,74.30213394257981,99.57622091913582
4380,-0.03673568923263896,0.03054307444841763,0.3160678599357045,71.92627657555464,84.89788441630722,81.05262028577987,99.5583288535709
4400,-0.06199200644295562,0.07552313072198347,0.4083576029943561,82.74787049054953,68.34179670138195,93.58102032476336,99.53068295184397
4420,0.046406093095956565,0.008528563102876517,0.43771538442518393,89.90158448521223,66.73137662013949,89.80176613523287,99.52528094311822
4440,-0.052550350126936346,-0.024206787128683016,0.30124758453967077,80.4647367092894,72.50956310832963,98.2716097988273,99.55848435015376
4460,-0.0425248381162681,-0.11935471002486892,0.4075496649968429,82.00056645277903,87.60478136488283,81.64279562216358,99.55308969623565
4480,-0.04835540765917041,-0.012841549390757802,0.4097664557169744,81.39909511154528,87.62100563425618,67.89863774551199,99.54919542204235
4500,-0.06075841390994931,-0.08379536098047072,0.32483817569225526,66.3400244983235,89.07740613948707,75.62671115166748,99.51565619433795
4520,0.02137752290633758,0.009863318375903011,0.31200306094735475,57.124558623849374,92.68524709970765,94.25120817157796,99.52801633441436
4540,-0.030191340183985605,0.03057087112076883,0.31481892142309,88.57646952371681,85.8195313418854,74.82108757027171,99.55493192742618
4560,0.05363480930561031,-0.053385365854326676,0.39440517163512395,94.46980116272789,91.19328882322118,87.93493667158002,99.56575828670887
4580,0.03660307588326791,0.027389281787505326,0.30371001195870384,91.60031296736459,90.95219001178957,81.28767649573112,99.56864214413145
4600,0.011263153958839457,-0.09359910631026544,0.3690028526200889,97.58145147252077,82.5807088830485,62.56854077442577,99.56392951557429
4620,-0.08768225654217116,-0.04345730932345606,0.26564085183122804,71.02397187350743,76.55946657240557,88.42379873970847,99.57252239976239
4640,-0.00806024071407406,0.05067139334825557,0.37244683686960056,66.53285757189217,95.8918872365311,97.83874942258575,99.55644480356553
4660,-0.037948455579570536,-0.025599094614735463,0.38627994449508873,75.91121603440166,74.43964125133292,91.89659251555248,99.5293362893831
4680,-0.03320941879603659,0.01004220822898735,0.45568112894026214,63.47652848861951,78.010941184763,84.56232269165848,99.56219013215573
4700,0.037115939006104125,0.023247818881001553,0.33626179327821654,74.42918989951609,86.59902041400125,73.23927450141811,99.54445280746782
4720,0.02492158498672281,0.08018685991561703,0.3818932230062824,76.05754067373049,78.07646113266446,67.84879456320314,99.56628084776607
4740,-0.02785453100322042,-0.04775776948596052,0.2886630589510182,67.61943572801971,63.830773734428924,69.56270683688669,99.53735711968915
4760,-0.013926955482824549,-0.020195154551732136,0.2999389137815377,84.71101988327334,74.09125436108837,64.86714738621987,99.59010360751127
4780,0.0065939103156656236,0.03813347266659388,0.35893923994254845,93.81705160186195,70.46361349917466,66.304303521381,99.5223550526019
4800,-0.03132908630099654,-0.02910277816206291,0.2948718547442176,75.86283501905092,73.55231265508691,73.7431725129349,99.53284060928782
4820,0.026900728971236895,0.0269448434125067,0.2948246709754748,65.11881731611842,93.06439642752494,72.27430454588236,99.5490511178232
4840,-0.06273657160316633,0.12345521010333421,0.23632652955091937,91.35544796055451,66.93341224807499,84.79350164491782,99.5384540471599
4860,-0.022404481011900523,-0.02264944095462454,0.3317243587481711,82.32327175740743,86.72452082276442,80.99724668239703,99.5485852211874
4880,0.049642076653191196,-0.04521743973553661,0.30801440568262134,77.96237097625104,86.15906156726106,69.41569487270262,99.55072061132243
4900,-0.05636859210121568,-0.07463264547961576,0.3428354212536591,91.81977372483284,80.89274299826906,75.26247569718507,99.56959581930725
4920,0.02195326363104044,0.05614127618236841,0.34207812597037257,87.20867601295677,65.8172806131294,87.6351511912647,99.54872094788153
4940,0.035463429791010345,0.025517892555692152,0.35217917716998376,82.68384839565843,78.81546766463018,86.68456985445691,99.51660208060271
4960,0.07703050566215519,-0.04168704389750744,0.3498957022468568,72.96126183523472,85.9087205470343,90.93146806821952,99.57587602507695
4980,-0.01646509415658281,0.045098688701712006,0.4418568248740595,81.90045274169972,63.041941116531774,81.78578800379015,99.5683642082817
5000,-0.020029797929459595,-0.014194026499549733,0.27534759630270444,64.12442518677645,66.39887479711368,75.61110237446229,99.58855626854536
5020,-0.04115978239779955,-0.051759681345201314,0.24533791693888818,82.41170895806646,90.14592072258264,84.44740851442417,99.51688574948454
5040,0.039120869088222134,-0.05147932702028303,0.3926470563895644,71.57997674996774,73.05382509206461,77.85716636168011,99.53255047738742
5060,-0.0008773213566918103,0.09047013796623961,0.29156522941817087,97.97123476807388,84.9635176081605,87.18629847203786,99.56640793288673
5080,-0.07747143182754154,-0.07990451740924609,0.33765829995791424,71.82205449798924,91.26141062852689,99.52830835185264,99.55737174677465
5100,0.01346708387548022,0.04750824126111177,0.35537727491663135,95.08082369532377,64.41575631998728,70.82918643696637,99.54759359455863
5120,-0.034069962790210566,0.0075780406341341925,0.3472635193212037,82.73544416022267,81.20187975679112,102.38967491625571,99.54189776423053
5140,-0.04665716190743898,-0.005732109943483833,0.29233904431468627,71.41931323645024,96.47054668944097,71.2793664711252,99.56303605069358
5160,0.09397430204891677,-0.02582045255770047,0.33501321124175093,78.55793607300741,78.08476731870326,86.19150548344133,99.54513207084345
5180,-0.11113287052135977,-0.030183440001110392,0.2526780505314614,91.5787869706401,94.92254142457301,90.5650919322645,99.56929250993412
5200,-0.036385431741627915,0.03171034746613428,0.32960648992397756,86.17354629011072,72.86512711813259,65.5546678840006,99.57574590919032
5220,-0.05296959469097471,0.03002692052015662,0.3607819619056046,90.85724935711632,90.21289864468605,79.52733990024862,99.5514890875154
5240,-0.027599107644939253,0.007627763505314234,0.40727185728332255,76.10684737491337,87.95432436427991,73.72894307490127,99.60001952238201
5260,0.0036963887462177687,0.019813421108264968,0.34978831926326276,77.46614469820477,91.95932290863432,96.01280082479343,99.54901835749908
5280,0.02442767009580803,-0.04389973569066473,0.31053458219372665,87.68265731793925,94.07370217864886,71.81676411848076,99.58436737256929
5300,-0.04302187929769665,-0.08068360021435922,0.32668262932721776,80.44450169300109,54.86145402038237,89.28336105155891,99.54455886747051
5320,0.002220541658639541,0.005042168078814618,0.37041712091353285,80.23016878676188,43.18272953235969,85.06133374159205,99.54471564565908
5340,-0.048037731564906025,0.028776179897769344,0.3843928940755098,90.15886803487331,71.21400232193005,59.36695792007646,99.570492020273
5360,-0.013347117082438084,-0.0017238414819494199,0.2572280153687393,83.49868755940425,94.9261922893547,80.03461308560502,99.54140373167525
5380,0.08794026729491124,0.05142398004116662,0.2724001326910851,81.85176600451716,73.65691765034016,66.26915410468064,99.55208675859193
5400,-0.008721439826168685,0.03451981255376617,0.36161620445136006,84.67279581042355,82.58761561354683,87.05854882544065,99.5660319166272
5420,0.08600205183426834,-0.0483255265992641,0.34756606038557003,92.12496261667306,107.12592542041203,82.96586148837152,99.50666857647602
5440,0.10241935443114532,-0.02959982251378497,0.4640055085071111,80.75108581010183,77.46150614392677,72.2143418861997,99.56695284541419
5460,0.0639046737554675,0.05564434542647774,0.39984454421118953,84.28639100341118,89.65389116843183,69.48745158213934,99.52877336297216
5480,0.0009087237840014324,0.004121038464057492,0.4257022876393839,76.3767102935972,80.80732595375827,73.52127473676353,99.53427093898961
5500,0.0358636441292195,-0.0621820513353247,0.4115406577572782,87.68723403089737,72.92755538121713,79.08710631599355,99.54806007546401
5520,0.031273956454978935,-0.05200043344255907,0.3045064910927947,95.27638132582591,73.45518915521099,82.6020731559913,99.5765718441604
5540,0.04403099549692977,-0.02959643372580814,0.3771628066984504,82.57170719962004,90.0088854286615,81.29371625324488,99.53612267012883
5560,0.05809882751872292,0.07546738130841572,0.348127651005186,71.26299640998529,88.17980790664058,79.2281348113291,99.54215031029264
5580,-0.06303779534752672,0.02693985836601754,0.3205230902139091,57.50372703212014,83.4187052477587,70.19854236924385,99.5635679524581
5600,0.03718447499963052,0.014626832831028997,0.4167403239423277,99.64260295241182,97.80325956090081,83.20297641794113,99.56226826230466
5620,0.0268823730602902,0.032452287182416245,0.3667754278015285,73.96606732215878,62.561749702815916,71.40463892815447,99.5336734486854
5640,0.003600827509265508,-0.013938929305541876,0.40026244210044365,86.92842294933111,76.3492850262272,76.89022186514292,99.55804093328933
5660,-0.02980536121071667,-0.03271766142777008,0.31910738405551664,82.13628011527635,74.45763667220065,87.00551927068686,99.55664693416371
5680,0.034177837603399805,-0.028712617823057653,0.309492329302019,93.14520301860841,89.94704581576498,102.5237122069709,99.50072368878081
5700,-0.07460462228081764,0.06468763331118732,0.3793443387280362,88.79491753664422,82.48056181851591,80.60764589495045,99.5812564349197
5720,0.0678682188446111,-0.02024199185733366,0.32619539070095765,91.46988207824513,74.51489089677295,54.49696935971431,99.54364926253535
5740,0.009318671115418469,-0.018568914229355634,0.27995237911194204,72.49680915386082,85.77957271443844,88.23345431870695,99.56367171381892
5760,-0.01439616685898975,0.04206875411037869,0.2562153141203193,71.75152603698628,78.995000471279,76.10892368373814,99.56953247160627
5780,-0.023518170714415757,0.01675278230072764,0.3733623717208839,92.61604454078805,94.19888606794737,61.77385965402319,99.55069923683224
5800,0.0051463581889359495,-0.05588496648760924,0.3289869854564659,60.42895746415988,94.43425650119404,53.40296073707017,99.53702604550121
5820,0.02685384555411214,0.03551533667458889,0.291667157030786,86.14950536303856,76.23710996655319,78.50299794183553,99.52533651393428
5840,-0.017087511846378915,0.0425575573471998,0.3861772108737173,78.47910842632938,87.23951991399042,89.85545578319122,99.55064895537697
5860,-0.046513790720978186,0.08864454119104442,0.3866597062179019,70.27077938546284,78.24462486235134,63.20648279107951,99.53222325752482
5880,-0.09167752938853713,-0.016271885077729902,0.3314884683893245,80.55956193038578,71.64321331040186,79.87055355898111,99.53848592472245
5900,-0.00839292617461025,-0.010934869504042578,0.3904624830556568,85.87153103067631,79.58956446556259,79.3399162387826,99.55104321847962
5920,-0.041352533902033785,0.07193054169888168,0.4725376427554001,66.53723129527975,80.35510770979614,77.70883889103878,99.53320188460906
5940,-0.11488419773893635,-0.02339542978076095,0.27518943950660146,81.13854662418335,60.23605248204851,75.63668242945414,99.55617636747036
5960,0.0015691803122089476,-0.18366273973115302,0.34088764217295675,84.30398455243767,84.44816405005201,89.30215089077801,99.57090179134632
5980,0.007777223145429757,0.03217118356135222,0.4223714957463265,75.14116923732918,55.92087407378284,78.0875086879087,99.53777224504367
6000,0.04191576514727589,0.03810094774904683,0.3552256683195179,77.11881024049833,87.37858653851968,41.94712994585444,99.56648856008943
6020,-0.008497891769459557,-0.0033338558787841797,0.3189218517308616,72.68880667984925,100.69490316640213,59.100470477056966,99.56013109320857
6040,0.009619425906945898,0.05393868476598768,0.38442100641305593,82.39571167130975,73.15853828770605,95.16063721567147,99.55887363361107
6060,-0.003056018669117871,-0.015577880643992625,0.3854927776784366,88.24122585489468,70.35230080969731,85.76907292662237,99.54690968513509
6080,0.09027353054445512,-0.024699840004181853,0.3165404700129627,91.26745309815043,78.39149846042265,81.96283145706596,99.54211337805738
6100,-0.005425764100105777,0.026497210960943113,0.39327871271912607,128.80438028809812,73.41567674229067,84.75445679636873,99.54037325873698
6120,0.03786844494164604,0.024365966248427434,0.4419741857731368,105.64578009284547,85.4797458333464,102.67913784361868,99.54979878522059
6140,-0.011504024855709762,0.043803579570540506,0.36898834407960646,75.24110987904105,103.60438334594176,88.91235217324629,99.56175941186417
6160,-0.04173007998642235,-0.0976249888291186,0.30280156036382494,85.37407408523491,63.2279246072562,88.84111659421637,99.55119409950488
6180,-0.051520861676619394,0.013758367689189956,0.3252401978873519,86.45705460658772,92.81282619693746,89.60154073293378,99.555574462011
6200,-0.05454121880659238,0.05662577892284984,0.36122971002030974,83.52394627940957,74.83950966309735,86.46450496870426,99.55580346530178
6220,0.13418208603685952,-0.028382496164633786,0.42918535975017513,77.22706056530318,84.41736329232126,75.89787769303108,99.5612779435483
6240,-0.06980039146646869,0.01938720613438243,0.33730424837633993,87.34364165068979,89.38810435040506,87.6726408736157,99.54720098895696
6260,0.02101318646915049,0.007501379645722545,0.2929934468783595,72.07071006636967,72.88955327108876,83.71824285706154,99.57913303910149
6280,0.02971220622301501,0.02133588137460277,0.291885021909153,86.06768146064333,74.78185858026477,79.1690924219862,99.55494353459622
6300,-0.04013047173435244,-0.04156426325055618,0.3561146046810667,52.60904396214248,90.74406263171574,79.46575236875097,99.5273733467786
6320,0.04292798907389702,0.026507854870252697,0.37590760816347973,87.21340854954296,85.71503289929969,98.46019258409854,99.57843452973471
6340,0.019661479859367864,0.05292082736377185,0.3660632707960673,80.24339240417079,82.83433866103218,83.11613466575062,99.54436546868321
6360,-0.038486493877424026,-0.0631688452519166,0.38722786586160485,85.21803212629167,46.33957998166201,94.68933890741182,99.55864976546013
6380,-0.015067876634155555,0.017639344658309172,0.29276320593279026,68.38769720452328,75.5432361142305,93.91794487123772,99.56672245981326
6400,-0.020627817260023006,0.04446703137458852,0.39629300796455946,59.13090410892465,76.15784982718635,102.58047559824541,99.55710109613423
6420,0.01113875057873067,0.03948601841525241,0.37326745267149736,67.72676291764297,76.8776149747431,79.57901885830887,99.553079926275
6440,-0.05612054078425625,0.07822715088395588,0.33907574341018754,82.7900244803505,82.63066706427581,86.98486293501402,99.55780309742266
6460,-0.030322552546857753,-0.04468691743881477,0.3670652316648753,90.45929482005484,88.78034847157994,78.35957821513793,99.54141453919297
6480,-0.018841307473203617,0.03863942034869593,0.30197401594540946,98.99371002571189,93.90239649218381,54.41596955539798,99.58026619371893
6500,-0.025062199294074956,0.06054532502704089,0.4175265604702216,96.26568513690411,76.40553109932327,63.18394899157899,99.53610754948933
6520,0.015367512608208048,-0.014074102989225921,0.34056621969624906,72.79462195052949,84.13353865357413,91.95848295793652,99.57050242232465
6540,-0.021105985999037936,0.0520434128321878,0.3061624314210767,69.1847322239741,85.6005997173985,72.48647936661239,99.56078599090749
6560,-0.02397910561254854,0.019312466840036263,0.38338195911375617,63.072060144341236,81.7810528159024,104.4469642529875,99.54669364053007
6580,-0.05425263689857068,0.02953196536062119,0.36458770117281486,96.52891989487298,100.23502733221467,89.3229094622707,99.565936878662
6600,-0.03040685839291962,0.015238655162808704,0.36671435393506746,74.84363423159509,86.20119968183131,55.19349876713598,99.55331725293868
6620,0.1361668696176421,0.10546262232563518,0.2572604692845212,109.68309009512348,90.54663381592611,95.79281799277747,99.54440643111913
6640,-0.03218408580479578,-0.02431943408309448,0.2576168047138735,70.12404458118053,65.29567390445557,85.98003376767451,99.53297378150084
6660,0.057558705885795675,-0.053141196035073904,0.31705120428717315,42.961842338542695,74.93713615297696,67.17183470425823,99.55276522948988
6680,-0.006864381037843788,-0.10345078416610323,0.3893196136837471,81.73891578715745,98.1523796929499,63.24056710501821,99.50518478672346
6700,-0.000924622478604081,0.021026790265872355,0.38190500784606085,90.82661453341436,68.85245612252324,101.28914215302146,99.52966566005993
6720,-0.09993103187246107,0.03581997241040195,0.2515468893446216,69.83968329997089,65.91295951370314,80.20343998068883,99.5676794339742
6740,0.07305744672869484,-0.03740597337986379,0.3426780129140474,93.8754328131785,69.68665000851014,49.06503552291156,99.51496388200282
6760,-0.015165466399800735,-0.06783289717931511,0.31712295823398584,60.181352877749866,95.45017710966096,102.80296141145422,99.55653551369655
6780,0.0642795733820067,-0.051188220810902754,0.28606919072576986,76.2478063643047,81.729654268458,81.10197903593934,99.57075780147815
6800,0.0384081287450205,-0.09882691693630302,0.3556297254081674,81.8909515889054,75.79908319689845,77.37777584272317,99.52610854497577
6820,0.0038031616744907655,0.034201194466626714,0.3943003511420387,56.17417906506169,80.39713875723305,91.35022595790723,99.53172042729499
6840,-0.025628655523214295,0.05928082030043433,0.3528097532668226,71.77338435718659,45.01336598877883,104.86023350178957,99.53940828336144
6860,-0.015246245566790046,0.0021571765138641624,0.4278736809571012,80.81180960478625,95.20820073805868,71.39042320407988,99.53351958895021
6880,-0.05648662317579815,0.0044840702146435015,0.3277699812123469,69.87480141034345,72.78998558005677,114.45037591244154,99.54598693656091
6900,-0.13045922553498066,0.035793161514871684,0.3391495578078718,75.32285458153659,85.64281850462936,91.10886991325387,99.53252758790016
6920,0.012946649627860768,0.06559796905312584,0.31551212733600437,68.70752709753931,74.25950876737333,80.32018112124946,99.53428755028976
6940,0.07276207828437158,-0.0312868329507161,0.2937614104446071,60.20384023602004,93.8444788047438,75.29059431942773,99.54091745214326
6960,0.08773954251982614,-0.04098104254600464,0.33987466043166636,94.72052158043896,77.81679332739324,97.90716045594648,99.55034053354014
6980,-0.030809750747456933,0.030666863230797155,0.3085467091096645,84.26571239083597,61.41763985692731,87.09391046808125,99.54852476168166
7000,-0.024688534629688157,0.012872068295177362,0.3336882412175331,93.45252803406581,83.40502963665514,67.4014700085061,99.52567518739077
7020,0.020407988676531458,-0.07717246072857616,0.34073285709987206,87.35122996979796,85.9710657249358,72.75056568082033,99.57911720994248
7040,-0.04708023532612324,-0.003688505488403266,0.2755181771470943,81.42409023471389,81.6526139000452,63.21820992281816,99.53867095030682
7060,0.025679987733500376,0.00883786314120547,0.3103979875409447,94.30861201007811,108.7871240795076,83.08054170882066,99.52948640223812
7080,0.027543647301421753,0.008435268450354234,0.375640406193985,89.81157294614475,64.3212425352283,85.83128353022605,99.54427984156501
7100,-0.06638814733141947,-0.08323424396993107,0.3917394443545695,81.04357171931844,88.81358523534975,69.54922892498166,99.58542372527879
7120,0.018071452394408407,-0.009351573026638292,0.36420438138208333,92.81437902878136,88.31214434589735,78.13985604583613,99.56368729029107
7140,-0.053171389345472414,-0.015622014321505853,0.29688259367493086,69.97827269830334,65.8138448898974,75.95164725065155,99.52582274466116
7160,0.02525025709552846,-0.0046035169634234,0.24783756506294202,81.41555425744147,60.39644840377433,62.02651937268429,99.55022587247785
7180,-0.031234441361294375,0.018286304882022278,0.39617983082332225,88.2706563987991,88.78604490365282,65.31321090420505,99.5819136204689
7200,-0.05935674498895149,-0.010124439121383418,0.40733493439881363,79.92420416609023,77.27887123758839,88.1785722985785,99.55812103701035
7220,0.10795761980391966,-0.10608690640463062,0.42421688304167215,63.90551441094979,78.17218291163564,78.10891313035413,99.56501894757604
7240,-0.021779028353737642,-0.08411818948912425,0.37111416567990163,77.55781455036828,87.41663594870064,80.17350828530334,99.54553408392223
7260,0.0522753812332594,0.01228609583484393,0.39106822109553013,60.927922397970455,82.57122661760525,94.60222422593834,99.52825501416436
7280,0.08957809353211223,-0.13678039432626712,0.3210963900568824,63.86365296423593,85.73259435327434,96.96122792078395,99.56790110069171
7300,-0.04987566522514414,0.04384365311944725,0.4338530562164933,86.1902981361261,77.25173592287553,91.10140314845034,99.56295217469629
7320,-0.07989281431032838,0.0017002968282766057,0.3116295348137188,86.42331666418879,52.68553886042095,69.15048882318868,99.54249335212317
7340,-0.002434529303442987,0.03950784768779267,0.29529645988247477,64.90802047908036,76.36293103231661,90.96114678131694,99.51262442002738
7360,0.03343808287700264,0.01659154581800774,0.3063588900349774,72.04496167179691,61.811742864976615,77.10505566739094,99.57447347696093
7380,-0.011739727510658353,-0.035305947720953614,0.3698222870889731,88.19092094907346,84.28077989563678,90.16993284305947,99.52908097703622
7400,0.0056081151769235464,0.07279559930642102,0.32961217919601976,67.9746464329162,67.83167919911538,80.37529131008795,99.56548538723855
7420,0.09672083376722526,0.0732897628073476,0.3559761819719084,78.97748873163674,78.09488520377494,84.4767568463859,99.55563944933637
7440,0.009352752272515549,0.05102435503194541,0.2809250078163069,95.75876856765188,80.99349482326767,63.59526059510122,99.5940949542517
7460,-0.017154175990734176,-0.05519814399486614,0.41438430192054615,79.83502896207902,84.33741560218272,75.66904125128289,99.55016204222204
7480,-0.04885400445938939,-0.03911742564969124,0.3228291217544396,97.50849280252328,73.57757769887938,80.1679130954864,99.56712747924844
7500,0.04052123787929011,0.0377934325295161,0.357910647288661,65.11072337148047,75.81558271672705,92.01883157005999,99.54761306231545
7520,0.07555680223980378,0.032937789017123346,0.3355180282136975,69.05192286038726,97.16068074133594,84.27104804885714,99.54614362185463
7540,-0.04415787160222175,0.06757401206937079,0.39919411403400673,79.15211425824747,62.74453924007089,59.5281208689064,99.51348830121321
7560,-0.06627618041323913,0.008505743338735218,0.35884507063282184,65.84100654379458,94.94339333897062,74.06059929872195,99.5470468869565
7580,-0.04346459688348599,-0.008061743218629671,0.37795395586271546,74.25953891578364,68.12657300961794,56.26836059503385,99.54011876031299
7600,-0.017651669139906512,-0.01920769861409477,0.37423003579748965,81.60762990876422,80.71483905305378,97.36938021484178,99.5946930967118
7620,-0.02003581034357374,0.0038398358423728136,0.41178069182716937,77.52530040453738,100.24899161718783,97.85377785441153,99.53294224906902
7640,0.009614575434070613,-0.024948586281959256,0.3277130303759714,70.57842944744462,73.8989937823548,73.30019036743815,99.55454713679863
7660,-0.046150209103507825,0.04330123299590977,0.263002107798725,93.91884493564498,87.92149759139265,80.4889906486203,99.51072768276296
7680,0.03186487693577399,-0.015078626656739556,0.34068423513810064,59.89096471976261,81.16953476814584,85.88103142719459,99.54010135367054
7700,-0.04880186169936104,-0.01654303890235169,0.34350337392348096,52.776724240828166,88.20724077079237,89.62933822417877,99.54653311534558
7720,0.04267978474126503,-0.029836305424358795,0.3842928583815425,57.472174455449746,86.0733639053094,81.05830702445968,99.54600149262944
7740,0.06305500269036053,0.10022622135069657,0.35813565713014867,91.08069813107167,95.00705884423456,78.85591859963668,99.52729852112458
7760,-0.011138005592867796,-0.01929542795325031,0.3366441414592776,89.09274407972734,76.05842336591792,81.18211860828848,99.54946382990033
7780,0.005104451468550771,-0.08689080295035781,0.3520452373401532,64.42236452065944,86.57584898222999,73.02901700119281,99.57747416190605
7800,0.05285753337940605,-0.018982582387234704,0.4116096370898934,68.29098968766766,63.87867583881783,82.46727670931071,99.54127543101629
7820,-0.09709714117772739,-0.03239944800363915,0.32902818718141663,75.76722596976636,55.41590165443199,76.95528036690854,99.56144079977028
7840,-0.01820144644504879,-0.04131565830723394,0.4036724368937812,88.05229813993472,76.74137813486556,67.42467869794073,99.54733230614586
7860,-0.022607128220690716,-0.04745283686539709,0.276132803781102,61.09139077653546,98.99722269660823,99.29556013178257,99.57244376824796
7880,0.06266865242962405,-0.05382245881865563,0.34392075741599937,104.31825461789626,104.08286172032237,86.87113156245813,99.54592891251758
7900,-0.01090511259574989,-0.022843201207995587,0.36522736147591456,89.63322441970395,49.91009097920671,86.60406277630372,99.55402350602884
7920,0.012154584921787332,0.05984657388113793,0.2583140122789305,56.17187795133138,101.89639087900285,54.638995089109564,99.535984044863
7940,0.020278495462671402,-0.07691562082552678,0.34269080266864405,76.08914467221211,53.19523995505958,59.43256003741132,99.5537552362233
7960,-0.0020768505044410665,0.027952949814618763,0.3715794101789308,82.51146799017833,62.84911624154462,80.64420153477762,99.54081378523865
7980,0.012413199081778542,0.04263225534491817,0.40253474843581816,79.72188268603776,95.56952408466918,91.10399635340003,99.54991975290746
