timestamp_ms,acc_x,acc_y,acc_z,gyro_x,gyro_y,gyro_z,baro_m
0,0.011325253808163889,-0.03385826982500178,0.9802396531373557,11.18786922144545,-1.6181089020825823,-13.173253304538207,100.0156251237092
20,-0.0039694641267238205,0.05231653120866182,0.962953171112434,14.511763630232311,-18.24073172911072,-4.39086694102336,99.99822037613524
40,0.04110383475067439,0.01688503263548402,0.9284958036505172,1.050438746155601,-8.082307884007392,-3.746407625842511,100.00392352097633
60,-0.044180279914946566,-0.0727951444359292,1.0070336271316183,7.821014780729106,1.2226003679371138,25.419936802249396,99.98046812584833
80,-0.02133197159313692,0.019428696320682948,1.0990856994363885,-2.0965258906704323,-0.6362645531821688,14.131864920624581,100.0049190633419
100,0.07923713792297847,-0.021024719297630643,0.9747341305464711,12.408836023971947,16.284769666358564,-3.1615161415563007,99.98625003757898
120,-0.05442773601144503,0.029565697358287242,0.9345850635514253,7.876240810712538,-12.612433247116526,-3.5418838485498263,99.98813348124617
140,-0.015933409829316892,0.006332563219452266,1.0013885347096598,-7.243374504224238,5.130872846044327,13.969094069478503,100.00160300475626
160,0.03304809297297984,-0.019155570424528867,0.8769867962702086,-2.2019216303306637,-0.8340867375916701,11.598722961487564,100.02311394152585
180,0.005646308222770372,0.056310551342363506,0.9170035686491992,-7.415041344910803,15.685419972710388,-21.711003326945196,100.02068004474539
200,0.07706699969406283,-0.07259328457956525,1.0069665944493569,-2.953142090944072,0.569249590668843,-2.0714719617588755,100.00122323824685
220,0.027731688978279323,0.06317387896286773,0.9364606205306275,-5.118440724096347,-10.336384591567645,-22.61436147271362,100.01248292458166
240,-0.002906211136930301,0.10357612274981785,1.040366691284558,-10.110599661845928,5.936082575204069,5.35884644114565,100.00358699973187
260,-0.02473929419410938,-0.005842451055626584,1.0140483024040101,22.27863845574624,8.911769257927437,19.951287813326402,100.01691796761565
280,0.06813009163479074,0.11155901842663402,0.9391589384898615,-8.934306024850477,-10.49908237216058,-1.688252867528334,100.00437501322362
300,0.016034897398364077,0.012702169225466792,0.9591845249273175,5.9053950959478225,-2.8244421466920433,-2.7959140941954757,99.9948585108021
320,-0.01615304703766414,-0.035588182924651386,0.9415799924183298,12.244302582283737,-4.741154138178857,19.040433918573754,99.99128258015675
340,-0.016192526618331687,-0.04766347496857947,0.9772311004488387,9.348687954419825,7.301241007385413,-9.295931125380203,99.95848942167234
360,-0.0013536814690610973,0.035147966720170586,1.0209436438339385,6.175133165127294,3.609341575359533,12.360592855347114,99.99427554924395
380,0.010870347500406899,0.03644600444985371,0.9247585546474051,-4.668984898296633,14.284185147392744,-28.677913053769075,100.00380266366976
400,0.0030200585161620696,0.07644301118959917,0.932125562133667,-2.7336067522787926,21.369617962484785,0.632717255140435,100.02461217060579
420,0.004430578848522465,-0.12141340073072018,1.007386335042797,-3.487039121216743,18.817355579472114,-4.082762299506616,100.03153612735231
440,-0.11063480309971284,0.008167981149964785,0.9286574670908538,-7.0857660903264605,4.743451999599124,4.982025231470314,99.991196111868
460,0.009120542545703983,0.03412867266293293,1.0115507113422204,4.496729674570481,-7.658282839717917,-4.965568797361396,99.95689537852466
480,0.037746336582167694,-0.026114745673821962,0.9682300451695007,-4.660963170512611,11.111653856577345,-7.06736017426582,100.03558663947935
500,0.053822603832124886,-0.061265922141353485,1.0223189196622473,-1.5746046443618877,0.10316921300403073,1.4491705543106823,100.01003634269577
520,-0.017581171478957283,-0.035789508103233385,0.8624710682960594,2.7893247982321983,1.453904974015727,8.4093289028165,100.02282692742307
540,-0.07781143451176908,-0.05872404186445005,1.0145286921833319,-13.225937470576953,-2.4913338027996907,12.764827298292431,99.98579966960806
560,0.07061940081830884,0.05657311452544378,0.9211039927306183,5.182569344395407,6.22207256471781,-1.5319110316764557,99.9865573143331
580,0.03208679930274349,-0.06716322574250305,1.0802733860658211,0.028486347220990083,3.9222811489536364,18.891651573104088,99.99550580494406
600,0.044757329406228785,-0.05783777504150681,0.9874361958007661,-5.974257257622564,14.050377337190834,-13.569725013408343,99.99884290270056
620,-0.011261178987596647,-0.002337805004463364,0.9829903487378369,-6.091231140124437,4.3907103628712845,1.4233301130758755,99.99879967421019
640,-0.09010347145836245,0.05345620813832387,0.9876150440648604,-8.548402442300901,1.8693466110660633,16.512344687110847,100.02056334780912
660,0.012556687199012385,0.12229069905255413,1.0068900016370892,-10.2259890529958,-11.89676936009709,-7.405992484762555,100.00811401303294
680,-0.01711384365725246,-0.06403428495740542,1.0426217941257567,4.33025191460996,8.709464969346552,8.457647736738151,99.98473717660332
700,0.10191992384613482,0.04727648159227465,1.0106355925898856,10.27858830265626,13.208800470195463,-6.442154905098757,100.00090352435821
720,-0.06360522675604997,0.02093462984587179,0.9111839171789363,5.877578911187516,23.21414408695883,7.337970754751073,100.00378641733113
740,-0.07298244983364559,0.029175920290711532,0.9841778287880008,30.55000257116046,10.1353209530237,-5.971463415876434,99.9897107015715
760,-0.0033647245797264387,-0.04708202604694771,1.0101215958645517,-7.894900099903987,1.8522544603100477,-14.823404899192433,100.00332428091419
780,-0.042454296254966106,-0.03209734094572021,1.0184547167746598,-19.089584894356005,-16.328584256192862,5.941500440298726,100.00682465011577
800,-0.038112299087079964,-0.02748168032040296,0.961301156323203,-18.355036885770392,0.27974633425407036,18.078506132037845,99.99446304839917
820,-0.03512737049943498,-0.022117930765498044,0.9553901271632038,-12.449415926517585,7.694857404493094,17.018431148129082,99.99365151344125
840,-0.029144309457516254,0.009305745225647753,0.911932252338626,5.843798992599723,-14.245519378395432,-7.173453763830505,99.97545873445006
860,-0.07462790947954699,-0.050657452843145094,1.0126469607594375,6.599379536438084,-15.387465292250724,-24.932285810957577,99.97685975136612
880,-0.04198622775676663,0.0005519695945944425,1.0158637653043117,24.734336828527535,-6.630207234625541,6.118404470095442,99.98695583021535
900,0.03316936886235058,0.09907517858636224,0.9588923851347226,-16.36149374485541,-2.369601889725802,13.704774496191494,99.9920506489189
920,-0.013904048947421897,0.06085598244392584,0.9703238261872416,7.506940140075775,-0.7328567728437122,-10.295801404760454,99.96581208503179
940,0.026793149951705553,-0.05535525966279023,0.91588528132611,23.802005359227778,-0.8211649171758154,-23.457966655615547,99.99603021620004
960,-0.01761285449861646,-0.054952398197942946,1.0334387004523158,12.570067385268095,-19.34092884891709,-2.09473079527541,99.96884000979094
980,0.039942612421058406,0.04554359493295474,1.037941867918886,-0.19188157959431779,-11.779531491310973,2.26248174780173,99.97342257274772
1000,-0.07723562566206248,0.055932019520583624,1.0835714169067348,-5.913927266984885,6.0719712613692085,10.38255236948147,100.0481395428979
1020,-0.05220616282843389,-0.02883782274685151,0.9867664413449193,5.20804599959913,2.448759023677729,-6.324285819034564,100.00012731314868
1040,-0.012327474170771631,-0.016557272679232484,1.049836298473422,12.909719569912154,-7.650688497745676,20.603037781468885,100.00945864432602
1060,0.02028145222770844,-0.06711161796586655,1.074317012085517,1.0455866704942582,24.420688319142926,-2.0389491979166183,99.96654561661565
1080,-0.01870162840887971,0.02370488942386128,0.9051356670853193,-2.4920159798896697,5.129248464549567,8.365471702571337,100.0063887231542
1100,0.014106297895744366,-0.014163645514004779,0.9253726163284902,17.447880858759117,2.2190503239539425,8.413759246289075,99.97787839463479
1120,-0.007491077941458782,0.030577434458793226,1.0226611455769308,7.2309182499933256,-10.185532598700805,5.3387534162531765,99.98043378406977
1140,0.034782007507735316,0.06185579229269235,0.968535856798481,-16.815291986555728,-8.109441618082663,-2.6801954634301923,99.97750468942225
1160,-0.07328282845898192,0.02110837648831252,1.0019832426970063,16.60929836962932,0.49497503626552175,13.273747442309759,99.97867796395884
1180,0.03079585005860616,-0.03352451508675439,1.0358360314562207,-1.278983661674181,9.75409162600943,-15.916520891402145,99.9771670911529
1200,0.011434874403102034,0.06375457830306658,0.9290534128413683,3.8480285670868506,-6.243823457920746,7.248017018007653,100.00139958298676
1220,-0.0067137815241974765,-0.03362505012542571,1.0146817890100934,-6.123057620099402,-16.854208035543508,-13.867685473022604,100.00994768197573
1240,0.1014811855340275,0.02240970527070245,0.9118029206767826,8.222672337086282,-6.092169017301295,3.066734216531887,100.00503774179647
1260,0.005998816421550921,0.09121999878821134,1.1173457309873713,-21.667485234171316,4.079425455078095,-0.15195673839893326,99.99728368443229
1280,-0.006657558275095787,0.03785695796895885,0.8941343529982054,-13.44838762020495,13.728065302491174,6.078657194543032,100.00524303234427
1300,0.017937510920137675,-0.05024893898987427,0.9926104320681296,-14.186436038110433,-8.492785313863196,1.023165308605075,100.03315078583029
1320,-0.015254443633693477,0.004248146874872298,0.982376177882541,26.38263848745511,-0.057914848755537374,-9.207658926155293,100.0128628448582
1340,0.026809347771452576,0.05539322161437217,1.0213785881247899,7.5727274352575655,3.477996040121586,7.21531091713441,99.96958458066524
1360,-0.02567260279018299,0.010616897954811851,0.9867245148908498,-7.929994484707484,7.106656920137397,-30.080612166054955,99.95952416069905
1380,0.029483614610441133,0.003769831123345644,1.0406593086678186,3.95461461057082,-13.57422834786913,-15.993610666383905,100.01261980281143
1400,0.028336621758506476,-0.08237934776343973,0.99455881539052,-9.582562938326507,-3.770699532646719,-4.195134502085761,100.00421964449748
1420,-0.04151980097366031,-0.019574059630445274,0.9897034431066245,5.119002147697109,-11.27782034208126,2.108289032783678,100.01567655898444
1440,0.020846660673535602,0.06029851884700828,1.0123814041587336,-6.128814393822287,3.236246066292458,10.069917924930376,99.96549061616498
1460,0.004441342666500784,-0.0032788158293921028,0.9079655981184811,12.628778622910744,16.031450463508186,-15.496321282504535,99.993488886987
1480,-0.0013578657401219344,0.006194779329211919,1.0844122757286165,-1.7849482856519696,11.04983351094647,6.682149523716014,100.00928262907036
1500,-0.029410730131657223,0.049957674316382004,1.0190429949462476,-17.65962383787817,-20.29341129271737,6.524974351027293,99.98501117507772
1520,0.08602409765151618,2.3209667539218225e-05,1.0259862884806112,15.800399100372609,-11.197076450739994,1.0238260766470249,100.01677882443536
1540,0.044728878269184986,0.054992320931196305,0.9690817222482978,1.5695833440386575,19.795472959529402,-1.2157727619619132,99.99898566724201
1560,-0.04613888135255272,-0.07341124660797976,1.0154028848521461,13.066973757102602,6.51360973576924,-1.1341289109982382,100.02151465815595
1580,-0.03726464846616147,0.056638199737174634,0.9750161790274384,-13.39594388721708,-5.539113951020175,13.500986061269376,100.03395648621338
1600,0.09734994947382047,-0.04875252809283981,1.0855817940424992,-2.1086333540432167,4.680403752884535,-13.077974009015175,100.01177473717723
1620,0.005411841801532806,-0.021553754524405142,0.9911163196340018,-22.730493887214383,-12.036160275627342,16.826756869198174,100.00875059940702
1640,-0.0008816523926187778,-0.03270562851342152,1.0137498451422635,5.201065740119867,-9.45644095352131,-18.118311851384238,99.97148905949203
1660,0.02246419543338841,-0.0027079170364302085,0.9580093089386637,20.426268119012164,-0.8786494586460543,-0.210152023336117,100.02992851759551
1680,-0.01528276079793594,-0.03918107922977984,0.9966159330351634,-13.535794568053849,13.6521981203662,-1.9291551061743322,99.98613816195638
1700,-0.014178842872217054,0.0016328118620004943,1.0241960641207524,-6.183289780525923,-19.283237230763657,4.253314709316655,99.99405593059048
1720,0.12618585282997932,-0.02696001465876065,1.0349492987109528,2.107547261287707,-11.427206751232776,-3.504549401414409,100.00637364723775
1740,0.005170877093987118,0.013273577609943714,0.9565746662269681,-15.35408591928953,-11.88060142751023,14.792754032356697,99.97725956221016
1760,-0.0706485812942326,0.008052346127801278,1.0118338452428948,-15.90759144667063,0.44167080166132167,6.918575355795369,99.99817417225384
1780,-0.09846351389596242,0.07367888673897649,0.9885547243600297,10.387837129152425,-12.758045448246655,2.3947895475959626,100.02644699979211
1800,0.029915872072413602,-0.017998858663081856,1.0368338274435922,2.034128208206508,-10.373625881623754,-1.776199423717172,99.96048823609578
1820,0.1444592267649823,-0.012744504479148515,0.9645854299332344,12.268697728469766,5.6543639780049615,5.488914435001066,99.97411251686624
1840,-0.02335869116136964,-0.013163709556317038,0.9974092015222917,34.75516446890928,-1.7287429208557321,-19.424383244569267,100.01072218760275
1860,-0.07517431416616908,-0.017661502455352713,1.014321601718292,8.82141327657475,-0.8666115601633007,-8.14381591234951,99.99486623679988
1880,0.028912764639699818,-0.05533546513653407,0.9741448966037594,-5.169792914904343,-11.801334176241872,0.9135063067075999,100.02506272874393
1900,-0.05350665426204376,-0.009846403659122288,1.0132008286567722,-7.674019722530394,-8.934717398225434,17.53283720769994,99.98044043515259
1920,-0.028426129724585886,-0.000764738616743354,0.9544579086331153,8.968168657843007,13.647566817567185,-9.55580938938137,99.9998398300708
1940,-0.09085089525108142,-0.07772527486341392,0.9479143586758352,-9.973570902082056,-14.634923066604173,6.940961295650954,100.02623550910002
1960,-0.03817896373107771,0.03598923976698593,0.967294311078117,8.326637751867027,3.2024970660287515,6.683893071409178,99.99771395378963
1980,0.0280056166453852,-0.02689742721177085,1.0057894142460067,15.267608543087306,-3.915391172024803,6.66766542376,99.99797998387692
2000,0.06322888648220464,0.012794660292794656,0.9533671596045626,-10.078855399835355,-16.560314242047564,0.11305202137929973,99.98795522349829
2020,-0.003154041801893985,-0.006295705868890173,1.0884121244258131,-31.797943520434785,7.375368462622644,7.693735862840365,100.00405330514596
2040,-0.019093565852180448,-0.0003779264441272118,1.0864232207767741,10.547369248038628,0.50429537681635,-18.52567938014389,99.99590944429393
2060,-0.01497856910715629,-0.05790461483487844,0.9839158368338468,-23.499960621289286,-8.509148706615493,14.159096316695148,99.99391873919676
2080,-0.0495225848664968,-0.0071160546021583355,1.0043964911402732,1.596835448869156,1.6421063787260497,-22.63732578506043,100.0355778483881
2100,-0.033927694876878876,-0.0024351235874575474,0.9164224765373076,20.38085669498156,13.938305745008176,-4.519162582601571,100.0203298361892
2120,-0.059698897192010096,0.01520875095235416,1.0103968532004486,-8.813028856187582,6.090777718298826,0.7625688943368817,99.99052137396428
2140,0.02452243894178299,-0.018691391927478845,1.0385824447249903,-11.736996269619473,-11.120850679865459,-8.801024858621986,100.0372224044414
2160,-0.08240764757733794,-0.07448276221571316,0.9699599411365105,14.059168481862677,-12.256661163120562,5.2491832409215995,99.97503957626705
2180,-0.012758653746251507,0.003975263772348905,1.0402174567985112,12.404728692068241,-0.2761893444817968,-10.038083856874625,100.00318275914324
2200,0.014428876269195543,0.013277562143057177,1.0213973985016105,-8.636290363872476,8.586464921168112,-20.3825165990023,99.98485600819149
2220,0.07473914897281646,0.02351597792106947,0.9693058827493382,14.286681704956248,23.5839854662263,-19.953719552441253,100.03803484169934
2240,0.022780345763289928,0.04607993068335421,0.9852789382986312,-26.577462591148503,-2.6822668884293335,-1.4665811825520239,99.99458598601795
2260,-0.022067499104882465,0.0012486608907868724,0.950020086748247,21.013767649871838,-12.02144578918561,0.5615020955503797,100.00892861636302
2280,0.0055803867360270775,0.0319584787884585,0.98814787265233,0.4017720046007011,-27.01666418539467,29.730394095064305,100.01233888026172
2300,0.05325676606882658,-0.029661062587359954,0.9296691767318278,4.422954918001391,-17.30595751656657,-17.212075128614256,99.99525366597562
2320,0.009484646553824718,-0.0017331804025685741,0.9593539995142488,3.3975764448945447,17.142139877364627,2.1946099181824206,99.9567529767043
2340,0.003623100396208587,-0.07507569320348594,1.0102556784369585,13.224408660591031,-18.768166104204848,-8.38709612733216,100.01685248514158
2360,-0.09855987021952442,-0.07259843114187996,0.9498436982541834,6.007089223332013,0.24263284399290988,-8.776449741725727,99.98765704228707
2380,0.048283395023862294,-0.10134049469516795,0.8973324769403531,-22.109211193609514,-11.540538837867716,-4.769720392119762,100.04085793633836
2400,0.023524509449126284,-0.0002579948510527367,0.9869042659582006,-2.4775945455474937,-12.541916780670878,9.933587715871397,100.01737389349698
2420,-0.007583181348162742,-0.027279435980662643,1.0654896181674405,-8.416986421718397,0.5173350216367014,-15.804888703645865,99.99727898536226
2440,0.01661216574597153,-0.0182519630741724,0.9498112598109207,-8.446311766621754,-1.0160445388268262,10.606318823368232,100.02256812594332
2460,-0.017096769106132465,-0.024098992309880215,0.9615865300340574,-18.539459198628137,-2.9788860937096397,19.016042884565064,99.95971797248427
2480,-0.026321825874649336,-0.08132761279485218,1.0360227246726883,-12.718876485004067,-4.627471025315265,5.345900289919129,100.00694302588667
2500,-0.027967355544206637,0.08702105040835548,0.986651161006684,-8.159362686910557,-14.022075541716283,-6.171089780303896,100.00125880773525
2520,-0.10500286166622222,-0.0675401974839553,0.92948824558412,-4.284702209785102,12.780625153917864,30.709706337537124,99.57221369282357
2540,0.04389048971008428,-0.009374176839901091,0.9624786266781024,-7.786148977187573,2.247126667245319,-3.157225709106675,99.56139846761663
2560,-0.007595740606671568,-0.03711044300728761,1.089317888454164,1.115192762427748,9.302408302821132,8.482727081760647,99.5757517984828
2580,0.05521612159694944,0.014533541295730338,0.9612510621557616,-12.948004358497752,1.2500414747131043,-3.8558480411293057,99.57962313152223
2600,0.016669802367425532,0.05052225901991014,0.9809838854989125,-9.002605828747198,12.009737508912284,-15.289089632687528,99.52448475296121
2620,0.006277475070828585,0.0011550365257436805,0.31251469018796374,78.65561858870129,79.43911533728127,72.96520102153701,99.55280101155329
2640,-0.006276993871240486,0.07220193500120345,0.4094425173795634,68.88823550579173,66.25761865684751,80.82043496103313,99.51866779424465
2660,-0.02733064425950088,0.035674664712784264,0.43482387701130754,64.16449235584977,86.82999751324212,86.3679217367418,99.57023409770163
2680,-0.020863152535253737,0.06069546726184632,0.4150596609661377,92.16461939587845,75.56094260588972,85.5340349881018,99.5285927846867
2700,0.10703449967666907,0.02274882667795163,0.39963856871215936,88.01016161332655,85.99076067219804,81.95081438925283,99.5394462444165
2720,-0.01763724124219045,0.016345417513972275,0.4073806271241405,95.12762985144431,86.52533221593481,80.04881458304145,99.54147283060182
2740,0.06718812243014466,0.04676007219003778,0.32423164416297046,79.33807940292876,70.86052944611718,85.36614989582687,99.54994945570076
2760,-0.0657601543974395,0.04547637938440999,0.3827090626504256,91.32986934065238,80.09727860350836,74.69300370423201,99.54246121818784
2780,0.006957622082816817,-0.008249482175595565,0.3346147340006075,89.32199440190716,58.25860981327178,89.11375406880376,99.56893568145834
2800,-0.04930456419001385,-0.08509560917777903,0.406949759508363,82.84114096438898,86.42763790956623,53.24750565674508,99.58318082187249
2820,-0.003281223113551537,-0.020163932494227793,0.3693633330960055,80.10033965054866,103.76346702135857,93.5698404467471,99.52636837185621
2840,0.02798918714501879,0.060284231525471355,0.428505165890082,59.6986887504121,78.13067587423757,92.5284892679711,99.57524780416117
2860,0.02726011405764149,-0.016078629354452492,0.3480087786552034,82.70534598228308,78.99933217054881,64.92897568050998,99.5316329752719
2880,-0.007677940573760993,0.0178952947310677,0.28466767244760466,95.39741228069258,63.861995817857945,72.78305946652627,99.56667754246737
2900,-0.107618406397881,-0.05620200338662423,0.33915512160268546,89.05442625004068,69.00322255508796,70.56692299031647,99.56284391618856
2920,-0.03153552327389131,-0.05539248255754231,0.298605710978893,90.98053991004102,85.18920434165564,89.97499657378594,99.54869876747154
2940,0.022421772121623374,-0.003421947059690609,0.3112159360758491,68.37440579593168,61.730510832299544,78.70106408391071,99.53854628014498
2960,0.04268438734089345,-0.09594488828246044,0.31508581068575536,81.9537220688334,79.36810657034978,75.26550964522377,99.54430686697783
2980,-0.06033066437960321,0.0018815326200340534,0.411795076994298,65.12810405279345,87.53813724097967,67.59415406890027,99.56638223561802
3000,-0.003250051673465116,0.05924217419121561,0.36793942098505505,82.01528434487145,98.2550632331255,78.79599592068355,99.5499957060563
3020,0.054019565053582075,0.08113240664936897,0.33256114611274695,58.54632037645211,103.4157407622349,66.58926452530004,99.52209593738682
3040,0.01716344455600987,0.014094333110625093,0.2799099879215235,71.71102946428675,84.38870597604492,97.62620455989378,99.56105225282964
3060,-0.029037412313708745,-0.06473989571573574,0.33812842431177526,85.79726989170594,74.6743045145832,70.48805964824167,99.55131305196856
3080,-0.00757973220104826,0.036483208106634184,0.3880128778027437,61.960016356498,81.78713449433242,85.95572243735978,99.54093160017506
3100,0.012359347149362512,0.021099259285586716,0.4301168413741466,105.10464196559337,84.03004145999209,99.03881903673428,99.51977106010304
3120,-0.09802513285203768,0.05137563299062586,0.30725139752695363,65.95971795145255,89.74600011569184,89.70111315045921,99.55262203830917
3140,0.10074802874004368,0.019311428120237818,0.3784564250136426,77.63899597218827,81.93842660185872,89.45398658658765,99.5351231691078
3160,0.10186739873084408,0.011584150124974508,0.37765007692053226,98.50851378381677,83.74871820679711,88.80536386717222,99.54471946416466
3180,-0.0641426746887839,0.0038889150497916215,0.34043318063247496,111.6043316064949,91.25944357396791,70.05003518927953,99.52521139847079
3200,-0.015548847523703153,-0.04246394215369825,0.3174814486294088,55.38934099535606,73.76982220300759,88.6479424345634,99.54736962171306
3220,-0.02662941055610395,-0.051122799262286425,0.3350812781312619,50.39461798096219,91.13600092802632,86.65252473757606,99.54829388581496
3240,-0.09459756386974089,0.0073676256116723855,0.45089063056534207,81.54952529121152,75.77257408794256,92.89009573863854,99.57034206770152
3260,-0.0735760403302625,0.0037533976498455644,0.47555919384794143,85.53084742858609,62.408517201355195,70.34804357046804,99.55127756209353
3280,-0.07561297573451173,-0.09665933107939473,0.38766238194764735,94.93380276713407,82.19015816754775,59.61773241765431,99.53893626870361
3300,0.014927081327168967,-0.0366203278821273,0.32910410079529984,59.499521053640834,101.61122540224426,68.24828232633645,99.57818432106853
3320,-0.014130017919637104,0.004089859531872293,0.4070075406012449,66.13565469249961,59.19628526220242,80.62810269769467,99.53772136766622
3340,-0.013238927432320797,0.04291797358792757,0.3645397739517622,98.85273440289366,96.37144884845523,97.22280876904833,99.55332129931199
3360,0.07255139081026198,-0.02327962571740148,0.29104705461559965,80.80187068787541,79.4898382266555,84.19797639218869,99.55927543083338
3380,0.11553416933415467,-0.034001888602758025,0.3417878025102225,72.81637907577884,70.28400973667208,79.09062921403154,99.56313669112366
3400,0.00633226071281164,-0.004417062621521268,0.37725246358108433,88.02212905130312,64.94496327986369,66.96910612985715,99.55142267651809
3420,-0.037120394948609255,0.017152292296131084,0.4014853447524848,64.0059503035198,91.44173246947852,69.939302674076,99.5768308870646
3440,0.03872418461779532,-0.04383785336249026,0.25726590387203363,74.15043224354193,89.48211939917988,83.98486754239411,99.55146305757418
3460,-0.031933770941080034,0.054061066956329264,0.290754091869434,88.08794789378612,76.7288914118692,71.7581355754638,99.54757578220052
3480,-0.013507378602544551,0.03305073009213413,0.29303166666359526,88.67801001903103,82.71386482013396,80.22513653640742,99.55576477678504
3500,-0.024396507740932473,0.05645174199304246,0.36522983484594956,94.00105597418519,80.18378621198435,99.17831574992046,99.59777327746171
3520,0.013440063236839384,0.0005168471870956944,0.2959169023544709,83.26059489362927,61.620884544256704,69.90848987121763,99.56558908814762
3540,0.02461818966376248,-0.039959977163232574,0.2763230775368424,82.9406495303273,62.8834679766567,49.834349191176244,99.53720410809028
3560,-0.09109019077509338,-0.006822361744396401,0.32950038149626226,63.911511192636546,66.0655725619122,70.36976648797861,99.53113640268135
3580,-0.0749311280266472,-0.025732586209093675,0.33327238997268993,51.133821309111866,85.42585206335355,84.54421039313127,99.54412429168062
3600,0.03783418769057692,-0.0025574691803866186,0.39173062611191173,70.15847394478364,89.05811736285519,66.23780577211068,99.55673406840289
3620,-0.06675280683472166,-0.07979481251935971,0.38163038964473206,55.57672057364721,80.9847092366656,61.15296806941904,99.57189455960192
3640,-0.003543829440616616,0.06614689873669516,0.28978120184172557,62.21885206925691,82.18823685161651,77.51048466795403,99.59045382099488
3660,0.07071843063939735,0.014607145097545167,0.32241976118231747,102.52683866916651,72.78523617053644,87.24235609065636,99.54854679543631
3680,0.011425217680005859,-0.03126129619278446,0.3325553509977154,78.33058232720866,95.66593757730087,75.16538634494265,99.5523840687202
3700,-0.001511729260812324,0.01338786504855043,0.37857986659354154,60.95810219227293,105.45897925808939,68.9170598954714,99.53748275181745
3720,-0.007506238298025915,-0.03785120843503223,0.457084863446313,75.53608936983689,104.167423234963,79.17510300893258,99.54677449269141
3740,-0.016195956171571414,0.025958227092170823,0.2755068399031919,76.97998690428193,75.69903304926785,98.00511438695099,99.58103218301271
3760,-0.08232691590178334,0.010496523030249368,0.3974488624198682,91.753444973706,76.75573179581895,67.2964476039159,99.55688912472824
3780,-0.07194079439983916,0.03737076428699958,0.30435759789607925,74.31057230236401,55.52255377308073,80.66144401731812,99.56487453650881
3800,0.03716578073971726,0.057554672590617674,0.37242240764552664,62.551358724845265,74.13761012640846,100.0297852102313,99.55970343516911
3820,0.05870342275121319,-0.0036246167976071936,0.260943915633515,75.76091152143691,55.69644868883739,88.81423400095144,99.53714033044157
3840,0.03351867778298907,0.0060751703288219674,0.3318874487598547,81.85924056884744,78.81870460616238,84.79516899621136,99.5285904963338
3860,-0.05371600707156089,0.0324142461161055,0.33906383977980287,79.89722729975676,58.85308264880796,77.3956802556323,99.53427649143369
3880,0.021591459766139534,-0.0009956506809204516,0.3096548250969166,98.90490625438386,102.61463587997005,81.04859195609303,99.54305961269017
3900,0.04703946230068217,0.02261168501313105,0.37904307836706447,93.06737646286548,53.39117358687548,85.9108776897148,99.54440870229455
3920,0.0037203526220869103,0.010600645782734681,0.35633089358429365,81.2173004862617,65.20886499822183,89.94452921812943,99.55408467064018
3940,0.05714461214112257,-0.018720025958517156,0.3322529484149317,66.07100752034512,90.53133060547597,95.6916552608435,99.54221654226147
3960,0.012009422870361447,0.032494089049166536,0.32603873648735615,86.98829929707983,79.91756684817948,87.10388298007508,99.54071258232271
3980,-0.06760658393190916,0.023135632812049892,0.37389285123179894,73.19256235773332,63.11334202866201,88.38313803148856,99.5490135694035
4000,-0.04009966763824541,-0.04883827902503196,0.395970295831902,99.30825996843545,83.2714367270222,67.12910545604834,99.54792502448403
4019,0.0593680315574715,-0.008143666985147428,0.39034255156719067,84.13348469958407,81.02544719408584,72.58128424563041,99.55186569940719
4040,0.03849187688735067,0.028446072625204172,0.31363144155051037,86.63240069014833,75.54715695963154,76.59599747871903,99.56772704278971
4059,-0.007509615278602811,0.013350324732795987,0.2937515586572262,73.57537621923602,90.0384864611909,89.53437528770942,99.5541539852916
4080,0.010598302772364041,-0.016668117254655532,0.2540730119416983,92.00647793704343,72.39210969174908,69.35739949762672,99.57176282822698
4100,-0.04478470741541366,-0.002248042537712895,0.313682951754982,85.36887748767747,63.73277601609537,79.51670684426452,99.55149577262355
4120,-0.011428648797040026,0.036882168579346744,0.3568733085314204,57.281481620321415,86.3065248522794,71.11529534262507,99.53826284070638
4140,0.05392510228420268,0.057647949582277674,0.29821524709283964,89.4786173293983,91.77267144059734,64.43488274227676,99.5624572089247
4160,-0.08341968638995075,0.10990451191880111,0.40832036350870926,83.82598368053675,61.35220346178708,71.09748850714281,99.55242102868449
4180,-0.10139653302243955,-0.045308009608370864,0.3381884182618855,66.50629373108613,85.2355717698641,69.19997694297042,99.55839880287154
4200,0.03809352045584735,-0.007326377426940436,0.36559580966612104,54.88955286716897,77.27342600457277,69.59171743766028,99.56963449444459
4220,0.009723816731462082,-0.03328829810468523,0.3708561671498715,78.68710274252398,94.20137757357416,77.51112512296547,99.54187330110165
4240,0.027194493940727305,-0.018684436106099874,0.3479034587822352,68.49963202020977,74.88089295905404,88.7214679891846,99.531378244552
4260,-0.03626467963809027,-0.07649063389485511,0.4009618273703926,99.50488651590082,82.69618550819945,69.49004088341533,99.53064682541404
4280,-0.06749462361810173,-0.11276025295714087,0.3134113887536314,75.3909731997915,77.7751282797708,83.45278617317808,99.56428556193043
4300,0.012881904714498668,0.030821414398495423,0.3855937505817544,75.07561844655467,62.49478715403819,94.93338868695993,99.5638822463585
4320,0.09673318138511322,-0.0008081521154945997,0.3895682098630904,81.19320156110055,89.95718809390551,90.46572903312651,99.5666579684324
4340,0.10332983228310484,-0.003377132698427857,0.40579348840557705,65.11525205754103,95.20196427159718,78.36312172019271,99.5433702626301
4360,0.04500282576004594,0.008751337956508336,0.25545649979308493,98.17697892254277,80.16253106377712,67.5934082483077,99.55577877432974
4380,-0.03562062994429781,-0.05929735664911278,0.4149274577272552,77.7615914483841,91.010177521204,92.35088567321829,99.54244522308288
4400,0.015762142612731178,-0.07876848047504302,0.33650306178082845,68.7005252196597,58.17143312391492,68.40847185817253,99.52937806257948
4420,-0.0855998652757519,-0.03145025893722508,0.43831671710126113,70.90279758020779,67.91139897751104,46.857878083253674,99.54970553403122
4440,0.031163074518602243,-0.009945814958309604,0.27075006466435114,64.42946374058755,97.57483358862268,95.33894452996324,99.53953321513762
4460,-0.06591192441699392,0.009963373079725165,0.2642437813832447,84.20247476873676,58.74528359127048,68.63182581168601,99.52388839472836
4480,0.030773810964779304,-0.05752767783279479,0.34357848274745506,78.62708419372682,74.96818631039096,99.14988434141719,99.52632803787289
4500,-0.04345321961055376,0.04568173949593207,0.37524170046953476,78.7008029935832,73.07174322139485,90.5651871134529,99.56292385447277
4520,-0.02257760405603365,0.036565521727884014,0.3117416714593674,73.19808615118409,74.50540612434513,76.54627781660372,99.51883749356216
4540,0.05398950795349199,0.034852329151671926,0.32619628884689333,77.87091614512491,77.48529224425872,79.33775697356528,99.56083272414156
4560,0.08273736527045598,0.04248972742110021,0.3860480399367826,76.88358969098155,63.923497050638275,70.91909436538076,99.53356902338392
4580,-0.00849495650482724,-0.019638509995820962,0.38715506005514866,91.30773274836702,72.04884265868903,89.89250965322172,99.55229973516026
4600,0.020728028827175348,-0.005785162583276229,0.3360245944604538,79.05962675357286,100.66907318102233,82.83229368126035,99.5451273923626
4620,-0.0011229878133461732,-0.0020482868726456275,0.3742353070456008,87.31885810849114,70.75232394549757,94.59243663387787,99.54371279828491
4640,0.10816941244390349,-0.07583279926918161,0.3266503899766801,99.63531664533654,70.96128435279167,68.08268672330274,99.53751061675764
4660,-0.05934177077313162,0.03504531759999551,0.3039905736306525,73.75478439840005,64.09448879814698,91.28427948819137,99.5469403255907
4680,-0.029642372930699087,0.042569918601842754,0.40546137323508835,114.67570464974052,76.79266577707638,103.75401797785398,99.59197644411658
4700,0.04109814474558058,0.03358928548888161,0.37456519020796547,96.88714301682344,70.00464839946062,80.28779810377348,99.53945332285147
4720,0.05541112233963023,0.06956493426469426,0.36243305703592127,56.901692764499884,72.01000925390905,89.09129406372826,99.54607766640598
4740,-0.052846723710741755,0.013962092562005311,0.4314243957023492,83.39793890338981,83.16162933345562,93.27880389780304,99.5668787996586
4760,0.091149031357095,0.004420776737179616,0.3334994772299672,67.36291796861136,75.53271915963958,78.6489316039935,99.5407012755059
4780,-0.0010990696361589945,0.08106088113995098,0.3367914273121959,59.63746780683232,95.81480947629342,69.33242285120235,99.53578304249271
4800,0.03102903793484628,-0.06370837084693154,0.389260637889477,95.7595221795367,76.80979639632417,97.5425222055444,99.54907938282264
4820,0.007965936716731889,0.014618730991880683,0.3029722465890767,73.42685620515941,75.66174923302108,100.104963127694,99.5219456088575
4840,-0.03405700829939876,0.005127144480128219,0.41833008930710974,72.30563578617065,84.54995304938258,95.32015742567538,99.5585757869901
4860,0.06768620694354986,0.034462604105190565,0.38593889336454007,84.39530793907743,72.94802081612211,90.32109181973166,99.53555354372875
4880,-0.0446821839062935,-0.01139634175849509,0.328974540100837,79.50662688537516,63.856143404659306,91.18551523978248,99.57333270821891
4900,0.003685185776704611,-0.13257759861684382,0.46597440462979417,96.05997206851832,77.90818024799913,89.04947408623293,99.5456326403847
4920,0.062112042126446165,-0.10723784751017712,0.30457825107548314,90.29450067509988,63.0095053113713,95.11735732394592,99.5374302509617
4940,-0.05180586633171169,0.07508056734157625,0.3665117074836479,88.41597487278212,78.77419433895598,77.09307152722631,99.57035803525937
4960,-0.06021985017702312,-0.03600255279793958,0.41233598981822295,86.64056700140542,65.6359244510299,59.288772913334554,99.535904476431
4980,-0.008728454315609362,0.0680871059980258,0.39820735950185515,76.98784088755394,70.29548208720834,80.00777098040648,99.52101348798038
5000,-0.027438757882601545,0.025413061990208697,0.38212038052325886,85.34830382786318,70.70651663470233,71.85585939569864,99.57358703133335
5020,-0.06623002628680756,-0.008351331126097582,0.36782925417244144,85.14244057739988,71.98120187175559,70.87822760158153,99.55658486792193
5040,-0.008196948564673196,0.04947648972773269,0.3645627372655619,67.16671164683851,70.67241616817621,88.97364387205057,99.54259761954891
5060,-0.09833266485858165,-0.032644557839567136,0.2778028714816875,94.09721052004946,74.5234210161552,80.05209872715116,99.54913314883999
5080,-0.09432849385795611,-0.07475590409646321,0.4381443675311844,60.07337744861654,77.62002022869235,83.00937901479799,99.53468654941182
5100,0.006887885140678541,-0.01707883202956041,0.41125146927340067,86.83981402791545,53.75906194054713,80.8640799948685,99.58335303191656
5120,0.006299928064769561,-0.06667215658760667,0.45062195872015914,64.37991563579395,93.94290010291175,91.51439360586546,99.59037411992114
5140,0.03913370087423805,0.0630156023462448,0.3216793004003417,62.89368297412348,85.3999512816724,72.17471205462395,99.56842352147476
5160,-0.08683560379333125,-0.03412422832655399,0.2949002739215478,73.10419248487746,88.47620730044576,72.94621919170311,99.55874970391123
5180,0.12314561745215827,-0.023289485626731665,0.38796417781300063,72.53755833517705,93.62506510468404,87.26913484025312,99.55377396174843
5200,0.0765438524948639,-0.1098670587987105,0.4139220897044401,60.96409238397186,86.14317927807859,83.53274977572929,99.55355124522762
5220,-0.008193290606506426,0.038871551931867254,0.3558696248665705,87.41407485564075,54.34262430223351,65.24065578789285,99.55649266079543
5240,-0.025500934506164214,0.017243755458833852,0.2647232360563149,56.27421971635969,82.84104630625009,68.94963478704418,99.53637757956992
5260,-0.02503505413446986,0.029758881450297637,0.37685249249608493,87.99871610238397,61.68287495015714,52.602692531878915,99.55599387434687
5280,0.06687168612525898,0.025586783989137846,0.3790952718475871,80.63685149238445,67.63477402977766,75.30591968359428,99.52932833312829
5300,0.039917263903225524,-0.0022822280482154384,0.3583944613854789,95.52113654872173,65.69226463946242,75.7455113653365,99.59513492250467
5320,0.0010583979996517466,-0.0018900227550709314,0.3197675040978642,75.8334156983583,66.60010164823711,77.36756677161806,99.56556892299515
5340,0.04016343150637922,0.10715942477969619,0.3208641153423727,79.71841200725827,58.699993694542215,50.803182645740186,99.55434366479332
5360,0.04825911133185856,0.014372492959817238,0.38652643582685026,80.92543377919021,82.64211135260959,90.8451539709248,99.55523384215779
5380,0.019566390923243075,0.003589734391328003,0.3124762722546184,91.17606967780856,81.8827064717925,75.06522010311977,99.53058709516206
5400,-0.08551094324734429,-0.04059288061861101,0.4081719479133903,80.29004376897691,103.42347205510923,73.07377635989428,99.51920106079942
5420,-0.006566197547512637,-0.0021081764659813844,0.34363539765795426,89.24212411675845,91.2710808086488,93.16184953097641,99.52489693319853
5440,0.009208450457825765,7.45073256328675e-05,0.3346940585445832,89.87888410494813,83.10141428759943,63.13954157221944,99.49399573509731
5460,0.08552827723947776,0.07107814456531023,0.4177807925095801,68.00972275031302,76.1355019285036,83.7270005046245,99.54425932668686
5480,0.05722870341168417,0.04125718083900998,0.3900014469228544,81.74977504421018,94.649830737206,66.0241843453761,99.54407291504562
5500,-0.029045473116167737,0.06981963720195893,0.3154196925810184,66.08839431331491,92.99896859101406,78.58727941911478,99.554026171603
5520,-0.04964667860083865,0.03846633745924484,0.34314594168386514,78.55607206456753,80.27143309735713,90.73567288157234,99.54748651902851
5540,0.05733833926146436,-0.015609147916147467,0.34169604289110994,90.12194890237349,87.97058004551907,109.57277004038463,99.60339456743706
5560,-0.0029513250695602337,-0.08047186697043188,0.3076349868057627,90.62249062565162,73.81441348385638,82.18164159920272,99.52716325872818
5580,-0.06165052089441286,-0.04450693321202651,0.3984198479281745,102.58900144607082,66.41985596196916,90.16963103907612,99.57385986509502
5600,0.0797618129055162,-0.002680642018347253,0.3522398936091803,71.8704446847343,63.9409074636484,70.71840089076986,99.57876061223898
5620,-0.04145012043954576,0.09599709980400435,0.3034781970892462,77.91960531380894,94.53137712400742,71.86546482880567,99.52452996815435
5640,-0.11778309283223501,0.032827459702456714,0.3890431650789724,98.46316778621178,78.68410380864813,94.1147783608869,99.58045653093308
5660,0.026030082794408816,0.06628463893681732,0.31217016779685247,80.47632189503244,69.3446273088116,99.68541955549814,99.55309964639245
5680,0.020362323385188966,-0.055127315836774965,0.34251876917602925,71.48206997947598,79.45050732819848,99.57040845176132,99.52773347775774
5700,-0.06561909234763101,-0.03637604767369242,0.3494982233348666,55.93071732173784,65.26171607500156,91.37306792884488,99.55093893871329
5720,0.0049151802133344455,0.049170294028496694,0.261528474859577,70.72514520280696,77.81165041974181,88.21916654116794,99.55338908691114
5740,0.00927853739434717,-0.003754973830038314,0.35329112934404966,51.92603855952012,113.4131218831102,83.9513861357803,99.56497582373237
5760,0.0063727817835650185,0.040285746536362035,0.4863065885931691,57.92765214654022,95.73319765594046,71.1167044420362,99.5542264995722
5780,0.006764701848850224,0.025372863111139062,0.36986513974958174,101.92481432564425,100.94021756126094,74.68492360135733,99.56321448917733
5800,-0.009092819987494838,0.026009591305192786,0.35333529489434923,71.29675192613973,61.4528306984348,92.128886823546,99.55111482571165
5820,0.1040998492722797,-0.026403047282195436,0.2664843045169699,67.86100924566288,80.88300193930804,78.94926660012715,99.55283254130397
5840,0.030503567424969708,0.02231401029178368,0.33564929845254077,82.71192228423506,70.80748153606773,81.36339225347756,99.54536341054697
5860,-0.05964205357710907,0.10328655887661822,0.37692843908046353,70.67436843061964,81.78648187517337,78.48317051827595,99.50240565512958
5880,-0.0030686762599323007,-0.04026554342378222,0.3351711413798486,82.21634211021905,90.82574281226933,72.7229971101851,99.53366174952282
5900,0.02612545421116303,-0.0525627176302796,0.3277950429610674,84.80623161258521,96.34607587783465,78.98105604832396,99.58606657058021
5920,-0.051080383664866474,-0.1038769799803188,0.33047255157692373,89.03259825050861,102.10585672747874,81.67223627698777,99.5525467457423
5940,-0.01896051441608969,0.02664634229789232,0.34086767966253245,86.68533987207928,83.1881798012302,101.55676530061574,99.55404116740445
5960,-0.05512994359221939,-0.005582232096062351,0.30745421389627203,63.41638855357259,77.5659642425644,76.43872146335653,99.55433013159156
5980,0.0017357015495484145,0.033945658568668394,0.33628442620876653,76.1992479664155,80.6952793492491,85.69703744616844,99.56316559867207
6000,0.005257256815678498,-0.0401393853907995,0.3746509063229721,75.93751369058312,70.22772956850947,68.05266848117343,99.54742194374019
6020,-0.02568931112725821,0.006373707197749736,0.31887069019607034,97.4548140947521,81.35787619462864,85.89713712000125,99.55354853520389
6040,0.06321980214833677,0.0022880945836011466,0.39657235710550787,92.89005517422203,86.2044534224524,79.80019258268847,99.56708444436283
6060,-0.07267883746460341,0.028311990497849146,0.3878941747055592,82.74627534283549,96.97096840195427,88.11090621908711,99.56044497411703
6080,-0.018658955120269317,0.10209745675809082,0.31254124106253267,83.47829318150555,73.08012401407402,78.4683207450325,99.56089366591914
6100,-0.006054758716744863,0.004249643337391329,0.34523276658448177,68.40155922885208,72.91782853625497,63.29502003800553,99.56624306591135
6120,0.04323578223295566,0.026483544850704602,0.3777899180196638,95.11512023567451,79.45277637077936,98.91974459962677,99.55933469485075
6140,0.043579637678166055,-0.10372159473769381,0.3505644393450402,71.48906093974657,71.9096978391178,83.42683142954063,99.56635449706415
6160,0.05686008508669288,0.017108930683084025,0.33684766059631405,78.28482147625695,71.02316015944558,78.58696312389634,99.55148352103042
6180,-0.036961215338206184,-0.03679814793784763,0.3420683043721337,77.45859194328783,86.64185385931255,87.93836537503367,99.5937590831815
6200,-0.054182328217571185,0.018831180058284214,0.2531083936654296,81.68376324245837,77.56082030867871,97.76997993856708,99.56180087750202
6220,0.019075359972813895,-0.03023920800801368,0.3659585179623758,74.64808671484133,62.424890940044115,91.57912886689955,99.56255974875262
6240,-0.0023236007025761525,0.010411794752727445,0.3458809031365812,85.14503194538086,82.403931821647,68.2408330129709,99.55479193297276
6260,0.0842058076986116,0.011968112309329508,0.29381490177515424,87.75427969203793,96.60765799869657,93.60733252213821,99.56385665326403
6280,-0.054381926784965284,0.03278721133120742,0.27802453490797063,101.19034412686105,79.5730124184318,76.43702053105648,99.5469123638876
6300,0.005734212013962886,0.004815017241998918,0.32375939362061446,75.01956126946658,83.80919931378172,66.90071774630215,99.544035424215
6320,-0.01094409653699727,0.08229346754919899,0.35401133589107797,67.89617130437072,101.56723887294888,72.75571443769931,99.56029233430637
6340,0.03752084547600686,0.01899829649911932,0.3524972563534953,107.40507466691369,86.07333223717103,85.77657399105934,99.53671393730588
6360,-0.00010482343083868275,0.12301560140164214,0.3409483571542553,74.89575589224262,76.06701636093877,72.06359884016008,99.54887316472295
6380,0.08156922794883192,0.05942971392080522,0.3040335214605498,80.63541167435447,70.59198312455055,81.43188436628165,99.57363819462432
6400,-0.005337546036225543,0.07422909559756301,0.28602922498626837,61.972248470426095,65.3130884990804,74.77010203233158,99.56197920378386
6420,0.016450423501635232,0.019152417351156734,0.4329945690012534,75.80672975629761,62.82591256952874,73.57623036531743,99.55999004261304
6440,0.012393246114993536,-0.014062586297167369,0.43670750798176555,63.81653862996774,77.96896057468425,79.43663508061401,99.52719308114557
6460,0.03129325967081573,0.08675963842367779,0.3648216815066266,71.84608136164182,71.41362975555636,66.08665765492647,99.54091958656127
6480,-0.023579167698376605,-0.04497148660708516,0.37622191833666707,81.82841067058769,72.21370442769557,75.32812792251879,99.56947711650034
6500,-0.057495234035407954,0.0701097818363176,0.32792750208391885,88.28352737177855,86.09832924896705,88.6956988989402,99.53656533926149
6520,0.022322824854703056,-0.0017921464276582364,0.3698591634207298,95.73743629261914,71.62150107879395,75.42891807418798,99.61254231803271
6540,-0.022086999604637687,0.0536086487081623,0.3212940146949033,78.0890826147409,80.21206995343024,74.4580779809994,99.5334523556819
6560,-0.042258245583041865,-0.09479348881078252,0.29085477742642635,72.57945359160121,86.15655036338778,64.00574387132487,99.52248388223373
6580,-0.0013163565084303003,0.0840063580787971,0.4080897073537366,79.34703204906079,75.21261079964665,78.28066058781128,99.53573383941232
6600,0.06907795995617343,0.03677129034130615,0.2786039407395952,78.74732933242218,69.78299545594044,73.79788680150523,99.51440299439717
6620,-0.02407899812099516,0.031347851917838454,0.35797478908356595,67.78263184014003,79.5363899045303,73.58467678686782,99.5194600370768
6640,0.05395532770840609,0.030750512009385528,0.32318287630444786,83.41793134452473,98.78963842654582,58.469701382871,99.56590154868789
6660,0.10853009426583414,0.04367990952565371,0.29710884192803755,92.30711181832437,91.56417840454462,63.936877270406995,99.50590961213086
6680,-0.02905344089380135,-0.012934619575863346,0.3874709643592015,94.86946782046417,85.0273005460401,80.13821069663516,99.54393938374463
6700,0.050930543765505244,0.043852819818247124,0.43709472845803915,76.19397789266097,91.22827686267146,114.93121832815217,99.56827077858495
6720,-0.0628785412442512,0.08111163017674775,0.3584584751863731,87.57177322112703,79.22744119807857,77.69313409346736,99.54029155355038
6740,0.005982703657436816,-0.029927366907370495,0.28846016170948924,92.3336386992291,70.27920009114261,88.34598681858373,99.56762553346667
6760,0.08947429935103628,-0.02772432426747018,0.37189188853004185,88.5668054132936,77.33646098786377,84.97320631552807,99.54015512793042
6780,0.060556937431927915,-0.03980873885803239,0.3661823744474911,85.74606254145594,80.08065213525376,68.8601877687531,99.54026597976704
6800,-0.025550107500395713,0.050003685448769146,0.3945229366407079,84.05557585620447,72.25257178355189,87.88003060597835,99.5538818019766
6820,0.0042559625284718915,0.05680870222542439,0.3475121761014667,94.51273313213869,92.71124524067913,88.52926431573815,99.56453337815297
6840,0.0075938481488217816,-0.02858783971528453,0.334488246713327,77.8203736683647,75.34500518653644,61.38148519159948,99.53894899804888
6860,-0.03593066096463604,-0.017350478447020225,0.3568890762335119,81.34216714294051,85.94642423630957,50.70800195951372,99.5635958586343
6880,0.03191100594549831,-0.048864972968780035,0.3932870165098808,83.08906809141868,89.19459113900189,74.61653008994499,99.5709942007504
6900,-0.010369766032062671,-0.12030550627771186,0.3189193369486595,72.03912940237953,75.73191936270307,68.51061284000411,99.6209673782049
6920,0.10224370112349473,-0.002951482374012982,0.34588181328307627,71.93412366733719,80.4264900192558,51.72598626800253,99.5502454080672
6940,0.024956655766754078,0.026852053389265634,0.3096087867773524,93.83073588091969,82.6112272151439,82.38278260262106,99.55485027700253
6960,0.027417346233161978,-0.09330592691866174,0.3623385661920181,80.69391215849583,86.76984482098248,86.70539543666848,99.57907120015268
6980,-0.06376071759365833,0.10331708636784319,0.37349114043263915,74.12137130011875,72.57268297643559,79.47648164469122,99.53230100439296
7000,0.013783531933937821,0.051265821239526776,0.2874690117226777,76.66126668110093,61.314879572309074,72.2008949551037,99.57517835534601
7020,0.07085892187642016,0.022027604014693235,0.4280221517887446,61.6017317118733,76.07027620737816,63.84838781396732,99.52804172609555
7040,0.011513417751440365,-0.007218559911964515,0.27043822940688783,87.5811410474654,75.25571031407036,87.50589752711075,99.55319693748862
7060,-0.02324421451894963,0.03161624750979537,0.2964167794637974,84.91507650140069,77.65379716060585,80.25922998192476,99.52769000365593
7080,0.024615330896774035,0.02374354132174097,0.3095924560982675,88.66486102208597,85.94155373021817,82.72785599538531,99.5634283722636
7100,-0.07467265617912817,-0.020061467398918627,0.33439324604012616,76.00597625942137,75.76983760947995,55.296875394362374,99.57723827195836
7120,-0.013211195963748265,0.00282137511596717,0.3690278046763268,57.795057240411296,71.6159415330112,70.97815157889315,99.5650728657428
7140,0.04121108871753645,-0.02282540123991107,0.42462407701720467,84.02262559266356,97.69712794265357,98.23193475334261,99.53562957364029
7160,0.03756245854999481,0.054882321847718046,0.45460662304982197,70.86276533365468,74.10243882319621,99.4391949974766,99.5343964852108
7180,0.05419691680615858,0.03578201098583171,0.36590054841949343,103.51342186423061,103.81685042534963,87.12881991493309,99.55249067790353
7200,0.006512118292972067,0.07487459886457985,0.3314656132683372,102.13106627946408,78.45829976704958,75.39263571038512,99.54405624033286
7220,-0.02045534634936562,-0.08147403681730836,0.31213499182057425,71.42646515184055,81.21844979997701,84.75767969800897,99.60035611179693
7240,-0.01840042589941366,-0.00039130898566470094,0.28909961419967906,79.89817308947016,59.695040503906924,81.66691191067586,99.54819556831174
7260,0.008931547984508731,0.01538988381236407,0.30843925781161974,86.68954610672569,90.41771856262496,86.67348517889316,99.54418760884771
7280,-0.1038489970834957,0.01688806117796442,0.3207964087161173,89.03546566329359,84.65896877295022,91.81365442732483,99.56729348825517
7300,-0.06165889649561414,-0.0036828489659263435,0.3521095737704722,90.62000755133595,93.86723655105696,59.01178665677382,99.54128593378982
7320,0.023454452725026047,-0.0405222856736255,0.34799911646879617,87.95873926352566,99.80106347569438,81.14413041846105,99.55008902901578
7340,0.030269394694418916,-0.0037348130193947528,0.38589406320573283,79.6264944682966,96.70592114286538,83.03903640568902,99.56698765658491
7360,0.0017623103137175225,-0.00019251422958320612,0.3071115775193719,80.71725282615432,103.31964406587669,71.89881498147969,99.55117422188174
7380,-0.028863384633819975,0.047469568922559886,0.2682597760485799,70.8918302382687,77.62302813112674,82.25359391577214,99.57073410698348
7400,-0.04659575411929585,0.04056204287327759,0.44379312946313365,75.75779095599985,77.38851877885175,70.73662838604825,99.55734638165428
7420,-0.0022367206597108387,0.07003935168031016,0.30945415297042783,96.41223157728096,96.95470932122475,82.79424690591337,99.57047761817189
7440,-0.00032432220081080845,0.06373885613827988,0.3089507019112123,109.25798343738097,67.53107448641909,95.99155389654672,99.53386233760138
7460,0.014131447733907324,0.03506650557452517,0.3556361585104691,74.69304330870153,68.43233545534106,70.69655456396166,99.53733690478697
7480,0.0015660140141332633,0.02419393844765447,0.3832044591540314,77.46839969190634,91.7369513631869,72.66520563605559,99.55193421334332
7500,-0.04877820066867733,0.002517030117823822,0.3276271013872955,83.68415449694159,96.33161929477322,87.16750028732181,99.56003727140116
7520,0.01293944176246113,-0.02619665888558699,0.3335282904019959,91.4256799707977,71.34473147485653,83.85876080618985,99.5527098910961
7540,-0.026611056296234933,0.01049601272041383,0.3692967212757651,90.40433248836507,83.40466745581882,68.1707244527963,99.57701148072356
7560,-0.08124042532637105,-0.03204440480374637,0.3877661391862001,59.943571394008615,82.13317818636928,85.6982176688653,99.54072624210706
7580,-0.020991252031925103,0.09768630834188541,0.2867977116240197,69.19507862176839,114.8269516378868,73.55135624942264,99.55000499842491
7600,0.00168701650795275,0.06137369634368178,0.3740678910595104,73.47775509059039,81.31799080313431,80.99491349665176,99.5789981640433
7620,-0.011228037319423045,-0.06813536885188769,0.2844941325298093,76.4255444353786,87.98423974350096,77.64997455197319,99.53645751283703
7640,0.02848555441827515,0.04155825246084163,0.4127948923030472,72.83709665073656,80.22614867356661,87.21303640123021,99.5614149770018
7660,-0.06728929807102786,-0.033035994567942,0.4130408113699356,93.80116460415896,82.07294487641919,69.87855330427524,99.58403230352957
7680,-0.06046832294836181,-0.06000750414298808,0.4197071237364496,93.18211417615414,99.02871627895078,74.88381187535428,99.53721510910171
7700,0.009148774188957855,-0.0025836121559961365,0.3080766901469021,75.15519443297822,89.79794747553353,73.67920760601645,99.53754899109254
7720,-0.10448622966506045,-0.06333931211549819,0.4407460044272935,73.38606477338313,86.10513272735199,84.51390713204668,99.51166606124958
7740,0.02566116675813909,-0.006952040531192887,0.32120809900305325,97.41202242426087,83.15313416056516,75.55603378841431,99.52243142771741
7760,0.0069885278315481095,0.04764777898026642,0.29724517790870014,70.59788571664929,76.6790808630883,64.72006934403068,99.55536629693601
7780,0.013158079640892493,-0.032747787091392866,0.29091488143044286,80.09100428379213,88.74029259678626,59.800637174157586,99.5131586145526
7800,-0.07374670777697957,-0.02000458815761934,0.4245335513127962,68.44056401126258,70.56235163700953,85.63858089546764,99.54450076754188
7820,0.056096505740805686,-0.04319401299004336,0.4218336289206896,98.55751107207597,76.30975334774052,117.93060886763422,99.54496525129389
7840,0.09801069381625455,-0.015868936242877038,0.3164230853074956,108.4671543411224,65.29577758534182,81.73074070149617,99.5667670240236
7860,-0.015765285957787666,0.0035189954373665644,0.4222052676637824,66.6754288508129,103.51796409503865,94.76063591827587,99.52657502541994
7880,0.016263058865782016,0.015015392941540282,0.40121028973758405,91.10117267969153,71.92419304809822,77.069853053633,99.5571898431675
7900,0.04408670060638774,0.03393558283858057,0.3076260393361722,71.89272264645986,101.66652977348414,87.1641110455511,99.57325098681999
7920,0.0029802515739137015,-0.04655011083739319,0.30353696131071545,78.28200389894691,80.1037149716625,78.05358371023163,99.57128747144941
7940,-0.015896468387982875,0.08694593530552741,0.3026688924071595,99.16204358345864,76.72805985488192,68.83467139738394,99.59544639022465
7960,-0.017309918359163453,-0.03373904889964669,0.2732662957345151,90.01000570311456,84.02814680616567,86.72982315631198,99.54037053681911
7980,-0.04580159110815543,-0.06061066095237233,0.28016743378155806,71.27022158138615,71.29032143962901,81.19253280855236,99.5567134120646
