timestamp_ms,acc_x,acc_y,acc_z,gyro_x,gyro_y,gyro_z,baro_m
0,0.006252134906362593,-0.010332375621394023,1.1608508238651285,8.736571286279062,14.362539197307148,8.5743285782297,100.01519561327298
20,0.10678416243460509,0.027143284029616778,1.1203860493206186,-0.8606232005242958,8.19587191753298,13.886715517616949,99.98136157655567
40,0.1149723974650322,-0.01625061049432295,1.1457592537690056,9.348900541670048,28.461486077121634,-4.622235618295862,99.99886274158565
60,0.06829993469368058,0.00907450868272656,1.0795710277014225,-1.6925015981812415,11.338786532748784,8.044763582456156,99.98826367472219
80,0.16574566303582713,0.0020212048811210468,1.1246711294173455,-1.1914727029227232,-4.820214586450324,1.2590303869684965,99.96332783398748
100,0.1659929849434889,0.06499597445006995,1.0152700721392616,-0.9591620379895907,3.051233906315202,-19.845438780231337,100.01199868212264
120,0.19430126283219085,0.0420834601093866,1.1965921450883537,3.0796967828498523,-16.004359098463553,-2.4148772289348504,100.02149665193761
140,0.13054014627783267,0.07807742800495984,1.0883103980973206,2.5667716155064,-10.298508058589544,-6.295794066198555,99.99801734875061
160,0.19532493243771837,-0.037895824485055365,1.163254576794067,-11.227103998942079,9.715044260404824,-11.214670028684125,100.00560491068052
180,0.26162824815463714,0.02438863551614091,1.0799422888465517,15.658899293223865,1.928869212785696,19.161718036038977,99.9898165481278
200,0.1606501140609341,0.01281095370688292,1.0538377480629373,-13.88647531608111,6.738349557745471,-4.300486511828348,100.02234885673892
220,0.11437068784903397,0.023837369988278373,1.097878438476445,-10.693528292663967,12.803557078763829,1.2093007495588168,99.97626423295155
240,0.0475914282450011,-0.0584521433849747,0.9280936512290726,-15.693527690007391,6.603480842370349,6.599425509719238,100.00350641467675
260,0.04518166618923598,0.02689267742865635,0.9474212605324145,-17.91404972006543,8.76007358131276,12.857226475935622,100.0191502444259
280,-0.04597424741199557,0.007326154265313302,0.9154067819589756,-16.69449350838231,-23.0020074052954,2.268628572297451,100.02577786118812
300,-0.055940293808090874,-0.06841627370336621,0.8598810054407163,-9.424201358588276,3.6122344570847646,-14.507050959644186,99.96665079541228
320,-0.05556550109738622,0.0005957437785423352,0.831829606461399,-18.74639360253736,3.099232104568735,-14.398551262760705,100.00640756974872
340,-0.16786714838783146,0.09152659460592426,0.8450387818942316,-18.40941387735817,-2.6810933455538732,0.6720270934240529,99.99424156480286
360,-0.04508149848578154,-0.02625928023748325,0.798187988699529,-17.072982956564566,-13.774447291694848,11.036616982266215,100.0100879179432
380,-0.29516604722384504,-0.047740070772899657,0.7718039466533696,2.873866182533195,4.6473268151231,-16.778371754520496,100.01751968471743
400,-0.17709228698547194,0.047239171428635936,0.7394268884091039,5.749945075985531,-3.2370547506274803,27.082270204919126,100.02219996651013
420,-0.25352084343017733,0.05966734750897656,0.9141363776149966,-11.699704811241475,-10.714308893121675,-5.445233385037058,100.04358485395423
440,-0.15377791175503397,0.034334338131227486,0.8738320605654727,9.757330279587297,2.4498603858879013,-37.75741385676415,99.9924139184214
460,-0.15262125156996045,0.003428011497941362,0.8306141295073682,0.2776360636442153,0.010381986135156063,-8.932913067402728,100.01382814717472
480,-0.119716340407178,-0.04235604956056575,0.8861666619977916,6.4092412568503025,-1.0372420040823531,10.872302865239249,100.00468562756946
500,-0.11931648640659136,-0.0464387248081439,1.0017583943060275,26.36123448117779,11.334514872475928,-5.386766444608008,100.00414639648669
520,-0.06773431749630165,0.08676172593227419,1.0571977344890338,-18.969660303596125,-10.125569051993878,-4.933575276986659,100.01111598694064
540,0.036306831023818424,0.05969911510958842,1.074221452059477,-9.939660737571494,-14.845751343327255,21.493421660183294,99.99992723672784
560,0.015334595813761825,-0.009194003281081675,1.1830031723446697,20.355041246997704,-18.946683011273073,-5.165426590107797,100.0039739680843
580,0.07703635668887865,0.04626696351173036,1.1265325434710136,-1.1333622145801483,2.968793152144732,10.434914824810019,99.99951965247092
600,0.09039394232974783,0.02263999090536345,1.1416696059261664,-17.993828372480202,16.340637786236105,-8.778694762543438,99.96232602840607
620,0.10405259443001424,0.004982658854018513,1.077921020071937,6.926358031379296,17.693989393657567,-6.145520102671053,100.00889414976861
640,0.18487777187862003,-0.024837640762097327,1.1054114397016859,21.823720008812018,11.13193418989439,-0.7738804353466198,99.9915375545773
660,0.1837995329005616,0.02783960521071116,1.1865182523328548,8.556541066584993,7.291241440129472,-11.45586310089646,100.03629691464789
680,0.24405759701489385,-0.01982231489289378,1.1620050322370143,-4.568277431043706,10.581250843102767,14.055749046604882,99.99183610725298
700,0.1197763370693113,-0.05186523830063936,1.1725744801009705,5.382212697606127,24.879759206063753,-9.256007363650898,99.99518800919896
720,0.21687549183659954,0.023253293442788023,1.0788099371365165,9.530942012441466,9.93500628466953,7.41676767508921,99.9807159203327
740,0.08829874267557455,0.0686334846045534,1.0746267222928123,7.480892716821872,-6.801556779905663,5.3759666374632005,100.01612985942602
760,0.21327171335448067,0.017537863806055404,1.0926369250922878,23.02238428499919,-9.08057946142234,3.9420352936587753,100.00622816890848
780,0.09128698211365723,0.0014762396599570158,1.0011432252763068,0.7727042775755304,14.01771721179421,25.490664292675312,100.02960978145626
800,0.1250212760518431,0.022902830207827164,0.9675709280124392,-11.00945618974016,-2.761552791829092,-8.359717106258012,99.98576934259772
820,-0.020056265072587946,0.019163434189982616,1.0375009830575932,-22.061087636805368,-12.554713432323076,13.128050113765573,100.00915518728755
840,0.022334425548559432,-0.021204414088634844,0.923700288431834,17.138771033431,34.16865289188227,-1.5449870510009251,100.00452663414524
860,-0.08184047347506085,0.017575185798244474,0.8200144139564004,-6.918511923432205,-5.607842489393239,10.304175076496225,99.97855079219065
880,-0.13151134071849446,-0.05157570506114328,0.8406966142020996,3.523813564867959,7.199034854016821,-22.51223526058623,100.00872431424709
900,-0.09071842763660984,-0.14302167425635576,0.7749143043772712,-3.5706990079540577,-2.758111837747364,-6.971213516570167,99.99838146010818
920,-0.12755281737045068,-0.04682236763144158,0.8484494697089134,0.907746846217204,-5.903543800908516,-7.635135972556922,100.01747700563398
940,-0.15733840986585523,0.05945708903286902,0.911007512367205,5.735514661683489,3.749761044345458,-1.693107483018441,100.04304609159614
960,-0.2232985713753992,0.05426414712975724,0.8538635813974295,-23.45568078221809,-4.475004488138405,0.2892022159672377,99.99112777723059
980,-0.08777393728046902,0.07137015525171625,0.9091751631859909,-10.18238498131539,-6.303296770381317,-3.4694677547687838,100.00978194996377
1000,-0.17733493234593342,-0.08725583134699172,0.903354764363334,-28.744709035669036,16.50155028209791,8.414744746565404,99.99232642747222
1020,-0.18393736967717003,0.004492662068287307,1.0154376004066372,5.520948481967682,8.531143135276322,5.311541627132301,99.9875927305524
1040,-0.21394978645043639,-0.011937068166536053,0.9940426737883895,-13.300155487147833,7.781608265209181,12.416615221511188,100.00012202053001
1060,-0.1777195434156496,0.01431204135215774,0.9654116854754774,-14.468554548720778,0.42618033135340316,9.22958140324242,100.0178240006377
1080,-0.05593569696118064,0.019638582608007417,1.0143781525919253,-0.6054887868662802,8.11935029851696,-10.511098356149166,100.00478269490792
1100,-0.0023658068175947053,0.003765303276816596,1.026000191615019,21.63016958409942,10.555791523869834,15.857794106209074,100.0029390227613
1120,0.07048074592155915,-0.01981786797305056,1.0944749685687534,-5.421948969358978,6.118738793922363,4.515326895694412,100.0180014797889
1140,-0.0014585202881910453,-0.12055218045554171,1.1295013138294534,-14.671018221378365,-21.452973820615753,11.73294511755073,99.99866899625327
1160,0.07732248693648523,0.010412166512027081,1.053001303411235,-9.349238007135572,-19.98222145204625,-10.924940975993682,100.00163531761048
1180,0.1448681194141198,0.05651324542917448,1.1378297383790756,1.557601589182461,-13.939158160864766,1.3431702659484288,99.99317419566431
1200,0.16867808585086003,-0.03580651372143068,1.1132375026179606,-1.069914984027257,8.183904432270905,1.7128348717608601,99.98852487041032
1220,0.22830773691755957,-0.025480909634400525,1.252577393382592,-34.09665698425346,24.572461161591136,0.27027355891713467,100.00656181443874
1240,0.14451039056676748,0.05128177846593346,1.168343122217565,-13.547990200809057,-0.8091953054889013,10.216499219756598,100.0188372482193
1260,0.17314082339301698,-0.02358813911675236,1.1488812730489217,-12.557140921476146,9.97179478272685,-10.200596965488804,99.99539607809875
1280,0.10108222773006421,0.043895597283878,1.1225193364780428,-1.3683118347971273,9.575049395594734,8.364438239145283,99.99119586136395
1300,0.04175178454671427,-0.006195338811308936,1.007821260318437,-8.881556440670717,-18.24316919990511,-0.8988195098731662,99.99397829840686
1320,0.11774200769843603,-0.06145726117625475,0.9538163791578904,13.111586402705747,-18.417698500149577,1.3981039944160618,99.99763503051419
1340,0.1065774521544017,0.003067093130359507,0.9898435685499978,-4.099104322102247,-8.622201025091252,-7.9935117498406125,100.06584725047796
1360,-0.001378913842447621,0.020141910186492935,1.0220118432093839,-12.3625057082875,8.59244057049115,0.19977574739259746,100.01384788401391
1380,0.04806698733783399,0.05832788799703806,0.9041706969650876,-16.623747687110292,10.114800682204228,4.631089305928794,99.974146428722
1400,-0.0011893518355652333,-0.02581462371250521,0.9594682826700591,6.056627900293522,-7.050575004648195,4.028743802001788,99.97995050942461
1420,-0.054217856658239354,-0.006140178106652935,0.9675199505700917,11.049761637958747,-25.443270952266616,3.0061472985324365,99.99995666590912
1440,-0.09516379265479452,0.005309956411801262,0.8691277570804283,-6.163964106243873,-10.281266909029583,-10.811350565622043,99.9521285359955
1460,-0.08494098306120951,0.03228049025297795,0.8397940940795169,-17.479257982748923,-1.1425959318297667,12.586782205573716,100.01428867372978
1480,-0.16004744182623934,0.0808213036548497,0.8449482681362042,-11.117694833279387,-5.681462329190218,-11.277626474467349,99.98616403432877
1500,-0.16461540528156163,0.11949529780078522,0.8269939848603648,-1.8387774849632361,-14.045864221169326,-0.29860655593634544,99.98641495890124
1520,-0.1421385538602594,-0.04026351202374704,0.8504929968646395,-1.0293725249187486,11.15821400971965,-10.882883825597858,100.00884019134533
1540,-0.22431012516895804,-0.031367969032116895,0.9294613303101702,6.647872330077886,5.807975639496119,12.306572786338418,99.96535495042725
1560,-0.21117346812910628,0.02875100737646451,0.9866010358982873,12.305363919270075,9.455667793287352,4.637474889738736,100.00889607185461
1580,-0.1274194750983888,0.015735336185676112,0.8928803943378734,-16.438692363400804,15.617424506601841,20.374956462974648,99.99177729667682
1600,-0.0978050508292804,-0.03679040215861318,0.8800493264329036,9.435192778235004,-3.6507171642215623,-7.497178789134061,100.02010150381845
1620,-0.12818891877255015,0.09017142661434052,0.9192883864060779,5.956128855564177,-13.184194525444628,3.138916078100286,100.00283947753239
1640,-0.023535530315012383,-0.003601214818704689,0.9444138041354625,-8.414138639885092,-1.8056494011366198,-4.68494845354115,99.98568022804122
1660,0.0829711284255101,-0.03182901053846634,1.1325295657800363,1.09584498533831,3.4630664372663658,-0.6377157644077587,99.98622753272653
1680,-0.028925992099072408,-0.04210655108821945,1.1185695262953803,-10.741327294855722,9.540272849259988,-0.6590072151607254,99.99270464488978
1700,0.056961586641875145,0.06475472899883171,1.0417799900113347,4.27017495284561,1.2331404577689173,1.1721038798225085,100.0164152161843
1720,-0.04483886119755412,0.017447461298006877,1.1186376249838668,7.422832603696161,-11.937204180186326,15.43924267068602,100.03493597819715
1740,0.17769612053791417,0.014163345061971559,1.1166493757762812,0.5373879878660184,-12.513824910521596,-0.13596146340616816,100.04441280454135
1760,0.23870223355511955,0.01079411558222757,1.139778371821243,21.44952733432798,-18.258713759291197,-5.13865556496596,100.03682744075878
1780,0.3157613605696093,-0.03789421889946701,1.1105000363894786,-20.153014146309737,-13.61053418775354,1.8061541929624931,99.9990188318673
1800,0.17747371350950367,0.05914876303953373,1.1803253068849477,-8.133128838067844,-9.095569413360646,-3.892241882317041,100.01856666657088
1820,0.3002479695442174,-0.09135701953186733,1.1284866923587902,-19.796033858658017,-16.210024587545284,18.429209479163294,100.00953896092521
1840,0.2569825037400895,-0.10469952318407205,1.0731547348679384,3.179595282634317,-1.8489097689164082,16.02364283253476,99.98360676466442
1860,0.1525203400612964,0.01840209714066031,1.076142295070048,2.878443544855857,1.8145710280905871,11.164457122926262,100.03481978718759
1880,0.12630400403452086,0.02345297451944454,1.1159596551432547,-0.12194221957540136,22.0372831040458,3.691388869839739,99.98280305511021
1900,0.19057305253164747,0.00253987747250148,1.0521087626211476,10.74460301027628,-13.229088236961296,5.820469072708855,100.03512463981849
1920,0.06308803068930952,0.028452425314850923,1.0456581017321316,-9.236827273578745,-24.91634548239717,4.3293877785582735,100.01121670285436
1940,-0.0007790057972769399,0.013130462753490222,0.8880235318019194,17.063301556227877,-2.5044630144382696,-4.919180300997832,99.98170614710506
1960,-0.07682866216063428,-0.0370080992737993,0.8175139729324976,0.5202884219608144,-5.742385378830304,-5.354867095991031,100.00230887471753
1980,-0.10364821929291629,-0.045409782585233885,0.8459452141698696,5.187000582187578,13.584239682769077,-26.64823598436748,99.98778015301252
2000,-0.16299470226892665,0.03461578679899902,0.8825705379782799,-14.854283565918637,4.718348350475939,15.774527391959825,99.98597367159391
2020,-0.13335947267611586,0.05180641075133974,0.8751323711882275,-14.990155248251174,25.531868538918026,-1.8983936543134816,99.9790705614154
2040,-0.15103983278573943,-0.000158179310002116,0.8833379524767571,24.20141923305721,-4.268102888233693,3.368247167615901,100.00286207860188
2060,-0.174987866798281,0.003577521979946471,0.8724199427813262,3.8329995379822286,-15.613671809763433,0.9270699834016918,99.99942640607713
2080,-0.19673841846151213,-0.02613230054918287,0.8907486066796512,-6.184140763911957,-19.798489503817986,6.090557285344326,100.01195385592334
2100,-0.15191526260721172,-0.029792127935033597,0.8445651065738073,8.362940504466001,-5.72334375565155,-11.831770231836352,100.02842687908192
2120,-0.09026230240743097,-0.04312457809851712,0.9091579308450203,12.947151291514203,-10.956898959790577,12.982880196166194,100.03773824668755
2140,-0.1517373803867147,0.0037501700850436416,1.0204905431194031,1.635707099023357,6.25001541979527,19.32966073037226,99.98792012373015
2160,-0.16476682487049363,0.01643958042760055,1.0576934083965648,1.9282504288973434,10.164176305607594,-3.8835649135897725,99.97851718406952
2180,-0.09748416596134082,0.031090662746503985,1.074271577321904,23.62382157454192,-4.036271662969453,-0.8002290854334412,99.97945125153419
2200,-0.07331557184907384,-0.056702368545786,1.0736428818756831,-14.896053000476556,5.353379396270928,1.409277510596216,100.00226351066658
2220,0.03972741892713018,0.02073237640794355,1.0823146263416221,-17.21977784427481,-6.398401498317572,-9.694209930683588,99.98590201704086
2240,-0.025639538959183583,-0.030515103621837566,0.9683333735853942,4.287005640137059,21.027730602553312,5.805404068961907,100.0002519680702
2260,0.10345367715751937,0.03443902662100042,1.1571334863900578,-3.7744316725462417,-11.045552276564655,-12.02621859536184,99.98547610356782
2280,0.20840324201472324,0.07095083230329728,1.130672770890815,-2.984442090817522,-0.3964220254041594,-7.323928621987758,100.02830313752489
2300,0.1601957541887888,-0.007516849427975369,1.1572337911797848,-1.4353977424660482,-2.819229284457991,-2.3821374941512943,99.97460199944086
2320,0.15351953438561872,0.0360160150429862,1.2189329814640328,-8.915796099732733,-2.362394123599599,-25.701287538487612,99.99520627115652
2340,0.2500748961952951,0.013991850708516933,1.12756111627815,19.52137366594905,6.144551288701319,-4.900326454361583,100.00036626626203
2360,0.07864404531405167,0.02125541911516831,1.1013549953211803,1.6841954496555434,20.184103151133467,-5.150935337219269,100.00948317987002
2380,0.19993870396143829,0.009502249941991515,1.1602752779219132,7.297940334793391,10.43797448237759,2.2934931028362344,99.98593059906337
2400,0.13611310826026984,-0.05300090317050429,1.1126041826716402,-4.919330920913382,-23.32484718482544,9.977349509987175,99.98919038037174
2420,0.18673089670284745,-0.03510087126906892,1.0891092219068097,-8.42544970836972,-9.343128320806597,-10.081938571884153,100.03845551301613
2440,0.1824228679045939,0.06662492049529822,0.9741078649143018,-25.154277711727197,-3.934299134206831,2.677097641325595,100.00457677644593
2460,0.11850899769274367,-0.026355677330783533,0.9201174453090264,-14.468795122956386,-15.948182429572906,-5.27916202296904,99.97640172158101
2480,0.06812204129643563,-0.042798497889392884,0.8536796411621378,3.7251429434392294,24.502663641272086,-18.346310930067858,100.01849923397842
2500,0.08071538021346741,0.020554775436881664,0.9103940074828228,2.752797577549866,20.25029027511159,9.07642995024149,100.00668789599756
2520,-0.09103943651786588,-0.018384346127780324,0.8249345002603019,4.031383447825567,6.1983599601796415,-22.315894949133792,99.97198825576103
2540,-0.09682741248909595,-0.05054154884979504,0.9307194442139524,11.140536356564196,-23.666861278941315,-16.22998200379206,100.00930688123199
2560,-0.07206208086446171,0.010738456855733358,0.8731431955412557,29.576023428808806,-1.2254901932584978,22.514726541841956,100.0142009392739
2580,-0.12773473396126375,-0.013672184090016685,0.869275762987334,1.1464250238011946,5.464623386868365,12.34010753507899,100.01109592251692
2600,-0.18042281700099363,0.009519864251550747,0.8776345671418534,-13.872403524906908,1.9897490884346145,-10.175435973311643,100.00094301783922
2620,-0.22352668584069493,-0.03644212110846217,0.8261626622884128,-14.763576936612239,2.6346673122137787,-13.484281698176584,100.00952224040259
2640,-0.14415882262288005,0.025983832013734505,0.9531082477207021,-6.5063592253857685,13.824618517641202,17.596253823376465,100.01534405033306
2660,-0.09401879690216843,-0.0407081114397502,0.9095048115702057,-9.223300583817224,-0.4481097625894507,-10.963335064185078,99.99690166655331
2680,-0.2511784922381862,0.058017615498407685,0.9083634012440431,-9.778429970805174,-2.0597372728820806,-5.501992787298009,100.01539744463544
2700,-0.2432136823925774,-0.07973151941442809,0.8886362863198178,-8.15798906535826,4.119517208484581,-7.1216866616570105,99.98440220984024
2720,-0.10218431110746205,0.0754280259883547,0.887752971966756,-10.599923092380124,9.84051470205211,1.7771028934593525,100.01811744807105
2740,-0.0062294270021266696,-0.018212532480161296,0.956396394075044,-11.358729706571326,11.796189536921105,-22.045354816213255,100.00669351814051
2760,-0.003765683192151842,0.03742945795080467,1.0537954630990318,5.647467005752615,-12.077029277956884,5.071795376818816,100.00155137526869
2780,-0.04698520419722049,0.03004023058779283,1.1211445226077283,-6.604142752391072,-7.407613437556224,-5.062680647861207,99.99291549278675
2800,0.10770818618322897,0.024409299561598,1.053349193328482,15.119874856090153,5.521839699681628,-10.03591076247452,100.01495872474074
2820,0.07602666553059928,-0.026487479898979094,1.1666189741022273,-5.8178432778712175,30.167879055780354,-3.0691886910160417,99.97945246696523
2840,0.11365885181492488,0.03403449697823125,1.0823863425137703,-3.4978667149690947,-2.972493686290903,-5.8363789586407195,100.00302494057463
2860,0.19640619639890555,-0.06454176514084899,1.1207105363521834,-6.128657262344312,22.339486383278075,10.372553688622641,100.00719330319379
2880,0.17922346169230738,0.015163596640637515,1.081301668862281,10.512290814689225,21.31762437046618,-6.427001971184877,100.0167394310939
2900,0.25418995277647366,0.015528113100461361,1.1289181708291385,-6.057015414756163,10.959222933189983,1.3396388662937284,100.00490370150692
2920,0.21120345067066615,0.0751959948381831,1.2057522839080042,-16.248463095247402,15.797316207265672,-3.3992012189389884,99.98983676782363
2940,0.20297355647326404,0.017292713491286252,1.1283803143466147,15.006382759317237,-11.807666252516725,6.527855454762108,100.02433580997746
2960,0.2537378083293135,-0.033051420520856564,1.139608277057473,-10.753403609564918,-13.251627961303884,16.60614048821113,99.96865394486495
2980,0.2074279681022542,0.0293823483483813,1.0758181259514996,-7.720528744407542,15.236440349948488,12.620029099108784,99.9817402631181
3000,0.03395122596110012,-0.05016199985016492,1.008718746085471,-7.823354309930241,2.568261560289566,8.158354126449707,100.01894530384644
3020,-0.020269111401303733,-0.1552193830956005,0.9449933599470727,0.41137144741083254,2.6660242482332577,3.145701756774264,100.01285394402375
3040,0.07667073979931938,-0.03615788350402287,0.9964574571481458,3.930184073729076,5.635832445605098,-7.847063352239578,100.00040416400194
3060,-0.01641238121468157,-0.028731593039301964,0.9184320923428785,15.542396323039021,-2.8860543544089676,7.833300599142316,99.9896088868597
3080,-0.12562389845617547,0.0933951713344029,0.9194128922280298,2.7708380385945204,-7.280605473742778,-17.43611179670258,99.99184438212461
3100,-0.09022621783762116,0.0017504655644564916,0.8463394930574902,5.0294776544422515,-9.818527706972871,-7.349691413271218,100.0113773244992
3120,-0.12300458822965216,0.02766334318017895,0.8490359348934052,-17.60959097105331,12.471195464562184,-8.706185549503441,99.97536650142756
3140,-0.1411696066480405,0.025535816662799152,0.8694964064585092,7.224931663334897,22.124759671170498,-1.2659602975674173,100.01883437182643
3160,-0.14566779490146647,-0.015394190909397604,0.8694636670883538,-3.6673300295054343,9.84587739281638,7.216192744295384,99.98692584323244
3180,-0.2763979154854027,0.020768645492735563,0.7970458569201658,4.44766940286596,18.027839180143605,1.0159220156912008,100.0419154990176
3200,-0.2169576991344034,-0.025139726201886217,0.8843904387645258,-15.594536162189224,5.972798304674189,13.50323615026182,99.98877585174189
3220,-0.18357998809391876,0.07703692142239255,0.7616751899805938,-0.38212194409506917,-13.829052962649289,20.834352366061015,100.00030528835693
3240,-0.14031576218651157,0.06799890012569518,0.8723258527736565,-2.3034119220938436,-8.64748830515385,6.294963100605209,100.00675910578654
3260,-0.09843489893821064,0.004502851846482911,1.0241022496593541,11.969494560397163,-1.6190790439045866,17.67969452528622,100.028637114811
3280,-0.0853175793130857,0.011648472224928456,0.9672792929570151,-18.334136386593293,-0.19943406132663605,-7.38250146915262,99.99667215930675
3300,-0.031096342839947222,-0.04588755488427827,0.9711240255035358,2.9638841844370747,-3.987482084663038,5.708411084028436,100.01810972253038
3320,-0.014771678408100135,-0.013138691855576028,1.0301441881365465,8.385978374057615,-5.5839521444286415,-8.046722063067133,99.98211308882733
3340,0.012359286261102076,0.01524659507037653,1.0468148238262904,1.5965574323748772,1.5972891960530202,3.2757595522136693,100.00757042604508
3360,0.021102340479624802,-0.1052532117406152,1.2147171437405093,6.308986905241562,3.9415220565559483,0.6469100712183602,99.99473484468614
3380,0.10106904468511388,0.0012816674219094518,1.0794854467482211,-6.743988189533609,-9.855904419151473,-15.690347285013793,100.01012149179635
3400,0.12339983327101114,0.01707632182953316,1.157070371377331,0.3526081950238376,20.397655944317204,-11.063775436655416,99.97752373573853
3420,0.2219436492262053,-0.003580793217806348,1.185096531532535,1.9322292660329023,-9.41356941994005,2.0085501871214504,99.96465128075431
3440,0.2709139012554862,-0.039253960122908174,1.1609202223683828,22.854459541677556,6.531167484566497,12.326398844816234,100.0084255136672
3460,0.06462655365063255,-0.04705076412942603,1.1864504288880917,-11.471175497719825,7.655979567497361,7.323185643379229,100.04093183776966
3480,0.1701908018385469,-0.033429003916672306,1.1993874152007349,2.216392555614406,-27.785529731773728,-19.168376209451075,100.01945993402688
3500,0.2243348108078952,0.01568227583078108,1.0735666075402492,4.993536931230443,-0.5570372507273718,-17.225716317028304,99.96449104728204
3520,0.17250596666940046,0.0032619685358533978,1.1110651671831675,-9.165900818612872,19.966850127214688,26.546243570770102,99.97455858213357
3540,0.12226684852846231,0.0014070126081175405,1.0142642250930318,8.409938530682162,0.11093907328698052,8.444257826538898,99.99196039112705
3560,0.1193668982684903,0.07895411343564586,0.9516956056193795,6.385200510903442,-13.429567732150701,12.551533050557483,100.01740980535747
3580,0.0862108218652701,0.049064376587955594,1.006569708001886,-4.787498171345884,13.274798021276032,-6.766207718647877,100.01032855639833
3600,-0.005463674798054763,-0.06414073635619955,0.941802252368234,-14.769034193636722,18.040128123195057,-19.605967822984912,100.08470874814606
3620,0.010901472053004214,-0.08564294076271237,0.8718532789000963,-13.265937238188526,0.3724027672573983,3.31055329557179,100.014677409074
3640,-0.09969922453104751,0.003248810762956861,0.8789770433121888,-14.828196007657464,15.769089553886799,-16.552552465793728,100.0156525082715
3660,-0.1399862421044603,0.012669080770227876,0.9432720736973014,-17.248565919971753,7.674890689323123,-15.37320652687552,100.00806975158342
3680,-0.18628523371692052,-0.03699244552857508,0.9263388139016159,-12.029389279120739,-14.615032566109623,-10.31288643441033,99.98175381247819
3700,-0.12161887384045705,0.033991028101633625,0.9238754764113489,2.5546261660349616,-2.5357343628546167,-6.01668453614863,99.98160813098892
3720,-0.25483032212097495,-0.01884572762590691,0.8185879327143945,14.557439226833866,-1.4612490530171873,-6.980614964551827,99.98088907770625
3740,-0.19419497030071603,-0.01829314557360468,0.8712778945255366,4.4315509921876455,-33.161389840167665,-15.891928568045827,99.98041613220354
3760,-0.20043297332955534,-0.007425813749925897,0.7943674432525785,8.166362969899241,3.6180399268298635,2.7248656404471285,99.99001954078463
3780,-0.1985228385124036,-0.12444669986450535,0.8295851446821652,-19.80008607165845,-6.290076365569503,13.364447598248702,99.98321846647552
3800,-0.17354785353536525,0.034570805291573796,0.959200951900759,-4.9343117642596805,1.3942600357299746,7.739149452267036,100.01680434934131
3820,-0.09487922104593727,0.014438541748144313,0.9333158395817034,19.722975125251253,-8.581217966858707,8.062103330862685,100.00327534727353
3840,-0.15211896147812146,0.06270788337249374,1.0366719467401257,-9.225652625627715,19.132644308687272,13.76862916413231,99.98572358273188
3860,-0.07366231527857861,-0.008990970698223579,1.0840629698715478,24.733549565625946,9.257051398059932,-24.978758538275457,99.99231423162313
3880,0.038600687632204075,0.04673486305003637,1.0399391183613103,-5.030272036445054,-5.839724782730668,-5.787198172037007,100.01107702826978
3900,0.0034631411494495286,0.015705174864749583,1.099023798817185,4.946147867394178,8.23342822386349,-16.30641902989212,100.04434742562434
3920,0.03541811546038748,0.021233708439007192,1.1559149892426483,14.615346643810417,-3.506628371828672,0.5595295988694853,100.00908562460332
3940,0.10817482791737391,0.018906284525619238,1.1642738217834239,-2.6598469544941663,20.75869695824372,6.542393351660523,100.01105848862463
3960,0.2124702003393673,-0.012221004182237162,1.153500678957217,3.6131802010571006,-13.641815026798625,-5.067236674478992,100.02150603023422
3980,0.2722077823944079,-0.005022295842749104,1.0547773196464751,-0.04151039010604398,-6.649507558050608,-16.704920953266097,99.98773188270741
4000,0.2829928545829657,0.02331492118531128,1.0937567865978726,-4.232944918207236,-19.36265839922752,6.029640088279527,100.02001101364432
4019,0.19043714891542762,0.015370125616665545,1.0588423546804047,20.37489161913165,-4.82506281245537,-3.5168553576357713,100.03268028683249
4040,0.14339808710089652,0.010386109613430682,1.2087106179892353,0.15280784521724863,3.3907716282872205,1.6871313381585074,100.00950733094022
4059,0.19177987402685462,-0.019655581475998777,1.190752713092775,7.057948790391372,19.635035354963364,-7.521453803955861,99.96520042230497
4080,0.11569347470287521,-0.058575902153774145,1.055473312660815,7.6289641349504755,13.651546386355175,17.64149002175762,100.02227368570459
4100,0.0985810675112773,0.0002768246434664796,0.9951303499810906,-7.331339829011487,-5.587860521594338,17.06865377144976,100.0003956073861
4120,0.029583588541626377,0.022361567009089305,0.9073700773630047,-17.114537715898788,1.734000995704883,-3.6518558391466875,99.99369863526393
4140,-0.01356602394257203,-0.021550508087512788,0.9546019412174709,18.075387015235933,-10.15102329838382,8.796864093327441,100.00895133526677
4160,0.060398369946969684,-0.004102783726453416,1.048689310961373,5.155782176677555,2.257733370758957,15.116879325770473,100.00319626389096
4180,-0.03484075729692296,0.0046116326734711825,0.8740083680783833,8.775292243842614,2.29810572438844,22.01181907064141,100.020599768336
4200,0.021370531343479784,-0.018606516613280083,0.7999130427606265,15.219214990844417,-5.926627423635913,5.376545171186392,99.98125271805344
4220,-0.1566441823909847,0.04920812447245146,0.7709965917178255,-15.140766682581045,-4.7386035730806855,-0.05421379594395565,99.97852509178398
4240,-0.10595429626616555,0.048039409112808934,0.8488097455998984,2.734903363252258,-0.8354724428044606,-7.1432883544747785,99.9804265418424
4260,-0.20997713536898602,-0.02434374268056558,0.7535490183257546,4.903084409528444,2.2354276624079574,-16.376407510792877,100.00148416222696
4280,-0.23858531680752365,-0.030812453042200833,0.7617699084642794,0.8876014319465138,1.8063065618706664,6.21895316965931,99.99694810991333
4300,-0.1888533962669427,0.0162501250964014,0.9653698963855644,-3.886983302273133,-5.215199724224287,14.962436549564746,100.01566471528253
4320,-0.17581045967883324,0.032301756063841836,0.9677035962687269,11.100505230450985,0.5089944414527846,13.342859446602466,100.007862361879
4340,-0.2756141395578347,0.09357491982693807,0.952214773783806,-15.434470082842623,11.685475281277172,7.269385925432342,100.00150572662518
4360,-0.09364956593426148,-0.01523633212679036,0.8359697307518664,6.290135359664225,3.9747503150188868,15.290945221248267,100.00211638661128
4380,-0.181099312876793,-0.011322321867322214,0.9887788069178234,-9.537185232288751,6.671903479289576,1.9438930155679288,100.01193610119903
4400,-0.07034031750104892,-0.03702013005071711,0.9884396608103492,-11.570913896626877,-6.380756490978034,18.60579025300879,100.00752805216095
4420,-0.08258998295318543,-0.08983412892082049,1.0547155006636642,-7.172332339752693,9.423416815373121,-9.350172569184512,100.0003939946061
4440,0.02899750696176065,-0.05440172873211363,1.0558990941709214,-2.800195039694628,-1.3089789051508938,-11.228158746165438,99.97130704109367
4460,0.02781108459075432,-0.1390724223350378,1.0965777152580822,-27.63923970091507,14.508633847037462,-11.151424626688083,99.98374389799508
4480,0.040381852916449884,-0.05566967874464993,1.1618694874373847,3.3888731928424973,-4.218450606065553,-13.553693492959043,100.00384847310984
4500,0.055427465835850065,-0.018401764761034136,1.242693709484655,4.644544603626142,-12.535537051596798,-6.707008296900109,99.9669148703409
4520,0.2005269369304801,0.032319260667374804,1.123132988882596,-6.963588487619811,-2.4646173819279023,-10.169809185515401,99.97262341298048
4540,0.0507756011068331,-0.04925680393673701,1.2282382029276242,13.634091410087596,-8.078569229775676,4.899055702388031,100.01054122933103
4560,0.22690203887391433,-0.003782860325438782,1.1008648777068841,-19.405163463767515,8.012699549086769,-6.845808214510187,99.99293366542351
4580,0.18374339669136092,-0.03592029054167935,1.2292201741404905,-28.446466363862733,4.608132660091935,-10.637055774789141,100.00459449753576
4600,0.22136041128349648,-0.08020038838870414,1.0307863927408392,-7.3426992055617415,1.7578257021780734,6.664724286595138,100.00405749522257
4620,0.29825897886911595,-5.8282862628896796e-05,1.0855670053167628,-16.04543059900274,2.7913549816440244,-5.716226279595674,100.03504729500584
4640,0.13901206311250006,-0.04302925286067341,1.00804684542368,-7.75185571764084,9.848314832493243,-11.127956539485712,99.99353125748121
4660,0.16593396226595533,0.027030591303065163,1.0152804650552323,-8.42967548063104,12.425176986136822,-6.419544196414735,100.01746161874887
4680,0.07822657090312383,-0.01684302897277849,1.0627147038961497,-8.843130952538393,-10.85627073890801,2.984453870472222,99.98780322423424
4700,0.06321164244527758,0.06429817786063509,0.8966979587110178,-23.678709140590385,-3.360021363927375,-7.295786754354563,100.02840118036328
4720,-0.05984713376831618,0.062470918571661684,1.0026923575485187,-14.939850672304807,-11.820061538999378,-2.4495645331956917,100.01095436065914
4740,0.03698970371280806,-0.036404198892648926,0.9661086737079726,0.3160719898795484,-0.12354343237084875,2.602949312467252,100.0024254958158
4760,-0.06715813638828208,0.010176163767155397,0.8522533146024313,3.3302247262994884,-1.5408405340286577,-18.535870500253036,99.9800140819408
4780,-0.058865651489591705,-0.10162409259349406,0.9341151297571513,-5.705248431695013,10.62292223253814,-11.864112788449509,99.99690594025995
4800,-0.18160343879278118,0.007544008122644767,0.866058179975329,-14.175294298796114,-1.6752654691182705,-2.3319622956058046,100.00110836829889
4820,-0.1881442313841737,-0.02551851643451358,0.8768872488820894,-10.193686947590479,-13.90107704934827,1.480307102321368,99.97168922564781
4840,-0.18002483072580208,0.006847650571778892,0.8923486899509288,-12.181604021069681,-1.2988209457875959,3.89791660862276,100.02072006661092
4860,-0.23080419477537095,-0.019425457642348,0.7707735377830466,-11.508415104321609,9.07213959586118,-6.414187741986442,99.96464690197337
4880,-0.13572362492393603,-0.03686724315305705,0.8624908545606054,-16.911844172617098,-9.963208797268884,-18.64078330297565,100.02017468989507
4900,-0.16148869552942266,-0.010576381740953891,0.8050191248645456,7.252026326173969,-11.774465511620225,-2.704010860782711,99.98754638453984
4920,-0.12939184866131903,0.02146442663466437,0.8996094868997535,1.0271535555480553,-4.978876756664701,1.42712866744925,100.03791935304749
4940,-0.16352110977827922,0.045701614255469536,0.9922781895261514,10.519126098816354,1.6484128033608498,-4.621390535108153,100.01702208689345
4960,-0.16936562014871195,-0.004452885700304017,1.024745462667702,-9.811714613020682,-9.135134358544228,-2.322491000326005,100.01258840181895
4980,-0.05643156829982528,0.012451864452034344,1.0283886151784196,0.24233738361380452,22.984897365232612,11.87294798715768,100.0242826640093
5000,0.07534986850715195,-0.005777701299745673,1.040790204702204,-12.699640323578498,0.15285803396907285,1.1290300577424437,100.03162102594109
5020,0.05016918265723881,-0.003387494059488585,1.0649205376395694,-5.926926008024242,-2.743504128969778,-20.93464650358772,100.00571734691356
5040,0.16000433452061102,-0.0579549704576916,1.1708377956798857,-9.635030286980777,-0.9017091864250504,7.81480899997828,99.97935764453666
5060,0.04909222338530099,0.014734378056680925,1.0802165316946448,9.743076284090389,12.606812572472508,7.196509564031567,100.02682701591549
5080,0.12211971615382025,0.048036897352912694,1.157484591337689,4.78161276800191,12.708645749300487,17.84662298016134,99.99446280451808
5100,0.17255121483464264,-0.03614682453270487,1.1350386173292233,-13.64958119935539,-6.971677077419333,17.99381171335701,99.9861918907518
5120,0.12111722902012118,-0.014366775570014768,1.0888660945222424,15.620652923490981,21.26790876032258,16.6609524156113,99.98432421877715
5140,0.09214699232209309,0.09118755733826817,1.0525412935418483,-21.428207162946464,-2.7203192185766447,-8.451565378391043,99.9998841374937
5160,0.2089822404121029,-0.004188439777901413,1.0965372519791934,-4.379727249770385,9.374502343455957,7.2774595568466935,100.02709328873766
5180,0.2043682297776903,0.02169372963063619,0.9902021527188622,26.5802869353622,-3.843050731934654,10.110934565885872,99.98008861134348
5200,0.12147935561526704,-0.0026666788667157773,1.1147688473019428,16.744467816921837,-3.6076221379081908,-0.9464377153153755,99.9977890796312
5220,0.12705024186969288,0.022354239730621197,1.0591309755245406,2.263904828747462,-7.578234264753236,5.570750678151764,99.98349031000642
5240,0.08986733772467181,-0.03334805736839382,1.0302097759373752,-7.490043828336722,-16.43624928891972,-9.059766503485957,99.98752598566509
5260,0.030438321197370367,-0.04701327297639188,0.9944571096507943,4.157267434885869,2.735968680518206,9.432486665686127,100.02289524461048
5280,-0.01573917602074798,0.008913457341542105,1.0103030238792226,-11.871107833703928,13.086134619657713,-3.0521951066625634,100.00528327886545
5300,-0.051014399550154355,-0.06383247946089012,0.9091671737899608,-3.335347183302991,10.83818619463962,19.635050573061843,99.98510484953584
5320,-0.1049937114785346,0.12372761444804924,0.8841292874920735,29.269839212401408,12.4667232262197,-11.108326287744246,100.02290979104893
5340,-0.11673956559633153,0.08414408262303753,0.8960997335731848,4.01669150204606,-9.849504559705755,-8.827004141863018,100.00051288260842
5360,-0.11853766922217748,0.002517395252390351,0.9624061940816182,9.055911960651128,22.859418891937537,-6.049330950432104,100.02498642570878
5380,-0.16782086161137344,-0.0389475485600278,0.8662218692001957,-8.986677529767642,-2.8030713595485346,6.047586749614526,99.95744119218872
5400,-0.2598746855669115,0.053920218126530174,0.8925154055588401,12.543977155346067,-14.24678278339292,-21.495034278228886,99.98724956293823
5420,-0.24506237263285466,0.00118564681830656,0.8752520175344393,-6.626794581487712,-3.620539578305108,6.377691963267441,100.00768532559037
5440,-0.19200400678846152,-0.017581227826717657,0.8889257127304153,-9.739356984183296,-8.528046343004178,-4.340127790153826,99.97045731017229
5460,-0.10770163567085007,0.0010739992229603207,0.9422853631845725,-25.560744922407515,-6.9301928940544535,-6.882606118670683,100.03683695447401
5480,-0.03450123384258506,-0.0492149085176883,0.9616808157774747,1.0572129749914052,-7.039833250676077,13.416169484722786,100.01223627608583
5500,-0.14315779811324955,-0.013215624681419812,0.999771007994235,-0.71684567044394,12.715532946892907,-10.340667197697574,100.01916229865263
5520,0.04032315819321225,0.011838081123729274,0.9830042873301471,1.7486797845535844,-15.232685954505794,5.808353873964085,100.006424776306
5540,0.07409123172964133,0.055484359537170895,0.9576787100874313,7.9246378049461255,6.530136702622654,1.9789223745378939,99.99055309606511
5560,0.07293657004100504,-0.010788735613007928,1.0312446359125054,8.451988368560102,17.17495474656437,20.704282301659127,100.0100606889772
5580,0.09446873358519428,0.08517382174817807,1.1253585469756868,19.449118370332933,3.660279392050533,6.597469987571349,99.96101263407674
5600,0.08520152418776636,-0.0017851485842367545,1.1558261858777024,17.28370120736262,8.417710559008647,8.046615163795485,100.02755952627741
5620,0.1224168473407509,-0.07231232503697209,1.162717128207055,16.112051108831192,11.777472074263606,-1.601902242808888,99.98711664122476
5640,0.1552170192720323,-0.10671949768221448,1.145974391765026,-19.72140530524241,10.688020141521083,8.696528567641696,100.01736919602567
5660,0.22699476556548312,-0.006359962192221374,1.1286992799838647,8.22331975663857,-9.261873493202337,6.533430089764652,99.99229099240043
5680,0.26693645836017177,-0.013728224445627525,1.135851855216139,-0.4525220247253472,-8.91350934571377,13.352070333065715,99.9996772686357
5700,0.24956938310638668,0.06754876515181095,1.1633889576909355,7.830439079051535,-1.9753278181749585,11.980795832492785,99.97682498709233
5720,0.23778056352453675,-0.0023570344258575003,1.1592899632849216,7.079546833734395,1.8417950030721222,8.561065759522114,99.99938156931441
5740,0.15290927625042763,0.10122344138544136,1.0732282761964707,-2.5423839960962518,-18.24243294688556,17.7982800711619,100.00495757547891
5760,0.009411350004422114,0.010886257277793202,1.0915521740285823,13.367503690677818,4.472534823896652,2.737629255148896,100.0039915879475
5780,0.1455024275416308,-0.03341911378086477,0.9307361482521581,-3.487414429607013,-14.903170257325247,-1.94303784167019,99.99147728716328
5800,0.05089096914735655,0.008120958320819811,1.0494996382687374,12.727351234460013,33.4912800787455,7.753117030912195,99.97461746244295
5820,-0.06370788222873246,0.04659298689210087,0.9589108352831935,-5.124005067677358,-5.36811519463109,3.291327799852251,100.00600614966898
5840,0.042682943635884436,-0.02425628096838587,0.8726947766842099,-0.2781154329871396,0.7668543860190085,11.62874263934733,100.02074925301686
5860,-0.06619455507717449,0.006528561349418248,0.9384417285576129,4.104140973766713,-32.443600456491595,10.241661821047046,99.98758690885455
5880,-0.17660521608315752,-0.08012324174869628,0.8161612368688337,2.9193416550435467,7.044988900676049,13.225239042177147,99.98746311510254
5900,-0.17871923030280398,0.022282219766563777,0.8294182931563693,-5.133261263979258,-21.745079950057487,19.877493694372628,100.02179339136616
5920,-0.19224312323903575,0.13963823863659278,0.8386849499912733,21.426526693520685,-17.353284134947085,-0.9322429383792171,99.96632126842798
5940,-0.16022661195358082,-7.758137629908956e-05,0.7931361657632932,17.03365133346767,11.413847128306832,4.420576080405494,99.9801883482114
5960,-0.14510987224618327,0.034014024510901054,0.8572593501153288,2.2110325534005146,6.194894880904456,-6.012067021767802,99.97339231800095
5980,-0.20668317520935142,0.014473642458799158,0.9054591591666018,-12.963661579261709,-7.0552148578110705,7.373865002506694,99.99337259824306
6000,-0.22747775597791403,0.06622403305124909,0.9196196073998427,15.356645418594503,-2.1967582603845197,8.963717667463598,100.02692113870694
6020,-0.09876104983027996,-0.06640084671585138,0.9254862804034377,-18.42642537642636,-7.825372940501486,5.052669516355113,99.98687542572144
6040,-0.1391823229291621,0.05484340291717537,0.9549723624393356,-5.0656653809885235,16.414837792328434,2.617241303185383,100.04813380729193
6060,-0.15004120998397721,0.05343894396861892,1.0488305278999785,5.974533010655295,2.380320350004649,-16.74463589354604,99.98657285891123
6080,-0.10553861750235963,0.02424008346459719,0.9728731997381751,16.701577120744563,17.839798795581608,-4.765416088631607,100.00689269056566
6100,0.0932146054536475,0.0898430757794041,0.9510118899395188,-3.6734530266743493,-3.2997019148578786,-24.376404217117432,100.006708322616
6120,0.04916069228326232,0.018617337343163103,1.0795200116886354,0.7378710240903898,4.922772334942541,9.093004690561857,99.9928132425175
6140,0.0235315290887931,0.08714679764540895,1.1489592721280273,13.071932693604646,4.474215873909159,-14.861238338304576,100.00913360924564
6160,0.07560801468332211,-0.07766034899935394,1.200835835425997,2.315379188746035,2.519126316980614,9.356977939731054,99.98814890356243
6180,0.24018327709709095,0.06428201773487179,1.1520071746549647,3.898265024199025,-4.27276229286392,-1.7138942366213334,100.03019679741855
6200,0.04893827819256946,-0.01656856230392672,1.1749068095372586,-0.01784933612458668,-6.807067443699767,-23.182362547736034,100.00829132359279
6220,0.21197032818638786,0.0048651410746238825,1.1696509420816752,4.323484295140725,16.005124891892898,-3.3792764601593888,99.9922852986348
6240,0.208118960468037,0.032993012271867114,1.2272214756675364,-7.2831196645960095,10.185621819330184,8.549252048574708,100.03277650606604
6260,0.24572383631472466,0.07527637749998442,1.0801130917446409,23.751319258676283,-3.626208339180032,-2.157537049512817,100.03503599758989
6280,0.18427326091346852,-0.019154045140068812,1.0816779165348818,-12.598135332688491,-21.517829742535326,9.6346812332192,99.9756652899172
6300,0.15165913649836482,0.04114869516479512,1.083039117924466,5.215768392372716,-12.885399672844837,4.579282665460181,100.0024331936259
6320,0.13399189952474108,0.04897401900283069,1.0304571813590746,21.71784792475755,9.33500247883175,-3.8325183580853945,100.00282708039883
6340,0.039521582670842006,-0.04398247306749699,0.961803891611474,1.8846190871289115,1.7598046761807726,18.376173619433,99.97558448180057
6360,0.12549754426493426,-0.002365936677544479,1.0555844495883828,-8.509686016631523,2.7627982279534935,24.219125208582426,100.02542227123506
6380,0.032421259265092164,-0.04119564016832983,1.0905603691431012,-12.645180724014661,-4.634916014127154,-0.4907625269243263,100.02348722730572
6400,-0.02184218453465719,-0.04829052951776702,0.8373489913936772,7.452376701908097,12.900966148148298,3.9957291566008886,100.01146522429151
6420,-0.08019952349332024,0.020472422542487462,0.8854939365541838,-6.201758483189417,-0.4248219104018498,8.134023700242711,100.04456418930289
6440,-0.12426400937926374,-0.009808891495547378,0.894665731422566,11.498618253285901,7.170481247795147,12.788333223915009,99.96544577148569
6460,-0.18570530857630704,0.12766396074355632,0.908072820450786,2.0191488868416188,13.298948489489767,-18.507665276511965,100.01605553031818
6480,-0.23030543563713202,-0.01669967093645745,0.904807635254439,-6.581387953434723,-19.716247560146602,-6.256159141794322,99.97087580547323
6500,-0.1981720213604801,0.012430713922975298,0.8478207702014715,-19.31268933234987,14.066289819818305,-6.732494562948304,100.01636064825693
6520,-0.28076555734327446,0.0030626241856574177,0.8632738480449682,9.561054342646457,-1.2339072377370373,-0.7908623229054084,100.02651931046029
6540,-0.3111164668011664,-0.0009317652384424355,0.922174471478246,-10.251475761369809,7.376871692853813,-6.316294133879547,99.99894139272715
6560,-0.1277254411069612,-0.058603742914289506,1.0201653940815438,4.234996105699743,7.897843791708329,-1.723495198826388,99.9759861537836
6580,-0.09245029429743627,0.04869667419002528,0.9912978981611325,-1.5877609964790484,14.233410303038653,0.2003111186797144,100.02290237463477
6600,-0.10707101769475873,-0.01131246601547164,0.9883135896356116,-9.12156326085049,2.2087953014465986,-6.686620880902177,100.01595724272056
6620,-0.17331629490326456,0.03768157564740134,1.0111493534581724,6.151178287940231,-13.988527196208057,5.27042052865081,100.0030565139939
6640,-0.08277619809069456,0.05999085677017399,1.0292253012870782,-0.38079307119089845,-8.760252879666663,-1.2747368548521412,100.00011394958275
6660,0.03466216951439706,-0.008225108732809029,1.1357501184008987,-25.512285541066632,-9.312790869625905,-21.80609700986283,99.99051693533134
6680,0.07917422136865744,-0.04830495821696393,1.1392454975665363,-2.1588872292240717,-3.825378408464893,11.674479300331834,99.98423082260771
6700,0.1332793318621727,0.060019233336713135,1.0267266358769425,14.633884358031569,-13.9638021956665,9.685276656463852,99.9883520285867
6720,0.1567626011619366,-0.06184947104918928,1.0500153028941612,3.7936230227800394,23.57063944387363,13.216478851437456,99.99970574519651
6740,0.19516596391200147,0.03105795996444087,1.0992034542728675,2.9266241682928387,11.513032802379932,11.954301068959412,100.01790011350194
6760,0.17053429232286954,0.06164085412972317,1.257651421174942,-24.081747492744228,2.971228145023287,7.1265134094355425,99.98370239037034
6780,0.2465419387977249,0.07867739067177137,1.1406140523740078,16.187228377011376,-5.446378087936977,7.0327070248533206,99.97693948848351
6800,0.22952936808170613,-0.07058851293351018,1.189215767184523,-2.772817090492957,-2.966567758163808,-2.808555420601507,99.99602473340866
6820,0.3066568226207615,0.06697311004542388,1.1796729854361276,13.907924597466634,-27.41595348627417,-0.8680851488928293,100.0006011266557
6840,0.20967401829702986,-0.027002740276963283,1.0696518381302176,6.349560924907117,6.9304593125541665,31.65812612065578,100.01532972675828
6860,0.2662504417383539,0.02125353311447642,1.1007283202176723,9.652519060430087,-3.726166697312805,7.668004381248991,99.96108453090538
6880,0.09725124983015618,-0.03736752038298106,1.1607245069136447,-20.173545846277747,9.629226142465283,8.774188836599919,100.02018774786616
6900,0.13119773058119266,0.027149532088004497,1.0037616793462336,9.802009433825534,-13.032960211985298,-33.08610151746035,99.99779985619094
6920,0.0254913729321092,0.055316224986527954,0.9134143972092785,-0.7809529159741198,-10.67926161770154,-13.16572386175796,100.02784039761916
6940,0.051990106777350005,0.008753462541032079,1.0970039203886681,-12.18851277977508,16.839964573415298,-5.687162472287397,99.9972602836737
6960,-0.10598637276943187,0.0032983256174125113,0.9629968724811448,-16.782534734768713,8.385726056367496,-18.481958045514475,100.00522336157354
6980,-0.06147396603137971,0.08327232468645479,0.8726881265860684,8.508135477911193,-12.136583443706552,-18.48064083473266,99.97461539808768
7000,-0.23627125901748552,0.05740773332647867,0.8890461566491462,-4.977067902232564,5.674330375914808,0.5664612301019333,100.00744481826086
7020,-0.14912831482955885,0.03320777850984535,0.7465200492060231,-3.145008747823911,25.12984671796454,-23.21953638062589,99.97299273658476
7040,-0.18314448308234788,0.004748629816562416,0.9794499172140249,-10.5867661082697,-8.333877722687376,14.317406738547355,99.98810527153846
7060,-0.15164735015817288,0.02736883482283331,0.9112801284419959,1.2109116735994938,-17.547290381936445,-13.61164726026444,100.01202622985429
7080,-0.17672887864260015,-0.060529361747829385,0.8861922142678917,3.4681637539706722,6.420095602991237,-3.8228736523501956,100.01644527893868
7100,-0.2750202030694044,-0.02015694004432922,0.8445329309974059,-18.960131360103123,7.58130378696498,-5.3701557410239165,100.01923115669207
7120,-0.19069205872615214,-0.04414052537625102,0.9392966333599693,34.34056682893131,-0.5356762902670055,10.302933761891744,100.01267167945427
7140,-0.09681761559406346,0.03670148251533957,1.02892476844598,-22.71650077852114,3.530604622802408,-4.516876697344433,99.99700931858568
7160,-0.10101617402869235,0.034181182190823105,0.9793326766834433,-4.575744413468742,8.709409769684747,-18.894767531895283,99.97334272985704
7180,-0.16156477191331245,-0.040855141422022664,0.9973161574430849,-23.50834170239144,-6.915281686473232,-1.2683883096102377,99.99432245473774
7200,-0.09896560029804326,-0.05584370640064495,1.09499617714251,0.13607263375536222,11.647496912597802,-9.532334059214048,100.00373169125285
7220,0.013884404208985887,0.0796257147899284,1.1364332621785875,5.859797829901009,-3.540711767513292,17.650004686806678,100.00599862756616
7240,0.19189094381983818,-0.0859299878701339,1.0781240846638336,2.7974362009539226,12.697992195903183,4.940768832375198,99.98596436866882
7260,0.15373226500241727,-0.015693380463091,1.117284891989339,-3.2147437338929636,-19.75890431590747,-15.583902749181716,99.99307641404809
7280,0.16186723858591084,0.06513267715774856,1.148965920527911,-9.711564349645375,27.854563576747474,6.944366784904337,99.99209957941952
7300,0.13857180554397727,-0.0646401249999873,1.0760235942551686,5.951881262432815,-6.572550034856196,-7.360370224778679,99.9658868780892
7320,0.18419532017395757,0.006260649197126896,1.0751940798215973,9.052227134265861,19.053412037948352,-3.5702757100073366,100.01321685209099
7340,0.19675017185393578,0.08897898034863932,1.1888383405640806,6.46581195822451,21.04422318364088,2.5077068864730814,100.02137728086016
7360,0.19030032028597876,-0.024234737861514227,1.1173570906569485,2.694806140910277,10.234072172501431,-2.667320045128661,100.00372861082033
7380,0.15266380846001915,-0.01709201651821616,1.159741958164887,1.753210237458279,2.374075497813468,3.901229981536292,99.99066591963346
7400,0.21566477409091073,-0.011233292465113568,1.0658135730052414,3.5284429541669518,-0.5329379282235314,-2.800608318158526,99.99254990371406
7420,0.1583447281556079,-0.0017885619096556329,1.0080763289308736,-1.182638577509445,17.847764885275193,16.493164307973082,100.00367408958166
7440,0.080794286703495,-0.04673659064915107,0.9984843830551438,6.975005892546498,19.245910705509132,-14.083479489844333,99.988531484414
7460,0.10738142730208214,0.009566129234465419,1.065879712377622,0.34629960124374704,-17.961330923010742,10.763456279493226,99.97487959899192
7480,-0.056658635007213465,0.039630141677924495,1.0500673492290464,-7.777329996698173,-13.008224371844584,15.450175746424444,99.99797740337968
7500,-0.03805491339806165,0.030783691651069863,0.9337978822105033,24.25808295658147,2.3767612521816783,-5.536960714478929,100.01638500312028
7520,-0.030778343725586448,-0.056463976215961255,0.869700028004149,6.343259666838456,-17.124341019679136,5.82043386546,99.9830796460936
7540,-0.14920263677730652,-0.031073552536975482,0.8298965997871475,-22.946262268284578,1.7873306581177768,11.108905757874965,100.01477304315301
7560,-0.09792992447520955,0.12847363373709556,0.8626692737925309,-10.27572902450393,-9.153854295314337,30.53014839606237,99.99976602781149
7580,-0.21226879007019306,-0.0029915800679848285,0.8572493175842367,14.095944012660016,-3.084922161882762,-0.063755347857104,100.00484193836273
7600,-0.1766938319166058,0.0779133221560867,0.8195834681319508,-5.53634466871426,-20.695683456639607,-2.687510151622671,99.98572653879451
7620,-0.20784845159076343,0.05036107571557441,0.8192207342981714,1.5319563470597126,-0.3513928521600205,4.440153823545786,99.97208390881089
7640,-0.18326900406888763,-0.05564903718269685,0.8892766797359112,17.567111684248605,-20.263035282741242,-7.3637387153154386,99.98505116659844
7660,-0.2385614505605354,-0.028288268785709954,0.8316535211192887,8.061300651271193,-16.48852190475647,3.7610941137928906,100.02221666911312
7680,-0.17544543889490266,-0.08602686917502178,0.981807219352312,0.6642117175054971,4.21311389447204,-5.38006201615989,100.01762087823009
7700,-0.2700395785112806,0.012557692456415104,0.9490520863514482,-4.933798687939904,-0.9676675457341389,-17.4745665600848,100.01191123991666
7720,-0.12418633463433985,-0.06611128549612826,1.0511326385093769,-3.8446923432832953,5.311806384381088,-1.6221242698728233,99.99791846997817
7740,-0.06232599057538733,0.0342085118652578,0.9408629259142669,-8.087874174214793,2.483860498295595,8.797834234925816,99.98071647222416
7760,-0.002914668036251518,-0.046680705434067465,1.1175608593536044,-0.18108611351709042,7.281865653571541,16.310551432535718,99.97847474842808
7780,0.03279266331344412,0.032194708152497316,0.993602831806427,0.7898612885483297,-5.1347603623414955,-5.1981178247391355,100.00760007937373
7800,0.05302032134666131,-0.010777463849292452,1.1135088185972475,11.947099115681752,6.890548507120208,5.282257159108462,100.00989492543347
7820,0.03867763380696688,0.05776545854124097,1.179160385828227,19.586932131023453,-17.00881521165427,4.947873131035784,99.9905693051133
7840,0.17560634236014683,0.0480742028842839,1.1314257825859015,17.478696364686982,1.2007789291436375,1.2192437973575379,99.97581365333643
7860,0.17176909736257784,-0.0535192229135678,1.133113504496767,2.0638002400514868,-12.100975473519025,7.509405850485887,100.01969040829745
7880,0.19399938031042302,-0.02651171205957516,1.1819538784077104,12.509761746922562,0.1406914862437532,0.3216818649422444,100.01168370307485
7900,0.2037891068279074,-0.08860231946259127,1.073755260810995,3.7941160398424785,-0.5894446235464739,-6.55208672538493,99.99449226009644
7920,0.22826382573381415,0.04765701856449245,1.1540436052338452,-3.299252501218243,5.023278391177739,-12.559878728797674,100.02860583055377
7940,0.2777963121319883,-0.06172635639903654,1.0856242081393024,-9.032965812525205,9.929751325339097,1.6473748313373275,99.99527571319172
7960,0.2802389685943263,-0.04095712731784752,1.0624352224772284,-18.060696419460484,11.677090473295056,-5.192498432701686,100.01774218546213
7980,0.1737676261141835,-0.011414637530720155,1.1561594459221445,5.916348533371554,-1.6214409498207272,13.3237707944185,99.9814699605107
