timestamp_ms,acc_x,acc_y,acc_z,gyro_x,gyro_y,gyro_z,baro_m
0,-0.0365619602542234,0.06296774375300866,1.1144074657752026,14.027706701407315,-23.974743869267407,10.491359163402223,99.97080229617241
20,-0.006004498803900492,0.038341300003116564,1.0207128220606885,21.593727084136766,7.729012773520239,17.51318117419525,99.99273732892017
40,0.08683208019101693,-0.06585312226114308,1.095572511159125,-5.3155370145702525,-21.59728644279166,-4.48173078046006,100.03729677226963
60,0.10078078452426865,-0.046721013214948384,1.0981041448854085,17.09245112879507,16.715894069474285,-3.976846111602686,100.01228479094827
80,0.18388674965964455,-0.016867047187181832,1.2131153551748035,-18.858573136420848,14.280661410964559,-8.620204701264697,100.01438209630972
100,0.14927876400352244,0.08298870941404604,1.1281500963440865,2.4662814581861503,-4.703384406771747,1.2038738579955044,100.03410048889121
120,0.24258240871365072,0.030088989159566634,1.121712669956656,8.009932576321498,-6.689228705409137,-1.611615859564169,100.02384394139962
140,0.2520541563015146,-0.0492637216813564,1.0946194853935864,-4.926562359196391,16.08550206428651,-27.051732070372232,100.00776604605227
160,0.26196806318378785,-0.03857802743692385,1.0726889364889935,0.01942911456137842,-0.7948578554877559,-2.726702758743689,100.02316971841051
180,0.13835579433137732,-0.04320374821995246,1.106318222880733,6.942439510159401,-8.069383770082307,-6.067748003273314,100.03531255182682
200,0.16342741960398227,-0.06798400580689425,1.0673875890640416,-8.886393758778418,-10.970687459791312,-4.535977882691903,99.9909470151826
220,0.0918323802625644,-0.0024342262793366374,1.158956913529531,-2.074683889446255,10.398995737456337,-10.745173232565268,99.96810181341034
240,0.05274499479800562,0.057180659311603224,1.0314645144267056,-2.768024157231026,0.2034481797617721,-11.604877267852322,100.01600937461167
260,0.11663863817596873,0.011197670552480207,0.8837438454485801,-0.844842492739895,-0.6245184046686116,2.8773943445998436,100.00670628294837
280,0.021637813684011385,-0.05174508771342871,0.9598646477226629,0.799291109371648,7.249348638840879,-2.5231491085189584,100.0037407088589
300,-0.0829108256921115,-0.011029800505948748,0.9133837986516625,3.5808018492432945,11.045598351604784,-3.3178822211233525,99.99211407350754
320,-0.07936615487140854,-0.08307330131679994,0.9570323196532059,8.411194187513441,-14.133870160744312,-1.5968349435623352,100.00443178469988
340,-0.1957830650630343,-0.0017720704688019432,0.9157173764365253,-5.829439582469979,3.784721833728787,-14.400357339228199,99.99076389052192
360,-0.15157702754219365,-0.057629699958505365,0.8611137835526145,-2.410236207081486,18.349185257062228,21.9336810625421,99.99698340551808
380,-0.27114379490923235,-0.023448770902057575,0.8919381385303309,14.887042367941692,-2.529614185835401,-5.611602481955579,100.001749381891
400,-0.24310057135514598,-0.1009596314230155,0.899062623293053,23.417442700574508,-4.551499392669867,-4.234523695571632,100.01782251893583
420,-0.2693025869116747,0.05843421096954228,0.9346208084768014,-2.5311915178615454,8.355604821649042,13.905037703162758,100.019796169545
440,-0.27870182388283304,0.021698930731820585,0.8347830294959235,-4.761114825708743,4.536493873638899,9.305267760089764,100.00805533268237
460,-0.305300343459485,-0.035612972037075794,0.941445712369116,15.085523284677297,6.639461415225206,-1.6298650237198493,100.00300061685644
480,-0.06825889323546545,0.003045564195846527,0.8706906595618178,-5.331627422502508,-6.271299573231621,17.186078080657712,99.98572204247475
500,-0.11684091475458173,-0.01843066418317585,0.9270235573784747,-14.441153079178523,-9.475048082225157,-6.324436805190311,100.03881425850149
520,-0.08579520605688894,0.0899882258367473,1.0411795698646469,1.7149502162228036,-27.402663319353138,-4.941023862863752,99.96569792096179
540,-0.11006694788697333,-0.0022790782249594074,1.1130201917932125,12.141203501915115,11.86551302865969,5.606981967159483,100.02201278023975
560,-0.005971673113879809,-0.05279623933513764,1.0674371775380536,-8.60916059437761,-9.027235895756622,-15.502129282661784,100.0353898119992
580,0.06120079217721133,-0.05333815579741716,1.1256509334973073,-27.224775535251002,-8.98638064945518,-6.903133752532173,99.9798110859361
600,0.06514797015346044,0.016094410654624657,1.1188383917767166,-17.9568450491604,-11.904540130411245,-13.82468038449207,99.99894021747052
620,0.19513057320331112,0.023118355075677725,1.2554438608583252,1.8692502915759857,-12.556760468692346,-4.01222387026798,99.99920103955094
640,0.13661657017018214,-0.03945664858526413,1.2483297128118893,-8.98820147905274,-0.789789615193815,-14.90115972600536,100.02532161528603
660,0.12889818298253583,-0.05679976230076426,1.1636728089193462,-4.645414103852094,15.146296002047302,-9.563199530815718,99.99643958481714
680,0.20618351022325704,-0.01612742366972631,1.161130796516058,-10.77505793030797,19.756544273313708,-0.3673090826554275,99.95401211784976
700,0.22004892225077097,0.0028627224684276238,1.1956500233053262,-19.948191924249375,-8.592988158764957,-27.79827936626978,99.99018267769421
720,0.17947001137500113,0.0012628030848727818,1.169922818675758,20.803896156293064,-20.36805387785588,-1.2605802269707116,99.99483946004128
740,0.24736397608171995,-0.04233611101556474,1.1143591279636333,-10.087395215763655,5.786094288880204,-1.262476283195235,99.98551800772341
760,0.10388543045019785,-0.06453639520654725,1.0960763930153676,5.378927166328157,-4.451434502708301,-12.899882728945052,99.99846036435784
780,0.06874289366661726,0.06792381717414003,0.9931055047640951,-10.695733428797574,7.206447314064823,15.269704581075885,99.97190146436867
800,0.05395994108502629,-0.025528195737985024,0.9751463846198901,10.088810426582956,-17.65048876874771,-3.993964901551233,100.01041965728484
820,0.09428630462918414,0.02979364437474685,0.9937338008505522,-4.943911846881139,9.265872581962775,-20.457431487488577,99.96416870750141
840,-0.07247713889171462,0.03657257921159628,0.8668776314826819,5.810592079516781,6.195979757847483,-2.1346278836971755,99.9907256378459
860,-0.014654902549531917,-0.05194401794678785,0.9407115638144843,-8.862833066438952,-14.487416724283236,-12.309320412072363,99.99951800208879
880,-0.04655834832601277,0.05950813270921897,0.8799550230834631,-3.1925162185067424,4.087012241180373,7.904720646993984,99.96251323362345
900,-0.12156726575837228,0.0024005770624931973,0.7940172601391433,9.224305932049129,28.775244012371203,19.20890652928444,100.02359461377033
920,-0.1558891478715839,-0.08269270432079394,0.9395399154218551,-11.673063984510147,0.6837994754043712,-17.108898340224762,100.01702467081846
940,-0.20681114834407857,-0.027237539266826816,0.7789365958983714,4.742786415156514,6.315205061787248,-11.476204948647155,99.99666740606581
960,-0.22137911420855322,-0.018199419951532285,0.8773470407611674,6.70170704203944,-20.31657950505659,-13.951049568022936,99.9736192136994
980,-0.20136059030502282,-0.02845791552083156,0.8364877789249687,-7.271666004246201,-13.700749240460873,19.43517170823266,99.99216331969446
1000,-0.2458760769730823,0.02509985962704782,0.7709442208133253,2.127665494099449,-2.7875651361945057,-4.578172378504713,99.97194506809149
1020,-0.08217733673993635,0.02789526431865283,0.8911830962395809,-4.797390961115816,19.185865887544473,3.8339834815463743,99.95957974344188
1040,-0.14441911952233488,0.03345447920086978,0.9469398593872594,4.468692109618818,24.88678844990156,-13.010843117871556,100.00552319227087
1060,-0.18347640114558342,0.061956882931427794,1.0365211834207841,-3.599897645735145,2.512771870509848,-3.4325909564874237,100.00607658019977
1080,-0.0246266424356903,-0.0369319887807761,0.9532123609164916,8.461150066773806,3.924589358438226,7.449094879625953,100.00520673315758
1100,0.026063396413075264,-0.023732179265727453,0.9795945258344648,-1.0999093966972913,5.577855239169418,32.708968523697436,99.95749713804845
1120,-0.02037188246920382,0.04458685305759629,1.0779971633588281,-22.058322482124854,-29.259237793279286,-16.427411913256574,99.9787874083211
1140,0.028748990083481453,-0.011032146937051835,1.075526337333667,-16.92517231219367,-12.211884957347813,11.716868362730263,100.03152149230847
1160,0.11946772669271828,0.013087968613319345,1.1306294518817641,-8.809494512232915,-0.667288506665636,12.31972144649266,99.99281455829845
1180,0.08491235837061717,-0.055747316946106164,1.130314285453893,-4.527467451314501,-11.53069718207692,9.449656826190472,99.99222525345093
1200,0.17797952820485088,0.09826332906393148,1.0704165507247005,1.369895777768959,4.251695625205705,31.479123868342754,100.03391094556571
1220,0.2063542955901517,-0.007519481980522458,1.1806595488594642,20.643440716915567,-0.5384090907574667,-28.26475133371045,100.01039090819987
1240,0.13990248022530039,-0.03250747802546763,1.1196865414342738,14.040053216154654,-0.32396031284268845,-1.3518071869864017,99.98260800664646
1260,0.23317207696786793,-0.04166812653227678,1.1427251017494653,4.6197344369383835,-7.496320816241521,0.02096227747506881,99.98847900520855
1280,0.21194461110342422,0.07609240122619833,1.029165558553093,-3.414464525500357,0.5577031762614221,-10.46339769954506,100.01159622903769
1300,0.15145143800317612,-0.04199588095641494,1.1734899925946412,-31.012515327122426,2.4145914438480864,23.15433099440689,99.99983213086401
1320,0.08766018381441855,0.10477213256805451,1.1174334824729972,2.2601722973048526,-10.279090396181616,-3.153693311433078,99.97271644819132
1340,0.1204722171958467,0.014373160217750239,1.0613434203261571,-2.1272028721753466,-17.558709811902688,-7.184543026442937,100.03498319063831
1360,0.054478663838234215,0.057298931006652246,0.9897299006921636,-0.13872400975082247,10.67968054641928,-10.552902274161312,100.01227469478383
1380,-0.0323447251115779,0.0005401796223820244,0.9503311916664859,17.309898383951605,-4.08910154339298,-10.087803894541441,99.97659944120502
1400,-0.07350267688292406,-0.031746412670985796,0.9452535310234776,-3.8868427742478637,5.10054664698666,4.083676720812212,99.97528163972088
1420,-0.07928769041624528,0.0718762968283482,0.9247101359467659,-20.149808255743622,2.803028643296529,-11.34816485146775,100.02148710391438
1440,-0.11023704990977236,0.050109311349484244,0.9692191362206399,2.389573108663205,-9.800167397120308,-13.414468820363481,99.96313719737161
1460,-0.18181457667039155,0.015506419587989881,0.9059348421392339,7.040475915816089,-0.11241895884736258,-1.4300826909967659,100.01993195882902
1480,-0.14092371702242446,0.023530602462052283,0.8012116824710112,4.938639397213371,8.937331705597146,-7.6099396726640505,100.02200354442628
1500,-0.21638143837214857,-0.03375390402168491,0.8531233755086122,0.6896438515533507,-7.891673519017283,0.7253184207644648,100.0120151768796
1520,-0.24348099964617215,0.06931203554885751,0.8938775833914371,-22.851702723946453,0.1449245440863247,-4.791659419837337,100.03557747703138
1540,-0.1524393194387217,-0.13138537521469998,0.8451622822175487,-10.386122129352948,1.239452953302289,-1.9260202387068057,100.01285595081258
1560,-0.2458776300662784,-0.015341513624967551,0.9270105846983877,15.467718299784273,25.22450003545489,-19.874132461112836,100.0121042839725
1580,-0.24208896324698492,-0.05898172688142218,0.8888434564889232,1.1783359133390139,-15.11554423336743,-0.15206231690609923,100.00355847637223
1600,-0.020592746179619134,0.119440039580742,0.9657035745417566,-13.365682139971568,5.069051126373862,10.9675721054749,99.97923680818009
1620,-0.06606452166478678,-0.021894284159022562,1.1222671847612686,-3.0750202537556537,5.941933765284888,9.990219780021508,99.98682556201139
1640,-0.06773117953915717,-0.04925211036569477,1.0414391194231414,-12.40474535390654,-6.238931170937924,10.345751428014077,99.99324038622375
1660,0.11722965111371464,-0.08543342832113261,1.0637345378974628,9.730283712281349,21.969516973268313,-7.8549399013632115,99.99322416427916
1680,0.05630550192044878,0.0065934535820309365,1.1464119444880265,13.059384184115952,3.8165922503131515,-8.59557433831114,99.99055570704395
1700,0.09706373566667433,-0.021816913687570112,1.2206724314803394,17.44954797995168,-2.9993061182264538,24.69561440759047,99.99496337789249
1720,0.15730328482315148,-0.07187175672492375,1.2326603674758099,11.823264678055743,-2.8599093712198225,16.776403200432085,99.99804885135748
1740,0.18581808504626784,-0.07126253872618278,1.1817561746283027,11.62769376917496,-5.609191366282772,-14.761595628714757,100.0096346348684
1760,0.15642464907442627,-0.018800420472857612,1.1964093989844369,-5.929802390612477,1.5330945271060092,-12.480361398215912,99.99355441425963
1780,0.23167742158522686,0.013985840762285904,1.1044267853760021,4.374830678523702,-10.339404058707903,46.172547046822324,100.04071851517504
1800,0.22591958093628717,-0.057734662390026406,1.162359891502659,11.235921044751306,-19.498758795937373,-9.270835552924856,99.99342282292776
1820,0.15271803568420755,-0.03565256860371057,1.0766398555947674,-7.4295484041532,-9.123987195430269,-22.77800890882857,100.00874973247589
1840,0.13641835480051695,-0.058424718165701765,1.0800709876493402,2.8733732620426493,-14.812678649057409,-16.207564129237596,99.97253799939044
1860,0.21759286743220432,0.001781975343043635,1.0531410751167158,12.33709992152181,-6.1034538942236365,15.883924782172272,99.98136064402813
1880,0.06600312559477836,0.11773776483084489,1.032156115134899,-0.9701012249023637,-1.4836050832936183,13.99395737720191,99.99328865374521
1900,0.10569436659168274,0.020920451814629145,1.0171535123079551,-1.3599917645803616,-2.6757511143400325,-15.354502602973689,99.97374708739429
1920,0.07335963809768013,0.025597759094167158,0.9081273124422489,2.8904574015448565,2.102152169324949,4.31593607882029,100.00996422014207
1940,-0.07292324728772848,0.03364181762383393,0.9608556859518959,-11.204053714060787,-11.930419633437634,3.8721194409278716,100.00740823033439
1960,-0.04400035661112605,0.025070124187443768,0.9566404114990289,5.278932303387034,7.138198674628061,5.388506774525905,100.01551890127185
1980,-0.11067562402904205,-0.023763539188222264,0.875853098701386,2.5560570643166045,13.730068113647713,-11.243353902752936,99.97617758107208
2000,-0.0827642607728935,0.03891937730306253,0.8468160760982356,-10.138608181315995,-7.17208344970221,13.888118653646535,100.01360601199048
2020,-0.11243141587292119,0.055963695400057946,0.7859872070365331,7.011118808888831,-2.5211403377170365,7.792422054778675,100.01007606325473
2040,-0.18915279773831195,0.028859928609936976,0.8492957851824791,-24.084814999963335,-0.9822755317320324,-4.709502021727049,99.97080567397201
2060,-0.11291198807587313,0.02443759421427212,0.7931037625166262,7.370606540969771,5.470405722192731,22.995230282623695,100.01027461727291
2080,-0.20655458559626583,0.08968896254159046,0.9788657409201799,5.445639325711772,1.5053825643672467,-6.139548052683691,100.02705626731293
2100,-0.11451393170839194,0.002164168534379562,0.9431872658239466,19.884339910449757,13.987098515436262,3.670631791259403,99.98376994865501
2120,-0.22879269512629188,0.07101115349131513,0.8949020461922063,-1.3709173013855334,-4.187847254770402,-0.7068642054654979,100.00273638988898
2140,-0.17191189236338322,-0.050702274816537045,0.9282267931725501,-13.971939200705421,5.60205999374479,-5.9796661882667745,100.00444926332045
2160,-0.10386985262265441,0.03967319365504399,0.9532921024188932,-10.583966281395401,-19.946878479859063,-17.42559314737929,99.99908351064171
2180,-0.08130123927920989,0.03534931241624185,1.0528021228688587,-6.9840257112979955,7.120716126743262,25.405373669804362,99.98331211270616
2200,0.008842181447819814,0.020094929094137924,1.0130500616203861,5.7822876892820645,-4.965386723581483,-11.461057473301842,99.99999814519884
2220,-0.036067282466298214,-0.006874343905798504,0.987394050170375,-4.292041964889738,11.258228758567391,-11.608872936688037,100.0245717342245
2240,-0.053371631970272906,0.0037434564111826067,1.1006233347098933,9.353579869132378,6.905608532594134,12.109549441691108,100.00011398989878
2260,0.10428004756543344,-0.092354274221152,1.0401585598710268,7.5403255911601805,-13.008352513308754,7.728633593988959,99.96471398338242
2280,0.1561716370567746,-0.05644851927503744,1.1669146732753115,23.00321197273648,-5.17571745866546,19.128159131765102,99.97790036479732
2300,0.10417478408762647,-0.015829018521409745,1.1520715421765728,18.01695659830477,-2.4152404125044367,-17.248288101338552,100.01443345313713
2320,0.21270018197882629,-0.039115281250436715,1.144508828108732,-14.966676972478933,7.3021561878716845,-7.381678443027311,99.99791044782162
2340,0.2814267246821124,0.04307825879920108,1.167605145200487,-10.766445511301262,-28.236228332878028,-5.617607700741406,100.00263909868951
2360,0.2387726865438573,0.003563920489997706,1.1135373241896447,6.276761717527668,4.446541585263239,-17.541366840727584,99.96538322026957
2380,0.21891682487828895,-0.07777506872707637,0.9748706354184621,3.429918563908915,2.5384227852178465,-14.70479930417692,100.02660071119207
2400,0.1703021661194694,-0.06675739368215135,1.1540369787721263,9.3998257267118,-1.5500451977741265,25.964733080617094,100.03649062073397
2420,0.1513726776045458,0.005564960795250291,1.0699742565951456,-0.22978229879247875,-6.138392297720251,2.9130232877164763,99.974034540256
2440,0.1283565363852012,0.02996355389898894,0.997862157298177,14.06167825571399,14.691670240107541,-7.318674849624877,100.01614861982873
2460,0.037658815730285546,0.012817778635744972,1.0353459805634935,29.543438654058292,3.3320745386455033,-0.7264740031826653,99.98790150456982
2480,0.05512389401875944,-0.06516893122314672,0.8841975933180023,16.02707016231527,2.271180449426063,-5.273981478952032,100.02180044852057
2500,0.08701925232439767,0.059524372742201154,0.9528756977577778,-4.235346576110027,-5.639987726340003,7.763985802704559,99.98576059722694
2520,-0.05425618569023108,-0.05671978923288325,0.8705649617708999,-2.9825142961777655,-8.528131522566916,10.56049312182464,100.0117993648266
2540,0.0010199861631424723,-0.02950064656655482,0.8586282062309207,-27.372400663021025,-11.03188334831669,-9.365481886159504,100.00892746741027
2560,-0.06113335859653607,0.06926319063686434,0.8171821006038049,-7.945815554912646,-6.510618907632297,2.153302494298771,100.00144912133221
2580,-0.21909573852130645,-0.003274390008766122,0.8177199391410908,-4.926762453384587,10.917886731082799,11.662132262391477,100.01052480294844
2600,-0.17517201920301625,-0.010776399878746975,0.7552706755271468,6.6972826689579055,-8.83579132231248,17.998329161954267,100.00877585282133
2620,-0.18401965588529784,0.016298901317441782,0.799211387854115,15.730757016388274,-14.716369001928783,12.469328160358879,100.00790919050074
2640,-0.15711010690272514,0.007873800218661428,0.8067616016078902,4.438324413668097,17.87600692201858,-16.00192500392272,99.98304950871582
2660,-0.12115432199827106,0.006243219015590256,0.9329592486762247,0.6052994765887124,-14.469507076482815,13.44549895747198,100.02536295088869
2680,-0.21626444919409976,0.009792245456787538,0.9887832048681496,-3.8997678888683684,-9.275678886615967,-22.138669591212935,99.99310309558308
2700,-0.16523463682042197,0.048051931789544665,0.9682821241198569,-21.48109356635105,-3.095766000425951,15.354030008324973,99.98407294089458
2720,-0.09696617543582153,0.04966492531896023,0.9559111273613523,-7.784699298746331,-12.254454281422774,-0.4837870449853029,99.99260949748688
2740,-0.12173343286108614,-0.037606808373868594,0.9891653379232019,7.3031079374582575,-4.5519247686377255,2.2753248486160516,100.02020313838686
2760,-0.0464100456397258,0.10422799007961114,1.056988573396278,7.253140809621737,-9.500311643381549,-16.75130072521542,100.00874231558575
2780,0.04355619379524786,0.03540591146537497,1.0821151755612142,7.730271531503592,2.691832690854665,-7.6690539833587446,99.9730375309404
2800,0.059191457810764375,-0.0863547896244465,1.024776370788605,-2.3673124120125264,-6.025489396956154,0.03775009009353026,99.97385658897966
2820,0.1686849789855857,-0.005684089196092342,1.1074767098543126,-13.16187635437307,19.59073306149327,3.548388547731794,99.98685245695107
2840,0.16212700535497662,0.03897317269986269,1.1670119901712455,-3.4564693988710795,15.097222733817604,-14.861215787437732,99.97545982909642
2860,0.11855346253917257,0.04982966809773404,1.1658490504609869,11.999014112330965,18.516241855895963,11.673245104390471,100.00853194774419
2880,0.23117711459262183,-0.07639098361366345,1.1442905127237863,2.9512191576030706,-6.065287799217756,-6.629251718513632,100.01650814676223
2900,0.24113509965437974,0.047342548375826625,1.1054217625976082,2.6766357200737985,15.799467456765079,4.005547854339756,100.00160590979694
2920,0.1284199954591983,-0.08408647796641579,1.0989361095090535,-2.433229277179457,1.2596998420062047,5.399716769887059,99.99331784254929
2940,0.19199091376723315,-0.049673633308985,1.0328949194618793,13.422194834185067,15.91120687657883,-12.853817203016192,99.974790793282
2960,0.1606995653581025,0.03691539420891183,1.0786596761057872,5.367804832744543,4.343967099899604,9.815877309366414,100.01627664135448
2980,0.12261071264318846,-0.05668669124594621,1.0761761878021354,-6.728347196621208,11.883137606265553,-5.0243126517024805,100.0130563524553
3000,0.13770744031881343,0.016212020147875986,1.0071906928292127,3.6947511851483905,18.34022539595514,-8.949674562122626,99.96479710925193
3020,0.08269400776799904,-0.0437574688643414,1.0271660902877666,-2.371130725419129,-6.137173432320337,-5.121805636348082,100.00793740497392
3040,-0.03930857892647333,-0.03852294330621022,0.9301584773814097,-15.418154771908307,-21.790598077857513,-5.96005914706863,99.98790470252548
3060,0.05987627193832948,-0.08749917908943333,0.8981213650135061,5.562230411619936,-1.3482695841553656,14.426833832281096,99.95956008251454
3080,-0.038574847463790654,0.009519619916800136,0.9609441797230173,18.89882974927405,14.19612073733225,5.088371886625563,100.01265590237944
3100,-0.09439516213852987,0.03620695100761423,0.9208913015274889,-5.97974415016976,-0.22919438297080488,12.019558010115556,100.0040775895992
3120,-0.05520286887365679,0.047369707450804176,0.905959566260459,-11.388320658099705,-25.00671093572589,-2.4201166015836995,100.03449904412797
3140,-0.21512713987797166,0.026296968983822333,0.8162502789825141,-16.286752884512193,-14.581466627314441,7.172619927150015,100.03150736156178
3160,-0.24462428383057,-0.0774574069265301,0.8278506128975655,1.959568095515115,12.06832650569972,-11.660917816108231,100.01844758728386
3180,-0.20013832633825102,-0.03647130361105014,0.8010075848353744,7.123060552370617,-14.302526375070158,-1.3853186047383266,100.00865957924789
3200,-0.16108927983841792,-0.0006652568610518213,0.868982607590368,-11.76429720757961,1.2158523478202865,-3.3358242873034865,99.9823902409816
3220,-0.18667134317292725,0.06108441209363964,0.9986408429400848,5.742195411417779,9.257927214604955,-15.485897323503519,99.98821576668527
3240,-0.1596236497835887,-0.058060244115716,1.0233633007813356,28.85744121766418,2.8867591376048427,-22.707906419315854,99.99589052742604
3260,-0.17993360570487774,-0.031218943230709506,0.9458910508487604,17.08614929667237,-12.156436442712907,26.758832428005874,100.00344818388685
3280,-0.11947713750162992,0.028831396734044636,1.0261857364734521,-10.71100215528498,-5.719055218058981,22.968498618690642,99.98544250107773
3300,-0.04189903905806534,0.08195317535174838,0.9671394066365221,-10.719506269500704,-5.003145602016581,-8.282927450877274,100.01545908302124
3320,-0.030381924265744938,0.019124835590971737,1.0437696628054496,3.2174361713179023,8.769248269560057,15.273861197104038,99.98158238940199
3340,0.015161604057825776,0.03631114842339945,1.1187033994289477,-13.814630098775748,-19.184399390502207,-8.345303221631783,99.98684605717207
3360,0.06116721400457823,-0.05975778948518632,1.1594467448692398,2.077807501086436,-1.153684076249154,7.583995396525545,100.01774579756365
3380,0.06354939876927587,0.002308626305262759,1.0078336985479133,-21.80852523581951,1.116962660001017,-15.941610625392077,99.97367367721655
3400,0.17869827643346733,-0.038787753504436605,1.173228372112116,-5.450693050407379,9.310979264552618,-4.133430024044686,99.98923071898516
3420,0.22444113860329423,-0.0954717383234253,1.1645085559732224,-14.38001359590653,15.91861335326328,15.187637361648461,100.00766830247355
3440,0.19864006142813453,-0.15910878157968295,1.23655520988687,-11.783881536149728,9.003240908117004,-5.0013401259609545,99.99001695751846
3460,0.14067737707173628,-0.03582418311189902,1.2312391208597893,-1.6032387373382702,11.237050455511996,-13.48534116312906,99.98958476789252
3480,0.05819307087780892,-0.029889423497481152,1.1631927643873747,-3.038168833437489,10.113861525875002,13.096931506201184,100.01283099604485
3500,0.13637949494218155,-0.004738035325110901,0.984721874370786,7.093644765509742,9.066702391107057,5.3898892913015715,100.02632307694769
3520,0.15824726204691766,-0.0787126655933744,1.0254056806244576,5.924654076688668,-9.071064503817928,4.945606867099497,100.00239694683164
3540,0.12299262996720867,0.023556805304546548,1.0173120792819226,16.09692003825952,-18.40161219806924,-3.0960159673000356,100.00639669405567
3560,0.18061299259331762,0.046066629639824906,1.0600488408021436,-2.0967867849544612,10.945982078337126,0.7492321128391243,99.9759982153631
3580,0.04386344918982349,-0.0033298674124956733,0.9247905954554317,-3.0020527179004795,-2.53857784634655,-4.388856573743393,99.97379813836442
3600,0.11441413190259127,-0.055928686923138786,1.0010402143984465,6.004853341372414,16.859280996261575,-22.891530339124266,99.9822500544154
3620,-0.03624743944953969,-0.07126407018540709,0.8379323312885167,7.256306729560148,0.268942766137146,18.930423154675747,100.02036552562747
3640,-0.04324917096200162,-0.0038221073923987523,0.8780593333146992,0.1059426320167001,-15.898206995184811,-4.053728240259512,100.01366777083769
3660,-0.09612650434856064,0.02660590289332006,0.893786948624196,1.240930693223272,-1.9357324921026708,-13.132311111402363,100.0329173746022
3680,-0.1976728522354551,0.03497644465041646,0.8948588236205641,-2.6159577751976215,25.004974386329472,17.82711899811739,100.0161271296058
3700,-0.20782841606970898,-0.025641621014059413,0.9248904987651905,-2.2825641713488167,14.24791735957887,4.370283596941638,99.99080818742132
3720,-0.23272941986145473,0.11052490289696555,0.8285324601977953,-4.681701262753135,11.400774267617871,-25.545458802540953,99.98791135472882
3740,-0.16362878273861137,-0.01094241230990893,0.8652063310181775,11.769851053361448,-19.493313738089512,-1.769142968997501,99.97822441843373
3760,-0.273136459274349,0.016933146835548942,0.9188923404172262,5.888842768254922,9.245778586908743,18.931562973264462,100.02231868155077
3780,-0.1065450551471259,0.017420792599190132,0.9780989924931028,32.49315443540219,-8.20329866009591,-21.963050379189266,100.00447273304097
3800,-0.1602590445989841,-0.032473573091756254,0.9137721448556089,-0.2447968652547742,-7.502978288589576,-2.8627671983218157,100.01795213346183
3820,-0.14539935539508414,0.054987183571964596,0.934285309504737,26.622545209584608,-6.387199949881815,-20.734155103693706,99.9697689309342
3840,-0.06023279775451347,0.021248299186042447,0.9517480353671544,2.5526496904104317,-16.12219294297048,-0.6129247133481543,99.98149740827988
3860,-0.027262696794647802,0.008459397870423184,0.9447546863202515,21.204410146066245,9.86615780752637,-13.91517746565226,100.00869794036116
3880,-0.009021177093161616,0.040797871878121686,1.0919613201096472,-0.6502256534465666,17.558989863355155,-12.248131292600833,99.9937519901511
3900,0.028733200553619616,-0.03362082561448394,0.9832298169228436,14.524945241378493,8.419236967385418,-4.110470235558224,100.01954970601793
3920,0.11493938062481099,0.03143603699380152,1.1890819310335998,9.863203655596584,-11.449597534700528,10.771485467769118,99.98060765344276
3940,0.02471324472552125,-0.024539499169927686,1.1151577375526975,5.543013014841179,18.844475191914015,-11.997007675592895,100.00597319893232
3960,0.1553878978048326,-0.03505065845525442,1.0581460374415443,-2.2379458687713636,3.287794103079066,-9.949455202724696,100.01659455808522
3980,0.17254095544548534,-0.11308006183415165,1.2468483201579659,13.797065114127356,-6.71736810426683,-9.548766714011055,99.97463358627097
4000,0.20720314670368412,-0.0047632629801785085,1.0975793004923355,17.5533027718467,2.9387262486119052,14.694291799615641,100.02313368094748
4019,0.23907031707698967,-0.04062375994410859,1.2225614366085662,-15.306390202934749,-3.131622782873865,2.8861411640014945,99.9867001278096
4040,0.1909691555901232,0.008013646270735543,1.1347732229462095,-19.6644365485069,-16.136929244905332,-2.993560049730312,100.00956364419132
4059,0.1813287402896339,-0.05401167985763843,1.1489429522334031,11.306300024835718,3.548749077468357,-11.788531103033538,99.96365459458623
4080,0.16803475234267445,-0.04378021628041289,1.0394418733256072,-1.4978537363138613,2.0841436678096317,-11.99838779810621,99.95761237957852
4100,0.18623537006528046,-0.03187221821062574,1.0190888954769637,-18.266877237214718,-2.698988568315788,11.97336457563273,99.98764948421136
4120,0.07367602047656584,-0.01523253780515676,1.0441907850759506,14.795187845409103,-3.573731571101465,0.6268713280456047,99.98618655101977
4140,0.10626379931978341,0.023984832754677107,0.9601890062915243,-2.4449602290586805,-12.382705573953613,-7.587300408528433,99.97521300542921
4160,0.03667100142923736,-0.017779133393547513,1.0156027825054874,-0.9118378914727698,-15.31326275424599,9.429861870351651,99.97750471849874
4180,0.008488057709775898,-0.03643898097884704,0.8184441864865462,-22.163040524586314,-21.975079097026192,15.591398133999817,99.97694490100575
4200,-0.045615004795879606,-0.01858408274052301,0.8481532950909313,-12.45541676225084,23.851061926559844,20.501732307479116,99.95587268976684
4220,-0.16667798270182993,-0.12821344590942993,0.8443703547687785,-7.103863037177582,25.367419850227577,3.931840494795688,99.98767879480788
4240,-0.21681369728085675,-0.0576452063811299,0.9121753633007154,18.97439234349257,-4.0261745658947135,-6.074477017672677,100.00644114772376
4260,-0.16068289388510482,-0.014369099827395133,0.8438564748189843,15.564883659544062,-4.190624613281959,-16.8203648652582,100.04139550864353
4280,-0.18634116090560904,0.0056006345681077945,0.7780082251482803,4.565464379136951,-7.392058952095779,-4.136386751786427,100.02771659342228
4300,-0.15850579348191854,0.022317457748644104,0.719731566214534,-2.8715790857292793,-3.282442678331284,1.6817823650270673,100.02898335036048
4320,-0.22167819093157154,0.0307578725993813,0.9901222416605084,-10.862114152887209,-3.4364228571832687,-7.877760214971017,99.99491351354786
4340,-0.17501730604656823,0.00590238496037157,0.9561619683918616,8.07615868977343,-3.3536466519760877,17.042254914718786,100.01788922496203
4360,-0.12489722740166337,0.006064376606693701,1.087339294598164,8.296014333746102,19.410020427986236,3.1976805102120283,100.02363283318128
4380,-0.2279060069925018,0.03660083199353654,0.9579948646359842,-21.821198364112085,21.145792995573473,-6.602012960187694,100.01175535760316
4400,-0.17337562682298252,-0.004599883319123805,0.9576542719907268,-18.215020531757467,10.79242497723854,-5.513727435208929,99.9732294228008
4420,-0.09328353986523166,0.053030517346716766,1.0544097024384755,7.672632245007668,3.9201443841218344,8.203526654054492,99.99459368480439
4440,0.008872920780432435,-0.018306266949239876,1.0712041262996912,-23.09818138726193,-8.108229122486282,-15.566380005720035,100.01533127918717
4460,0.06663879899274783,0.029879697941151168,1.1007747815764375,-7.837760770703451,10.336813109601033,-19.375148998395556,100.00903319482705
4480,0.02060987367895483,0.02601981172937409,1.1462793828973727,7.25180825835875,1.7027844447955989,-2.6163958820752047,100.0239125747808
4500,0.19809066598920155,-0.058885942052711464,1.1314371644368548,20.610651371094097,0.2938899517640067,10.812690463257388,99.99895461957023
4520,0.16781670785928443,-0.005153130492471349,1.2237928099935071,-12.192419616946104,-8.452343663668728,-12.964142960837846,100.0332587607834
4540,0.1803900046680053,-0.058257263615299704,1.1481382768862918,-1.53011181276613,-13.637627824624406,-15.304843951354549,99.99780997746699
4560,0.17181406966505755,0.005620927816787935,1.119925918960856,4.199811012750857,2.438340542913516,-14.93080388882751,99.9675593671318
4580,0.2086306555310869,0.029151138399148204,1.0819551494990585,-2.613333000621626,-2.5656412885483233,-14.3163380901965,99.97577498386421
4600,0.2278084949351796,-0.023052581601697476,1.2084030642576657,17.806858459067687,1.1418165866713363,-4.0778070633333705,99.99094266053434
4620,0.2461199595875608,-0.0018675154479087395,1.1792633060984081,-17.057076774366898,22.829493865154845,-19.4805945450758,99.99610620367356
4640,0.1537618579583855,-0.0065226433874921086,1.0242728975145061,0.17736385360639276,16.270871006561606,-0.6364501621826033,100.01112477316227
4660,0.11693393787082766,0.013432350733509239,1.1121122203426737,-13.78299210456086,3.137252788165826,-23.408068726816293,100.00606212253786
4680,0.09491568601715694,-0.01574044602358336,0.9630401079441302,-0.2884596355744089,-4.816998045780562,-1.4580315394107561,100.00254147133
4700,0.020001147454255686,-0.02459019010197259,0.9213846685917788,-17.477412367365933,-3.0902933700285287,-2.805324637690719,99.98072608477648
4720,0.07706181670217073,0.06592688483574703,0.9733478121598066,4.709278609606001,14.97246726603907,13.463337789998931,99.99857845137147
4740,-0.08833850055469508,-0.024110783755435586,0.8978924454814873,-25.12268316095654,-1.5225214261060136,4.454538362801965,99.96786553205615
4760,-0.07031993413492155,-0.03067163207992407,0.9294053872131716,-1.874906497257541,-2.512584776361324,1.3598697474701145,99.99713313740972
4780,-0.12066846571936721,0.07415355648508154,0.8943302104955014,-3.421772459432427,0.7969128409032551,0.5966883916001362,100.01365831318822
4800,-0.1759046451998827,0.021831149806726926,0.8429483604612448,-0.848549437298598,7.390299795119308,-5.676539533457962,100.0225441516483
4820,-0.17435578017987927,0.04255000452230928,0.8370399518726589,16.172282845129605,-9.569871127560717,-2.9232022421733914,99.97457723460454
4840,-0.13593829644616395,-0.026295932379346878,0.8738037217504752,-26.592599251541962,-20.74941988013653,-17.53286440982533,99.98134866328809
4860,-0.2230786026297062,-0.12311725027216194,0.8160804052831157,-3.523348693759151,8.646732928743361,2.7145155486280155,99.99282999700857
4880,-0.19064825501534166,0.045919108566774836,0.8373550305660518,-6.217610114710965,0.30367999015185354,-14.535564783460327,100.03084554041546
4900,-0.22817198503714223,0.07791353073390304,0.7626878208512333,-12.588619438467607,0.496320910435991,0.38594621282156016,100.03450689119356
4920,-0.15302689131681663,-0.10977924579173196,0.8574104104793244,-1.2250577652296417,-6.808905226037224,10.590861951355848,99.98319587613175
4940,-0.0734955733531222,-0.025085347894868427,0.8457038387685127,-0.1773745429941299,-1.8145536308084762,5.747366668928991,100.04091066343942
4960,-0.09218749859138844,-0.023461078693998952,0.9231401239810456,-17.841215254162798,1.1163637905986123,14.53586517805657,99.98532044988609
4980,-0.017061710588245856,-0.04256927433421534,0.9676690463980463,-3.4009117144368206,1.7203605671154012,3.9976304174363424,99.99305374828543
5000,-0.06954029865944812,0.038585496168743905,1.056037240577506,-13.071444940619962,-1.3714323016342505,-7.388986245922878,99.99908009622956
5020,0.030794122290911406,0.007216672234045635,1.0497580956058057,11.35965920318055,-0.22383242754644314,-4.9810563692379155,100.00373333813158
5040,0.06546925730082151,0.08233394701118851,1.0850247235866606,3.7598032183152537,24.4395972588083,0.31525774342398055,100.0482276691563
5060,0.21191633035346935,-0.04639479925459625,1.0848643469894481,-0.9883959029064071,-4.117742197584606,8.048928224708893,99.97349506653515
5080,0.06747385485065258,0.010926783465655388,1.1945946595906765,-8.505572465689987,-9.312851300167994,3.0496129209202163,100.01573564942659
5100,0.11001944248461443,-0.037647753257544894,1.0590503477120634,7.921192239877131,4.966154057731551,-13.948988630683314,100.00227885137033
5120,0.2051490674793873,0.1004662853704139,1.1971472317077623,5.137317337508204,3.5279969120609422,32.81567006569557,100.00003905484424
5140,0.13457781858654672,0.007869917978564787,1.1321782669467921,1.1849528944319645,6.458591053494838,0.48256269028129045,99.98037282209538
5160,0.29126436392668925,-0.03613321775050524,1.194920621694593,-3.4180427776508564,-0.5129223437541606,-0.848874154949497,100.00619838596371
5180,0.12175997124991263,-0.08485308882670607,1.0264969183433923,2.6718654489372264,-20.13698378793215,1.426111590484499,100.0075270926897
5200,0.10037640697079461,0.023457274207365267,1.0221455298389026,12.59316872084841,-5.695818904160862,-9.78385049214512,99.97896213883969
5220,0.02360268896830421,-0.0734986861229012,1.0460883712632172,13.735497362275073,-8.013508058002678,-18.24925359631803,100.03324057905395
5240,0.07963803486871163,0.057136319032591025,0.9339962509763733,-6.64008140005477,9.73944017246636,10.750726836854575,99.99530485389747
5260,0.032959632113533685,-0.050404015052978195,0.8862829038523838,-8.685927352917098,-3.758688910936935,-1.1117751578042454,100.01209301928104
5280,0.04614283226614759,-0.035466030150743934,0.8665158983755669,2.8987276146530334,-6.13160568501338,-21.470374862537,100.0009231344644
5300,-0.13042966080162596,0.008206621918741391,1.0143193277066147,15.232967011797204,-14.021481402550137,10.966445795778117,100.00174750429038
5320,-0.198149565772604,0.04022440583901527,0.948793788836447,-10.621363768391618,-5.396477713148439,24.186900937639955,100.03040302011141
5340,-0.03405858332476444,0.03237049622169715,0.8783437745186726,6.333737734743817,-12.782064534954014,2.0869798036780054,100.00667070117566
5360,-0.04257735811815566,0.00897037289266034,0.8651427765918979,18.91425695108837,-16.531364222395194,-10.428334894084802,100.01291237918203
5380,-0.2748437072968083,0.00912254684247467,0.8689956564285997,15.155994590631842,22.102139906288432,-13.554166388141352,100.00148415552025
5400,-0.21195942988860716,0.05609097004894438,0.9005201658871036,-9.698613594782827,-0.9994609354532054,11.95273311064216,99.98592293879692
5420,-0.21838394113647971,-0.02378792950355081,0.7962707603280919,-13.244776089150099,14.539142771198303,9.371242655437598,100.00478308122115
5440,-0.17028694923254079,0.06404959829652478,1.0290916658265206,0.3691120952816828,-11.72008463353426,-7.417540559828719,99.979296729904
5460,-0.15749118727641823,-0.04887571200130689,0.8762950169151507,-2.662117533814022,18.758973210582557,0.799280811911345,100.00866913144849
5480,-0.23643835985758554,0.04015283818777307,0.9272067559722633,14.268342747990665,3.239887432401972,8.959013271865857,99.99444988069273
5500,-0.18126972339835618,-0.04666968577157629,0.957599381979458,-7.356630484448543,16.439112755867438,-8.834426705682487,99.952551481795
5520,-0.09457665162472878,0.02799917604724116,0.93967753544916,15.115757792375252,-4.541392591380147,-13.865580319710041,100.00064974783731
5540,-0.04518178100368014,0.057276927588237395,1.1015394126044857,21.381524252165406,1.3371626797839706,4.323983085936958,100.00831649173817
5560,0.017251861498795172,0.0013738513607405077,1.1613499552953286,17.35985424963083,-4.986288985563366,20.84981156071641,99.98806606179727
5580,0.055873032956663946,-0.052804529802728845,1.0368187570737244,-4.142999885223014,2.499024861542325,11.705458558656954,99.99501729772787
5600,0.0985062538034259,0.06313894573514038,1.177902582242284,-10.081437591872088,6.036658481313997,-0.5340003448213333,99.98752909044461
5620,0.23494331154029247,0.02022579743640827,1.1392827920031965,6.8264209962994915,-8.454004581048991,0.397643805802572,99.96828076740783
5640,0.21134767235153148,-0.04002406824344922,1.111955189370024,-4.409499931863223,0.8881035367291736,-4.736666118475111,100.01794594069716
5660,0.15174819383440516,0.04068087690928475,1.154710791377555,-11.893915214141847,-0.008963906098016674,-17.16124623213109,100.03019104676393
5680,0.15943227060067522,-0.01781523435284639,1.193729866062044,14.403048550772374,6.773513343490055,5.168366379711615,99.9753201843295
5700,0.23245388303305708,-0.012302121701808826,1.1271239302758835,16.866816128330647,-1.888180058491097,-1.6395656167138484,100.02831277199483
5720,0.17408207753641136,0.01025171097635846,1.1145930520345404,-2.4041605148397673,-1.7684243907720152,-3.6431728986791665,100.01250797471313
5740,0.24043008092058482,0.03997558599001667,1.1188355478359275,17.301102806520824,9.097882827846256,-15.37498404103491,99.98601774544508
5760,0.08075816204317902,-0.020937798187583897,0.9607625279199838,-16.638542004486563,6.149635775735808,5.803861418181163,99.97988483950694
5780,0.09878935799866011,-0.032513454636951704,1.0879552718765888,-5.187955150721832,-10.517318646824844,4.036426632200777,100.007358591605
5800,-0.011477506770102716,-0.04625100879385263,0.9770432865999137,16.837915267485204,-15.544064272086953,-3.7812145269400466,100.01736512176227
5820,-0.06927748537242039,-0.017104762144839532,0.9399578509537176,0.17828663377345852,10.648977942128935,14.588557433938425,100.00233758759616
5840,-0.06908126078428725,0.00028351396844717233,0.9498859166488498,-7.597529453553321,2.215911880878222,-4.901055429163746,100.01584748759149
5860,-0.1466647217077484,-0.019868003635262987,0.9026707824991519,11.076397450256145,27.8330344783163,12.185457729817992,99.96762497933237
5880,-0.06077957182174722,0.042380081456728676,0.8782224119261892,-11.236357154413039,12.78207487554296,3.7986424408526482,100.01862767536834
5900,-0.150700373967809,-0.003971149310629165,0.8558328436059242,-13.931189093521684,-10.794507296313014,-10.444013322989937,99.99825010417648
5920,-0.15051104483914618,-0.06632745710983393,0.881193718170719,6.417603975774112,18.550988626940732,-14.075759968230855,100.01338279326431
5940,-0.20475239284018637,0.041445346968114645,0.9163116587134272,9.120223552510094,5.851297893250737,26.401478566250642,100.02816444333072
5960,-0.22503047731790318,-0.05444229433640008,0.9236794629480816,0.46200873657556296,-0.17030974048581204,15.159390961558092,99.97102430584813
5980,-0.2278579862314452,0.05778852175676195,0.8329893868946601,-0.6798536001784538,-19.071809447412654,3.2411445677873845,99.98850686683976
6000,-0.1677101681748907,0.008516138196850374,0.804842496563405,-0.9754630261571168,-16.475293300058304,3.7117315765908048,100.01503558674092
6020,-0.2099501271125098,0.0529733070248724,0.9450230954481597,-18.599131324521927,-5.240633638877508,-9.867834483118315,100.00221515828035
6040,-0.1482109216164794,-0.008491827598573516,0.9445432079467723,-12.08595157575887,-3.1947681510204093,18.862968638025656,100.0037115911775
6060,-0.1595371576035861,0.029890402427814256,0.9190055498403608,-9.345151620165112,-4.926374503804251,-2.1945013151550006,99.97748425292043
6080,-0.03489392633386444,0.04404626675630002,1.049307812593807,10.770283381154654,17.33413888210561,2.0457076197904662,99.98157052031632
6100,-0.07987206593068719,0.004177729406666999,1.0074105179243855,-16.22848611969159,-20.911802696343145,-18.98516459739964,99.9687198028747
6120,-0.003327424236304697,-0.008064378702544684,1.0556794436248798,15.927874300765534,-6.618739100048366,-11.069329106525036,100.02359623438181
6140,0.042797278852537146,0.05247813179334282,1.1259065631763572,13.789202527504276,12.492677105403349,-3.8391687771690757,99.98277074903974
6160,0.06252954663363558,-0.025550809748774873,1.1305522643596493,-14.137677857623732,9.804311543934285,-8.580027337093002,99.98920905805984
6180,0.15760469008832667,-0.0022995442070305903,1.1670823356610183,3.921095471321882,-9.707409423958346,11.859873953581264,100.001232785133
6200,0.22090923480530333,-0.00797581845574549,1.1390596362624517,0.7676937109862874,-5.237883579743221,7.728599983590564,99.98785641635025
6220,0.17890905570370466,-0.0838042231303838,1.0623230748987291,25.533550180839082,-18.051805195272387,-6.509700497461958,99.96460170528032
6240,0.16777269174956214,0.034219068622691126,1.192610631898409,-22.433992625217282,-3.74237993836317,3.699302573483111,100.04480078951453
6260,0.25553716924205316,-0.0401609547327424,1.0849254264932418,-8.989220781486651,3.4358593115488283,-8.66143667388163,99.99598633545799
6280,0.19026080847737792,0.08045022761756586,1.1398854536002452,18.14969879258693,13.89138113463139,13.857667778794646,99.98147883688395
6300,0.09159759806369783,0.042915996061703085,0.9423960541069877,1.3398059691550808,-2.363093478557516,13.44100523891134,99.99524812751238
6320,0.13038227517784412,0.008396896332975442,1.0651512408239063,3.1330940037277553,7.186852114895356,8.07575661688951,99.99578964326649
6340,0.13832201733734573,-0.05769816911671384,0.9768228249803916,-8.724486188018375,-7.042977820347196,13.776611508679498,99.99950021500794
6360,0.10671876651939255,0.07629474952952878,0.9034444600624751,-6.097780887584913,4.172362341157321,0.007539465846838426,99.99635648713378
6380,-0.016786328523556847,0.02068040676389684,0.9291479920168586,-2.8438448852285387,-13.496307777777941,-4.0769347082682925,100.03484220557988
6400,0.07258656921176126,-0.12712627220994838,0.8469902011902759,-0.28957271573745874,-14.354646724559355,6.456253780146055,99.96358281337366
6420,-0.05816339166365217,0.002103836301676281,0.8734000025455225,-12.390994344045147,-22.302740049059842,-16.735819476073637,99.96370963143578
6440,-0.09253607696770547,0.030879721332502733,0.8544739595622189,-7.881433001935001,-15.464814693965732,-11.196157127572771,99.9989396247102
6460,-0.1162440607467335,0.04147108545694012,0.8750150074121807,-1.6137634409800046,5.492651461172877,24.03673599998428,99.99575412976525
6480,-0.0939465531840325,0.05881886118546931,0.8853953187658254,8.653795940687596,4.7401607922618885,12.59877640785228,100.00404463697318
6500,-0.18245669435105216,0.0672294171121242,0.8650160234859969,-11.606890116158223,14.296531554161223,-6.332143549004565,99.95059175069309
6520,-0.15941030485988308,-0.05421486813927017,0.8807643323949038,-26.081835750916202,0.9647763297207294,-16.64234780639146,100.01759333712332
6540,-0.1343456397594803,-0.08884079137933726,0.8310777450874427,5.149456272128479,-29.434158743823847,-14.542673787163356,99.96882551123646
6560,-0.17800013017046284,-0.06481389284717713,0.9440064551973718,-11.060409944152621,-11.879355387245791,-2.377357737257198,99.96709066938507
6580,-0.14825127498099844,0.07647913307679893,0.9399463316088632,10.761398475666901,0.874885898834427,-7.249322193661712,100.01963391489116
6600,-0.088172303802931,0.060961477173513495,1.0078677389491133,12.022750705313015,1.2878718787037555,-5.041022800090406,99.97137006496314
6620,-0.14609909157074646,0.07059128846387668,0.940375223795189,-28.26799061600378,19.74523992982311,-18.42941431052798,99.97717508644689
6640,-0.11901541822329634,-0.01011278737476662,1.0367486559826535,-11.101125173300053,-5.113884111312255,16.420561151531363,100.01971301679991
6660,0.0026689916336648037,0.027564852023757358,1.0694709321213054,-4.839732602433945,-15.1252558907964,21.757669413314858,100.03612986570589
6680,-0.022597979376605976,0.035441353962051884,1.2000337940087826,-11.476669655006166,-2.4282694121462693,-10.651003701465743,99.98930244766117
6700,0.08506441549013659,-0.0930204118407727,1.0799187234245975,-25.37238681923335,8.334853797562548,-5.355105996270788,99.99862247843318
6720,0.1710598594121562,0.00412824054096781,1.1618404628364243,-6.960123148810177,-1.8787547418681725,23.913344173441917,99.97619649450142
6740,0.17824658627462647,-0.015366344619278525,1.1904011788117361,-13.765603943262391,12.326663614692764,7.349761702906367,99.98988554670112
6760,0.1982415860258675,0.006108791783783714,1.0880874384984667,-0.8730834389600874,-4.897521849047115,-0.9489523214339471,100.00233558552831
6780,0.2507159173152477,-0.05095519840099142,1.147508543837488,-12.507735035995047,-15.261131522722529,-5.939418664114751,99.99262222604911
6800,0.22827720547850602,0.0321826364770992,1.18997987015762,11.209183886229955,3.465165902036616,-8.764596847999046,99.97382269972528
6820,0.21056595569181194,-0.029192609210316273,1.0884045614257356,-4.928432047166611,-7.27247144518628,21.508942487760812,99.93743130153216
6840,0.16598729387526193,0.0017344396284440914,1.1036230824102038,5.865925649976649,27.009861895022738,7.721837303524351,100.00364566571879
6860,0.1163209173613303,2.7307009870733274e-05,0.9756570345562585,-22.880291233490425,19.09040772864483,-1.191697233975127,99.99867819140597
6880,0.14691416217721986,0.0399047183148855,1.0348145340968036,-9.811361881438014,4.856579043054647,15.276255461203576,100.02759243836896
6900,0.1016306452728915,0.038743410491898625,1.0355043641472403,-8.05168283271506,-10.033918489291775,4.04766345897074,99.96078623884647
6920,0.02720464545970203,0.06304872358011163,1.0077726233726496,-5.386001441701251,-20.943947219163064,-9.580101028142842,100.00021022908034
6940,0.07792977881565669,0.04596353565299663,0.8914070186937291,-6.748620398381746,-19.34912173279601,-11.619132530546903,100.0261441552247
6960,-0.12194576462415874,-0.04070525332408544,0.9392007195456465,-26.137280727836423,-26.58813719062725,2.5640637085273172,99.99066989889657
6980,-0.08759834645460886,-0.040477999748308874,0.9210150408731417,2.927122685629329,-26.52002039874714,-9.574035693680866,99.98405625447514
7000,-0.08535795962359932,0.05390474949304716,0.8028552932964194,-12.615037644278292,6.343701736965723,-6.781785273778462,100.01227734812024
7020,-0.105109540143239,0.02067598611929721,0.8064084791926902,-4.1794337584788135,16.255715382675994,17.011154854446563,100.00102654871509
7040,-0.2496982223881597,0.013129704446371427,0.818565294440537,-14.848203942971967,-26.101950010272283,11.070374146761477,99.9692393068559
7060,-0.19984828361477433,0.009300838072251568,0.872384185733105,-7.486097952514033,-4.531149582284671,-19.732056621413648,100.01917935841783
7080,-0.200928841835905,-0.02317055680585798,0.9580557350358542,9.631840431582704,7.209190536634344,-3.6205574470483586,100.02794136254057
7100,-0.1882257055018106,-0.028077133460274562,0.9895094801341253,6.228147821845049,-1.6789030585210516,0.04227998287514865,100.00672243586692
7120,-0.2547323217757236,0.05931235866134781,0.8410914938301551,-22.63820080641937,-7.02638396924346,16.165974382903265,99.99944390939623
7140,-0.3048032956593255,0.03937926241365011,1.0145895811032566,4.586590846915067,9.734595714709945,1.4679390942777228,99.9999088830481
7160,-0.09120761612840508,0.06485350271911049,0.9328438313533306,2.466663755688291,-4.810444221769814,-6.22198723352104,100.00689640008707
7180,-0.07125591036019702,-0.034044876487673376,0.9727673773600819,4.6851454119274845,7.05443868285479,-24.854912611759325,99.98415985540288
7200,-0.01947035348518538,-0.024618019896186796,1.062083681920044,-2.336119597186365,-14.462467771213934,-15.005894588191174,100.03109362161752
7220,-0.0435919752585155,-0.019359192400739196,1.049372516697543,-8.779410229224528,3.720837756192739,-19.52121784469567,100.01469359726167
7240,0.09256426248091587,-0.06891241441009138,1.0785249907765175,-17.292389271253626,26.994018001286566,-3.1472093028205257,99.99185373454408
7260,0.04147637441339235,0.038178385384613114,1.1014077877507904,0.7268343302553579,6.329753474058522,12.270761398375381,99.98067754949109
7280,0.12078635952171982,-0.002998713599629977,1.0843762608304075,-1.618941027136401,-5.600454450800701,-9.135613722244498,99.99836616627476
7300,0.08616124182182677,0.062115074978706955,1.1141839250681527,4.307652348414951,12.525189087218859,-8.095864396854232,99.97993734526267
7320,0.20060217979853998,0.07037597561835815,1.22136662964353,2.3490769256787183,17.638716395536502,-20.138625671660897,99.97766751960587
7340,0.14629446870604662,-0.11375197186842345,1.131107870790864,-17.72822892526936,-6.264603606127391,6.007602251940947,99.99587068598468
7360,0.16417564253215824,0.02728444074635694,1.145770539839935,5.442821645641919,17.279760791762904,10.03703815863205,99.99709466831978
7380,0.20271507780841594,0.09298286728131638,1.206528785293854,10.343977152519418,-25.991484622591408,-6.623081613567484,99.98232778430494
7400,0.14935113933976907,0.013361433775316421,1.1801501923375028,-2.2056532708493037,-5.807502887352844,12.77445202294799,100.01145009819632
7420,0.11920134754759097,0.009966169709552294,1.1022254251485477,-5.3254175897844345,-10.776044024592936,-9.171085288101994,99.96858381607318
7440,0.1668182388788831,-0.040960232594948395,1.062918337183467,-3.2712661292361185,-9.77655912474321,-1.7239746082298182,99.99477432231946
7460,0.035054189161829744,-0.06223013436716468,0.9362396888693196,-7.802740394230584,7.919828436476029,16.032326421662084,99.99281616558173
7480,-0.05611567075614858,-0.0131352765654046,0.8224656030787685,-21.432491154417008,-10.801388228880512,-4.862811726170074,100.01260691061391
7500,0.008487832064555828,-0.06009855610972679,0.9306149093678538,-2.5980462240451194,9.022123293694085,1.6102513769267521,99.97910773144407
7520,-0.059198659925081415,0.13968404566349193,0.8518809165968431,22.5986107859335,6.1336493464418815,12.412290260104633,100.01352660901404
7540,-0.04984411090135324,-0.09096608476502525,0.8378185735639708,14.173798450280971,-4.379138213285903,-8.990690288723094,99.98850655537463
7560,-0.14690794474452118,-0.04578953377017719,0.8604333466927605,-1.8605058295569465,-4.591027259586367,-5.485345723201456,100.00269035315566
7580,-0.06166506927564387,0.01882736569096268,0.7467223457345149,-5.044201768995226,27.41042514092835,12.671116618102477,99.99680829572489
7600,-0.08880327207564705,-0.05637938932208084,0.9125583661949344,-7.453384116865243,4.101073905580108,-8.227690325221475,99.98767504599417
7620,-0.20531036511696807,0.027108090363448873,0.8350380690662058,-16.425142699311728,-11.654319114748183,19.057804123116586,99.9741360004141
7640,-0.19864188218239504,0.047776598384114764,0.9141305749732794,2.9846515425615276,5.7226299625776385,6.0784727322911,100.00530506887405
7660,-0.08057262753831627,0.0779990466454564,0.8835512980471344,-10.892834153601699,-20.351837304153264,-7.971271880797008,99.98877376109252
7680,-0.2809254394276797,-0.03349476736994577,0.8697636652086396,5.226171245717228,1.1112365774069244,7.204313051603128,99.98636164975309
7700,-0.08884445940510159,-0.016459370663856464,0.8886741904917507,11.439829027266015,5.7353446923407105,-11.843966701147474,99.99967144001043
7720,-0.14457978467388674,0.007354886218757473,0.9350476334079817,19.4973732673776,14.126312650861585,4.971777510676732,100.01220581836053
7740,-0.016553048404273463,-0.0904427051134311,0.980062622732541,0.5179234943695461,12.750716396897072,-8.637046227904936,100.0103909485818
7760,0.005460457317460483,-0.005071305424450695,1.043098848975176,-7.4634835280821505,-9.999293301001337,3.7452023711829106,100.0269468569588
7780,0.13245581651679,-0.04485771281838287,1.054091375998852,-4.068602843188716,-1.0571884498237583,10.651446486383858,100.00531312471696
7800,0.08178073273563846,-0.019374285711540554,1.1580096671617517,4.950456682980039,7.379508589273815,13.139754461142523,100.01485345112452
7820,0.1289204024180857,-0.04891665916888904,1.220075102892068,-2.175802420185839,-7.620557961027705,-2.677658366181902,100.0204610345058
7840,0.02887664685168037,-0.016077239801333507,1.2485490307128104,-0.5143200129044001,2.739728907715537,-11.16422292123221,100.01475356614527
7860,0.13711090152170347,0.019672002481475645,1.1083813578798627,-2.2810732911081657,-12.76762700486033,-1.1706043905614587,99.9889659714356
7880,0.20506697950300912,0.08222364866407014,1.1769719186319776,13.354061103356244,-9.04013113235144,-8.658685936531878,100.00507018264406
7900,0.19456827455767936,-0.0533618024294594,1.1514927061281894,-11.939417241349393,-3.2827233673236567,6.382263555079506,100.00764299593715
7920,0.20441265657368873,0.09758363570915629,1.099399467046313,-0.04660303465499276,8.30596392447097,-1.6520694516851975,99.97642121335181
7940,0.22232730438106868,-0.02786672480136626,1.104569791994238,-21.18471363292967,3.656529855278926,0.2749650842129968,100.00384257203305
7960,0.128274851876094,0.032426689634008146,1.0591923036882087,-5.567926004371859,-4.198142818787048,-9.427026911117675,99.98621990578876
7980,0.18337780394000197,0.014273188852549266,1.025981105075598,-13.502357070377402,15.563075347156143,-9.677958097277784,100.00477773876534
