timestamp_ms,acc_x,acc_y,acc_z,gyro_x,gyro_y,gyro_z,baro_m
0,0.03818163948525274,-0.009087858040106865,0.9935401408524592,-4.997278904870787,-11.773541138705081,27.361828256352563,99.998354138159
20,0.030346676220154016,-0.01701178445921745,1.0553905347945474,19.696931691134058,-28.381873226052733,11.584582244066356,100.011001940135
40,0.10894510782221807,0.06570903722065123,1.1671461432472645,-5.236457236621206,-3.6073175581804753,3.2272677984240214,100.02520401932048
60,0.11194352528441384,0.03824489874215041,1.1704768388284585,-18.401023322098954,-16.95539619286263,-9.517288208981192,100.01012765915694
80,0.12296141402675198,0.04512875027422659,1.202960288652535,-11.06689866822736,-22.150391421373268,11.744806730726925,99.98562010006022
100,0.17262385315984022,0.03690641229973244,1.179593326360447,-1.535741499064313,3.9242547389887914,13.72357170806551,99.98924012023994
120,0.19494684410731278,-0.009235609353386307,1.1396804394027573,2.653056530537449,-16.33303079944224,-7.502681147061065,100.01524426250337
140,0.21104055497939028,0.02642182740369994,1.1013967069202157,14.79673665867907,-0.7202466849620796,-19.718258132205143,99.98859580842564
160,0.2392948926245445,0.03139018518358737,1.1087671109955999,-14.188931010451288,-18.204897769934256,4.8970265791597125,100.02728424761663
180,0.11075480238695655,0.05413960533502785,1.077096583878324,-11.979926413677779,-1.8982603676303769,-11.256925225422364,100.01823170585098
200,0.09512452347695877,0.008030834995643606,1.0796663935684434,6.611472932515909,-15.774996772962133,9.1241495089325,99.97927941942918
220,0.09131212956388629,0.04024453946359763,0.9951189812069972,-17.08277903597989,21.90203692630997,-10.181018169765045,99.99674085646673
240,0.14236743063921903,-0.01039079178792077,0.9866648800524459,1.8086618504317458,-18.77308356473441,-10.64658162222701,100.01643597553577
260,-0.002429006514578745,0.01129003280111044,0.9506872941537545,-11.421319121900652,4.570958418930498,7.797464478093078,99.97702018131646
280,0.008440062263398449,-0.02328801983062789,0.9601775364215536,-11.047497300955184,-6.6688874523634425,-2.240699587936186,99.97140117562196
300,-0.13246342893438864,-0.05048744062931219,0.904246852965686,2.892536472989042,2.541768273246106,-13.39737292502126,100.01655633495928
320,-0.06945544412022556,-0.036232461551975265,0.923836296950638,-13.309510584699135,-16.829926932964753,-14.717686867021213,100.03965675184918
340,-0.11079050992303846,0.07642864381412169,0.8637450798199737,-7.572983509079042,-6.524569196722654,15.11326222365319,99.99055789858934
360,-0.17661656197978443,-0.009550096984806796,0.8287438911870403,-6.7105037044070155,-14.026378741277943,-17.30515673509295,99.98105471017199
380,-0.2067762996532457,0.08922178399999295,0.8005627600048106,8.31102050532658,-8.16507003280685,-10.534851754518336,99.99486535301848
400,-0.13377555956408257,-0.017944323835693075,0.7740115794416434,-8.81637356285099,-10.367242885647704,-0.4535518240784274,100.00217769069181
420,-0.19408598373817387,-0.0015521006592262075,0.881603027765924,-3.0644570054204743,3.1796497009082456,-25.64794988154335,99.98380289541879
440,-0.22589902337549214,-0.018444349162837725,0.8562788211096177,7.0336315347289595,-17.052877052925563,3.923508393810013,100.00664581237884
460,-0.23004985396552868,-0.020431119318056773,0.8206104996776334,12.791474996562222,-9.647684357488448,-5.255209916837212,99.99717966023032
480,-0.20126240364162928,-0.009611928322176723,0.9705251581100035,-14.985720559215359,-4.380082066348431,-1.5473065078282464,100.01055096075599
500,-0.12341057350325205,0.018244189531567347,0.9993133664256508,-13.28634819014934,10.16637703409851,11.205575442120445,99.99731140429475
520,-0.05482588134109305,-0.06030862093295417,1.0069409026710487,10.713877424691235,-16.057627806802827,-19.391736934110234,99.96440255029913
540,-0.08986198428767644,0.06646421821035778,0.9990003422026448,3.1305852769137292,3.236547582063593,-25.193760133359316,99.99755610015181
560,0.02000397975066485,-0.11217651242789901,1.0751109415431204,3.651130784201367,-5.5660683988677,6.106364760411495,100.0100454340509
580,0.030798936081015707,0.01751001240289139,1.1329381858133718,11.523747226190551,-7.124166975326856,17.047895460873903,100.02704825842706
600,0.1947426301885602,0.04419427501696539,1.112391622940738,-5.0448915278705115,14.287309620502729,-12.651959340646442,99.96772572115258
620,0.06154967730716944,-0.08499101409302234,1.072454995886933,19.80792877242258,-3.905564034304043,-12.569740846688234,100.0125570941731
640,0.18015102850398648,-0.041918384064141515,1.2290275067607865,4.8142369140742165,2.732480840234539,-4.206776671447165,99.99935936723297
660,0.12514094697110853,0.005226274843461297,1.107354598676934,10.0486975612792,4.401984782231697,9.248187200442192,100.0399402474613
680,0.18382229185240553,-0.011755678202739789,1.1402406386889556,-7.492036281683019,2.7111290221604403,8.570692406114569,99.99078066354593
700,0.20124152900093123,0.0006224044550600681,1.0934275674606828,-3.485626495928045,-5.716974362159179,30.245875376054002,99.9856797364872
720,0.18291202221093145,-0.008098816913335121,1.02022104763498,-7.558721023015243,1.1636143589148469,12.581432110428462,100.00347766176229
740,0.2595800714890686,-0.06838965367775456,1.115275288887049,-8.524796533181245,8.938167627764251,5.353508499491231,100.0068111836328
760,0.13200162121836848,0.11045933808070917,1.0389145048060318,-8.45425373987111,16.53866475884423,10.82587370713068,99.99928791613821
780,0.04711532787971079,-0.04968779833094358,1.0220901661088113,-7.817460730602418,7.448108051408239,-23.583243188963237,100.0125292246209
800,0.06065621484346617,-0.0204846397569223,1.0480645775048283,20.123867827745137,3.3560816964928826,1.3619994829072966,100.01859092326595
820,0.04174588144985233,0.0002487818327904104,0.9942582104391967,14.273162420420688,2.553620079539577,5.8484054472277105,99.95924478435592
840,-0.0003265330033084598,0.01644420338954989,1.044864706725606,-27.374555513273034,43.6355122302667,5.732903467279741,99.98108948381562
860,-0.08402794387261395,-0.027355346462813176,0.88199524273052,4.851468100604107,0.5728257667786893,-16.8311968498131,100.01594789944649
880,-0.11671962690758361,-0.09699979592733203,0.8689124385015393,6.664234219536111,8.127103504157429,18.85256870334543,100.00267385619168
900,-0.15223658173375068,-0.033226965386023606,0.9030476121978018,-4.014324838193837,10.159981293631958,-5.3393324751901154,100.00099984739069
920,-0.06742463422170597,0.014402540765798971,0.8782867585580657,-0.48170135732967057,-5.318018943592432,-1.2918376451317288,99.991338745221
940,-0.17193725232230866,-0.05307689457052889,0.9699187795768806,4.530930686010283,-21.201228709891456,-6.3983211956337485,100.0041280819314
960,-0.22843481750014932,0.06447491090597035,0.8340665784896775,8.673059610596162,-3.8253733508453696,15.131153717563919,99.98885263461122
980,-0.21178925189818487,0.017626733618247747,0.8197520830040655,-14.792834796808918,6.289154968598282,-17.19751423405168,99.99852250627814
1000,-0.13015517245133348,-0.08344230890551439,0.8835986658601387,-1.8164918454665493,-4.776281701141887,12.80218829344805,100.04795785505534
1020,-0.1674382598544443,0.016479019467748518,0.8954393409063364,-0.959942678107111,-10.5959608382121,-7.906018814891784,100.01798785177716
1040,-0.10737308540082066,0.07504584039758158,0.9255999676444264,4.36865115602629,-15.257772614893769,-6.423062719716512,99.97074944916515
1060,-0.12180092738398034,0.03759834066075847,0.9521802018133212,0.5824421818558256,-17.27066152543543,8.162407226549902,99.96533049465488
1080,0.07237389959127205,-0.034224444230280586,0.9523567568913133,4.7272081315124,-11.29036752000757,14.921052590029978,100.01613031587681
1100,-0.058519974228078586,0.01297003729211789,1.0538003882341096,1.3894473141890462,-12.299954602020694,20.14256977298164,100.01560755434295
1120,-0.020979479874739162,0.009977551822912873,1.056120007322448,-7.327696855814866,-15.599981820588496,-3.1704910238970343,99.97920580234312
1140,0.07253217937616085,-0.01947899582130925,1.053292890401361,-4.983189160383492,-6.642662885352905,-2.5009980089204404,99.9945451986831
1160,0.11347240922220839,0.0329453750941829,1.1926120470424744,18.781887828794947,25.036010856999265,-5.6890076118545165,99.99454006398005
1180,0.196868928667691,-0.000556235429748601,1.1745414108741825,-13.015938316487507,7.872051392485659,-16.64628206221995,100.01413482342245
1200,0.17075021373835764,-0.0021760051065697634,1.0616927374310956,-2.9140116499358166,-6.129766741822615,15.965332888148131,99.99706409993702
1220,0.1603227855225108,-0.01599015508767778,1.1047559000314535,-20.282699584643183,9.203697388811829,24.243857832316415,99.99440904291762
1240,0.2693644561835449,-0.00705920282961273,1.0868515758891615,-7.684260965862902,0.9418487789710412,14.815610773426886,99.98217021945275
1260,0.19842439418240657,-0.027130126294753087,1.1483023545472335,-13.458916821753926,34.368350377581194,2.2244580418265762,99.9970913388403
1280,0.2458513391864819,-0.08611140534931401,1.1998253632328457,-14.604829488076685,15.242400141495061,2.7633717441558194,100.03679803478894
1300,0.20249479068866025,0.01694431714394402,1.081527333761469,-2.966231645652084,-16.759524988630076,-1.2894891563069681,99.99552163222597
1320,0.0920483782150166,0.04502027591113997,1.0508533559280677,-8.986689173836284,-1.4723160833996496,-3.7861000419802284,100.0258839966849
1340,0.02555639613374451,-0.025781659669789233,0.9940902493515145,13.83836186876589,-4.61420200651694,-14.574542077938109,100.00439546217329
1360,0.1368680168777066,-0.10407596333814025,0.9905982274627053,-3.9188940994987647,-3.5652936294123725,-15.135399113473085,100.0200902986513
1380,0.023072681900932486,-0.046611678512476065,0.9744784013334034,-16.635401985809374,6.368004874387319,-9.786325839674248,99.97078556356578
1400,-0.026017686475121555,0.10514375293863253,0.9664375367179247,5.868006752752892,-11.403358166729806,8.761974371973222,99.98280692231081
1420,-0.0657636783746672,0.07384765527414888,0.8334377830101372,7.469760895099077,-15.440503539839053,6.166009927457584,99.98228227179912
1440,0.0029485936080268366,0.00829863477771454,0.8903389904031779,-30.625125681877094,-12.09623006828409,-4.686635133748035,100.03086324713286
1460,-0.10001921784742698,-0.009624325436559134,0.8476869785056405,-8.902632221861209,-10.235366556996173,-3.0219690137919333,99.97734797862223
1480,-0.14037742732958247,-0.001252236848470872,0.9403478150994764,-5.9713037778963365,-8.526497977336124,-2.78389614225094,100.01637105281695
1500,-0.17533720865556385,-0.02526614090461403,0.8837012241940817,19.00883555100312,-14.490316358361206,-25.033441341241286,99.99129179283709
1520,-0.16549668808540877,-0.08612293813896754,0.8018504629219436,-5.598737790969558,-9.385270037313159,-7.324984200111805,99.988520123623
1540,-0.2076407822374563,-0.004994373906470059,0.8971166549370698,-1.4188976849872674,-0.799087967955092,-23.89758847526277,99.99667174147329
1560,-0.1522686602171414,0.07755766106630255,0.9241758683005606,13.458105737581151,-12.915097398236659,7.015827265016182,99.99531690695031
1580,-0.1578421893959027,0.04410051562812557,0.876228952361975,-4.49012803077555,7.1530802324398515,-13.784218021003108,99.98918520724672
1600,-0.13454113662393968,0.04621077364978737,0.9883570241508005,1.9823225454248647,2.9544871817414533,-3.6436477495161768,100.01602446609057
1620,-0.0843391532324984,-0.07380148090473271,0.8603161920642541,-4.441341225612943,-7.3475345133202925,-12.948606133701738,99.99037837638812
1640,-0.13252584163408299,0.0625679224193084,1.0093850915041933,-13.502389111379541,2.131437683390975,12.795314832313629,100.01280134806214
1660,-0.07147130224176589,0.007225065821225176,1.0494085770265753,17.36357012228959,-11.146143560721526,11.607618228929791,100.00132376306343
1680,0.008235097371303665,0.02194004170805321,1.0951273268204051,-10.926597265522172,-4.030646176217886,25.637853390999823,100.00621276867597
1700,0.07478465030340331,0.06334296554020366,1.0786796773856855,-20.232450728231363,-8.253517590019449,-9.202026111638864,99.9765332656403
1720,0.117094356766645,-0.01701215281445679,1.1263747624151423,8.216738298594414,2.1445358513500414,-11.578076938896768,99.97809153167725
1740,0.18256593419288775,-0.05776524041975552,1.1127700850927804,-3.6941468664728507,9.798625882040888,14.70527711761536,100.0069134919898
1760,0.08932361114525966,0.006779574715525618,1.1566720806243214,-1.8596788618720916,-5.485596411229526,-14.162576492314756,100.00687194432415
1780,0.20096596078191165,0.04047802390879245,1.140229227538774,29.405056110006996,-11.16567300583547,12.696096771206669,100.01459121803757
1800,0.24485486917152452,0.033218732240333386,1.1345190869930746,0.5256676701500285,-12.007589648993605,13.855755420179332,99.98857718098022
1820,0.2221679996636894,-0.04848371578625244,1.1313543790564486,20.28492408909965,-2.490099387545379,2.9967510537075643,99.99677271186836
1840,0.23136877590242333,-0.09067464110797453,1.1866695856329075,-4.62499934846071,16.317973200860862,3.4043712514575173,100.01145713625878
1860,0.19285587690642916,0.004422350957790151,1.1250571803948832,-5.059565058193379,-4.687014228932484,10.452861150866063,100.01353898126845
1880,0.10322850620612356,0.036930750299649116,1.1476739164272838,12.171610861975362,9.291617466082116,0.7953020873579166,99.98752858629771
1900,0.1314032295696881,0.004850287340954704,0.9817511192457151,14.298731826940573,-9.703177949464731,-15.402883273250051,100.01403934414029
1920,-0.00679509942024388,-0.018616249735554848,0.99566461065838,-10.680926865126914,-14.762974735520407,-1.2935605848312122,99.99437901338877
1940,0.10738762913704664,0.0032314387986701713,0.98492974724911,-5.380636514401759,3.2360899594363373,-15.797661066158994,99.99274426056387
1960,0.004877988315962811,-0.014396634697943873,0.8680018712932954,-1.110183228855686,-3.89743654775456,15.802370653736357,100.02291440108799
1980,0.04039570097415983,-0.023861726940826878,0.7924855501356604,21.655641041370636,-16.551387173025343,16.919400728991075,100.00796769525905
2000,-0.14362161549625435,-0.027189249710383025,0.9045201319756374,-4.324104471532633,-5.085396927102864,11.077702230131038,99.99074736216849
2020,-0.1817277411033757,-0.008577949674993882,0.9292936350736022,-8.794978471333387,7.89060072807629,8.588655282602847,100.00471827662838
2040,-0.2307514611602443,-0.04144355458652671,0.7448582692314183,-27.615662977226833,-10.100558960356787,11.108661837263266,99.97981445792425
2060,-0.09221517408483801,0.10748389539211385,0.8549920709448879,-11.823021270399138,-30.498839856793882,7.931810609673301,99.9530128849281
2080,-0.17821113926771623,0.006069899778344575,0.8028765308144821,14.595396042640878,-1.9155146490986512,4.213072041474293,99.9770593699155
2100,-0.11843835536873325,0.024837814016631713,0.8814140492443447,2.1950093101188535,15.433725124491925,-8.75646222418661,99.97158749372069
2120,-0.24328829000522076,-0.02271789190402802,0.8806128247985747,19.753630814427076,27.5862090535632,5.491282091485128,99.98106307591326
2140,-0.11558592802744783,-0.06692150311961109,0.9650068958472163,-18.206563688927663,-15.40326042762828,-5.549294474405698,99.97694978772554
2160,-0.042279707804653094,-0.041146344435122925,0.9619310498868812,14.65153353398009,-3.984600342705204,4.512602529943118,100.0113065179947
2180,-0.08206942915929588,-0.07052799557328454,1.0259531740346588,2.211597324554718,-3.2661500669703383,10.486443315478866,99.992880771758
2200,-0.003334289953957785,0.05452081236637512,1.0260306293890837,12.45201694159693,7.945309576504972,7.295961149243073,100.02413313916729
2220,0.004935082672216229,0.01236133335381203,1.1030442780149492,2.805634582499544,6.069636740288801,8.166243251585227,100.0551769261067
2240,0.11198029503775377,-0.026235601890259502,1.1005008014701514,-13.981318645270395,3.3615425693268204,-15.247038142607622,99.96141553118241
2260,0.14805006395096706,-0.04789349562430234,1.088873720685132,-0.6336356671761127,-4.287517111867084,6.3373072954834235,99.97295639361553
2280,0.17111456554725765,-0.05825050045270459,1.1033018283371752,-4.319474935536009,-2.4881847553077234,-4.020487824116646,99.97788099017914
2300,0.1081078683065192,0.029567144192741937,1.264292854888898,-4.865982393909346,8.598385458232206,-2.6578091054717534,100.01660219852728
2320,0.27414943214246307,0.0009096212861778715,1.1865164637467986,3.093977369828529,-11.943545182781339,25.906146785474036,99.97827860532718
2340,0.22503962518158876,0.11586439254663317,1.144038148166441,-2.7117721017444545,-14.702179876956269,-15.793735491141,99.97524384345104
2360,0.2650421288540221,-0.06921769536647009,1.1650672889337457,-13.522149500208386,-10.060633592298924,10.416777053123349,99.99336417675207
2380,0.1634867223131629,0.0794214999307768,1.1904964940367377,6.679032568962712,12.444723847151257,12.2535325042071,99.99024213625684
2400,0.23595221574931546,-0.06930992079471292,1.0242235407606308,9.964534227134916,-5.230705416028211,-17.170189319770166,100.00610782315653
2420,0.15793612509338964,0.023891486943602866,1.0684409176098038,7.669934982826572,-7.786891424516762,9.720888257590293,100.03795846866167
2440,0.19776056622870858,-0.013354948164994749,0.9677064964918166,18.229424533798287,9.284962883537396,14.011081167777174,99.98606707220208
2460,0.12460850248421942,0.009571433670894369,0.9430290886818549,4.702232300872886,6.103630631379517,-0.8133214814015044,99.9894360270718
2480,0.14297511904432858,0.011707070922108133,1.025662299275244,-7.860834311085323,-20.51992154855701,-7.050729791891062,100.00642720973298
2500,0.06328916859999315,0.014994018785423644,0.8528313804007867,26.074711971983106,-1.89395239971949,14.204295632098002,100.01245612923094
2520,-0.040116646840858104,-0.025523389301232616,0.8592302578847423,25.701075174115985,-6.344789026970409,-2.240442312917639,99.9828066765255
2540,-0.15546266353723343,0.02128689394056832,0.8987512716403178,13.646731377521258,0.9486722799420351,-12.656337801099529,99.97405855860723
2560,-0.12945112855472451,-0.0670182143388452,0.9232124397226034,-11.846201686764257,-10.024397067866422,15.081739227224858,100.00203465485536
2580,-0.22047148662420557,0.014245746345634242,0.7912085595341031,-15.834772958242148,-1.0450432265969862,-4.415411625250858,100.01911773418587
2600,-0.22670131567303936,-0.09779697638152302,0.860197604153923,2.864853203270826,-16.670284646858086,-6.356135285563771,99.9376578348836
2620,-0.23373490429147553,0.055546477836343394,0.8955657989823074,-2.8598462017231707,-11.699730915159357,-24.23678355553806,99.98527625303484
2640,-0.19956537207853797,0.01206198694501948,1.0128614177529531,16.372713571646656,-3.606786623075564,0.5630470809336319,100.02398850172315
2660,-0.15027058666218457,-0.04707459219667526,0.9466536596169257,-16.793548158541686,-3.1743349936308976,7.8355325862379,100.01469075005055
2680,-0.2231483490784029,0.05600716702802916,0.7663910519244117,-13.347803912012607,19.07004926951959,19.021189195276683,100.0265528905174
2700,-0.21398631220720762,0.033136575555590526,0.9381706424755898,17.93314640402124,-4.442463911929212,-5.758366612551521,100.00834601266509
2720,-0.16759684950686676,0.019242281423787817,0.9924799426922395,10.776647540627245,1.4131669922150742,-1.2391435595377516,100.0080796991512
2740,-0.07659259731807516,0.05684126946423429,0.9397455734233299,7.300123581793047,3.427415363542874,5.098681193955435,99.99685906777424
2760,0.008465707417347153,-0.11031000618306892,1.0545687762642981,0.9592290340852108,11.659056694345349,-14.384301658763075,99.98169039748448
2780,0.049597240946184354,0.04310104852297698,0.9911558234712476,2.6142033477369733,-2.4556857600700255,-1.648970950567144,99.98751292457465
2800,0.06583572338551155,0.02981669834103994,1.080007083581722,9.000945082575823,-7.6634495367972635,20.69391850942857,99.98662591607606
2820,0.018670299321387737,-0.030636716114131508,1.2384614796681293,3.5462710129216615,11.000084914251367,11.913432420405503,100.02460429598824
2840,0.0857474262745728,-0.0917658342081843,1.1955040799784624,14.09723858986472,2.2206778966581027,-16.798519562200266,99.99219155969479
2860,0.16083771442845246,-0.01318653192829116,1.0621067213818303,0.05422057157129316,19.35476461604218,-5.09143976747395,99.9999119452659
2880,0.17729114876014124,0.05015503596591702,1.1175258723202701,2.4804694322103096,-9.307556034682658,-7.122501539402348,99.99102931179394
2900,0.10402054078812717,-0.06625226582902087,1.222056090744529,15.25696559487503,-13.22644335243466,-7.904439309101852,100.00172168589647
2920,0.1865247947701155,0.03260004400182125,1.1341950591032723,-1.386834385333398,-8.609305471558303,-10.776106559509488,100.02806481639418
2940,0.21354526743293684,-0.038406984135283255,1.1133348503694438,19.328665483657936,6.6096871194262174,15.7212210904969,99.95819275086707
2960,0.25034849174576157,0.027025701530169068,1.0322748798380392,-2.8223451307604432,2.302915038727986,-3.944092157609581,100.01567098528069
2980,0.12218051564318175,0.03202713880581266,1.0509400751198068,-2.675177641904191,10.452818303106383,-1.3856508372890906,100.00054004073074
3000,0.02040967515835554,-0.010093719627039666,1.0027531143327446,-11.17692615162062,13.003758763043265,30.159512822502077,99.99660282012938
3020,0.1634671887625852,-0.027759968120405678,1.052388422464268,-10.136105306076844,-5.653282312270477,-3.1853655373861836,99.99187310652997
3040,0.022769682850775682,-0.03848679790897617,0.9887082862092637,-2.169167023502393,3.294237861978959,3.7695278936705905,99.98701712526235
3060,0.03333431128037581,0.06550796265130722,0.941460610498292,-3.238271447082115,4.980258397439552,-5.243671739391697,100.0352125586666
3080,-0.06562540983654143,-0.04644950217203687,0.8335155385237976,-24.83566798051551,5.332825751597113,1.7143564274109448,100.01162804270436
3100,-0.04318524883836273,0.00733688911808046,0.9079931793641495,-7.3588721258627965,6.9093627339835155,-20.15982046761696,100.00521297364574
3120,-0.11359272430411539,-0.14555189395800058,0.9064858976110358,13.233855056713569,-5.436782345180881,-2.847190023166015,99.99774721584369
3140,-0.20526373841087103,-0.05037109196781231,0.8315349454248319,14.745970550056132,-20.462553158597668,3.4272098739795576,99.99943254876212
3160,-0.23971877510668904,0.011964953397651433,0.8068661378371833,15.626511415128057,0.41980476381966525,-4.426141317299141,100.04029766354161
3180,-0.19388234421346806,-0.013390540010141713,0.9366173973751023,-0.23376432747720277,-6.1863478663714275,12.208905291574808,99.99134241365746
3200,-0.2790139614473458,-0.004830429589511226,0.8339806429861831,8.190644492197826,9.10002188424636,3.300415657760831,100.0120545171885
3220,-0.19874862608738605,0.0007463054307855072,0.8567979750047243,-3.1455729595555555,2.694689270763316,12.427131747792068,100.01410031573181
3240,-0.2081531562774452,-0.10559306081485718,0.8562193467853091,-0.5284305792529823,14.836025424760102,6.771679517414123,99.99225076020022
3260,-0.2656489068442527,0.07249578237385744,0.9038182831786328,14.82574594479765,5.289076752313865,-4.694193015848972,99.97659263153514
3280,-0.12346793773472486,-0.022432978557383475,1.0406855772720345,-5.386297669997662,-12.315790787710434,10.173887841795006,100.01959185003376
3300,-0.10157072631289002,0.0676634277176292,1.0229431526302943,-25.351800598514323,9.883479627291411,14.515008111391133,99.98515064237674
3320,-0.08899235359829281,-0.07328946986024024,1.100612005177753,5.774114452658053,-10.285237204814441,-1.8584785426665797,100.04340250733758
3340,-0.008060167561012585,-0.04293980135812294,1.080547375586965,-0.46424524302113385,6.098324405789105,11.174453951869914,100.00020217407756
3360,0.13353937374583366,0.026549355556725936,1.216917697179247,18.110843166302068,11.219098932194083,4.694261415705663,100.02286031061409
3380,0.050953263166927186,0.12786165135288755,1.0611463164865758,16.14630566898245,-4.42301914499223,6.437771767369091,99.99440447704684
3400,0.06475226017913661,-0.08001893100442994,1.1587873286412949,-4.9530041406184235,-4.755912635285289,1.0372738176052825,100.01330899731946
3420,0.22914048360577433,0.04834492955543054,1.1024193539717393,-9.378555290879111,-5.792113700763992,4.964524078845869,99.98774884862304
3440,0.17293925143057912,0.015316299804939646,1.0797558668611742,-26.68691746137938,-3.024571862638134,-1.5825890330264523,99.99953913597217
3460,0.20115876039274647,-0.0351008395951461,1.22200880963269,-9.758587446087757,15.306269805455646,-12.919616833798923,99.99640260022845
3480,0.12730033758310683,-0.08723630775246409,1.0708740078837231,-6.915547751186714,4.835412247442933,-3.8735570790231058,99.99014206433434
3500,0.21088772969237288,0.08602540315378386,1.1303480274414217,-13.569564401256173,4.035169536070907,4.754527665086771,99.9858509150928
3520,0.15310550369891265,0.041198438417570926,1.0890588074882133,-3.7515194452929927,-0.007233089737310452,-14.05698053595723,100.01958140470389
3540,0.02463389998507319,-0.08292616436615427,0.991960009619375,6.663808258064488,-3.156087026947251,13.738436041569857,100.01170031727654
3560,0.2325461096135026,0.014370846217404337,1.0420609433961086,8.330928401399495,0.42604025641387633,27.74290385622952,99.98993532608227
3580,0.025368060217597473,-0.0211092587839317,0.9564746254878129,-3.314459984907077,-0.7633067101138434,-19.993717913151283,100.00144895843648
3600,-0.017818089078822815,-0.060787587631590395,0.9466264748197921,-6.448963484630035,4.612819814755561,26.47698344427453,100.003964901088
3620,-0.0009225057750078848,-0.0363435150904899,0.8943079500290165,-6.884091431792365,-10.29325120188054,-2.278048756568187,100.00396677419303
3640,-0.17964503162083312,0.0021495269879691276,0.8795697969979501,7.4733851956039645,24.448459748149784,37.00168061818234,99.99222898230569
3660,-0.19170597178192417,-0.09508135185605635,0.9976258529063131,7.089389153280319,-3.349781422990432,3.4213547752344313,100.0169930653445
3680,-0.0768384489626166,0.02712044129069599,0.6788655234830728,7.904031219081988,-3.5773669175288623,16.29275001968622,99.96438296147807
3700,-0.1844881575014982,-0.036051497154050975,0.9015597630299899,-9.643551795552357,0.3666669626177929,-21.268864926138072,100.03272841722516
3720,-0.10335557446439872,0.013230085631433897,0.8403610523280158,-20.93433126680674,9.036345294038433,8.921091663978295,100.00862937893503
3740,-0.16226864606833064,0.013401944225399615,0.8569026200252352,-7.347738525436338,0.323413663322684,17.79330979922235,100.01806645193359
3760,-0.20102739846736653,0.04619507600897596,0.8906966646862939,-8.3169744043871,-2.256575747407822,2.9383045369021508,99.99416061120571
3780,-0.18743566931136874,0.029495458640207202,0.9504737534841554,-3.3883072402278955,-2.6668482659120327,-13.980156864964275,100.01194016106498
3800,-0.22592944462674036,0.05379048259607283,0.9392963644940996,-16.34273078339145,-4.795943815521885,7.199753285183629,100.00935332457968
3820,-0.11482938455001432,0.04118417487743563,0.9623876168639275,34.13935758712263,3.158952266967208,11.913918370339225,100.00729199999098
3840,-0.09425052859296212,0.08528028725377786,0.9342451684489206,18.270431042144587,-13.887180272317083,11.05244337276849,100.00964546573884
3860,-0.0081789721434289,-0.07642768212082342,1.0233922257604748,-11.357201214278337,-9.981947769848633,-5.257762069261548,99.97660073855023
3880,-0.03096952061252696,0.02445859760757947,0.9855187192806768,-0.5284798176188383,10.846390333369225,-17.093359129281037,100.01379064204887
3900,-0.07439482981401362,-0.015264248221224356,1.0580265152263553,-8.511967454154128,-1.0876197515188086,-2.9195800845981346,100.00826203505287
3920,0.08320288863876117,-0.03431804949444977,1.1005261710782501,8.683140650598023,2.5447447824168368,-11.092462368359485,99.980014823345
3940,0.14375088835990457,-0.06549961641038832,1.212564461139289,-7.1606542909818405,-4.967986379284647,-20.186319400850216,100.02966107102621
3960,0.219301074573164,0.084873933970741,1.214757710652936,4.17545140177001,14.965219553578166,-17.980945415189517,99.98606180643388
3980,0.13996182100087323,-0.011621788948294293,1.130361347846697,1.9693512273430356,-4.9108663464231075,-17.31133995752663,100.01732517712556
4000,0.1780694817861554,-0.04067787195870272,1.034259424672145,5.068133627456241,-1.944574281528141,-1.9524979303612584,99.98352474481307
4019,0.16146465431893453,0.05612971474877178,1.17018312898075,37.920472518906195,-3.80038289259865,25.585897480989125,100.00217473104557
4040,0.23512353352310048,-0.009184336387366779,1.071503268552358,4.123075246535743,13.741686738905155,-7.070358170057873,100.02747031700886
4059,0.1540001953716352,0.016085163819545202,1.1001398939348386,1.6863753022826862,-8.090476622796587,-2.2075400050524037,99.99956548048053
4080,0.13602102733061938,0.0239232145425325,1.0849140308446423,-14.332530915869206,-4.631047141845403,17.168037360186915,100.02365597429944
4100,0.1238860739857882,0.01997635257150474,1.1001866967928997,12.416974537381707,-4.432376059971649,-7.257322377777863,99.99883106424093
4120,0.2123218130287493,0.004933824566830231,0.9579850026116277,3.5014746466697693,-20.112725518131715,9.070640328156305,100.00044814412225
4140,0.07004920251349475,0.0005169966547547018,0.8759058117129267,-6.212162866338847,4.464648773433249,-4.984588476515655,100.01935953879266
4160,-0.030726514778434508,-0.006277223252883656,0.9087080530143817,3.4421271319423026,12.695855657871085,11.696760367386062,99.97370441453961
4180,-0.0030744702321285657,-0.12457463606170863,0.9562383985945632,-10.785286766546268,1.5124241084960655,5.347857719935769,99.99265278464468
4200,-0.030568216649215316,-0.01829645525567175,0.8653263858271868,-3.5547438017991286,-13.226932125605302,14.765239902383986,100.0374892868476
4220,-0.10908769165661573,-0.024316527671384564,0.8640650476123525,-14.673350263638355,4.396510192373901,1.8712559456766837,100.01839519420645
4240,-0.161691494528083,0.060495816410161045,0.8495837865710639,-21.400889152094166,5.220029182595387,9.13522616322609,100.00675623416721
4260,-0.2165282973915075,-0.00068663987369319,0.8835903119153168,13.427237988736692,-16.756960408959635,10.518519635839072,99.99994367228499
4280,-0.16566577318371922,-0.02823892237831694,0.8018390102300148,7.009424683900584,-11.232827758168167,10.216018213844187,99.97187557047239
4300,-0.24293292992564905,0.011030709622045583,0.9049094998340235,-11.001086809812204,13.406790419782517,14.980811323642703,100.00694282943375
4320,-0.18429624398281738,-0.008687456245628672,0.8560628541081041,-16.42447520916051,-6.704029338310061,-1.9994275373183505,99.98551348858433
4340,-0.2258607189051136,-0.012920138899994441,0.9149311691415788,21.061561714855607,10.05052414827487,-2.272442974418482,100.0145679774328
4360,-0.18033652913117962,-0.02015739487544453,0.9749550693506922,-5.931581647052092,18.610022563677088,6.992103965735497,100.01742555286044
4380,-0.22026985634233676,-0.003483115400834288,0.9071288387473708,0.3091123792354944,-14.200309984685576,2.144968422224395,100.00037764692978
4400,-0.16256315366208962,-0.02343647436129544,1.0711551939238846,-3.1568543233025075,8.171203419840108,-21.366037101655518,99.97958292661235
4420,0.019432999920456176,0.019459518077816786,1.0788564409762507,-12.072311645323005,-7.791077686802853,22.139278640258713,100.00857215728664
4440,-0.02841188975966802,-7.287166966367774e-05,1.0173267348800787,6.310786022381249,-13.27195414047134,3.9561530422495697,99.99452622192041
4460,0.003732765494487665,-0.06710401825896821,1.1357230561982383,8.06451896213586,-22.491094738234175,15.669201041249261,99.99119460673283
4480,0.060671029007641916,0.025839945119322052,1.1167035954633253,-8.54647823124388,-0.49627282186206595,13.376368385699948,100.00321607675562
4500,0.12213400458738462,-0.021067201777922828,1.1176821687939513,20.030330000169965,-8.39465256617561,-1.8565524987973567,99.9925070321819
4520,0.2950987819695548,-0.04425918286910837,1.2164176890367893,23.542307004132613,-18.442909905733572,22.00296327451023,100.02545731293304
4540,0.16654469555275764,-0.04031918110418809,1.1011356909835213,-5.751391317544099,-21.069399712191508,4.544567351137911,100.01693926971004
4560,0.19889479829285384,0.058536377881099215,1.088065944911241,-6.240225798347593,-9.610412593173988,1.3087333635885954,100.0072564763572
4580,0.23144572650464906,0.11104605956602642,1.1210199273712964,-6.141855470503544,9.839186058096038,4.4691736548148056,99.97343465285984
4600,0.220020619909854,-0.06444064106851266,1.05419285876196,5.608311776156577,-25.604670958741227,6.4467165324887805,100.02684228622608
4620,0.11568902576661526,0.0283275939891154,1.1110088360599615,-4.6955477251281055,20.812388051575883,-11.307026901067402,99.97164641075584
4640,0.18153658621022553,-0.000686284110649061,1.0724826741689977,8.21257160243987,4.589725176723531,9.158884511829333,100.007674878609
4660,0.08869188380414933,-0.04811931311606815,1.0308097487961942,7.583370674983947,-6.540079079110281,-4.63244029069426,100.01057786921899
4680,0.09548551481058119,-0.045561893471351506,1.00590489607708,12.7026259864969,12.896534626965964,1.2889857953235122,99.98737546566292
4700,0.04008912338604971,-0.06683914674067189,1.0431175022070418,13.125329865904469,9.253910469551984,3.2389615900310638,99.99267140590867
4720,0.008846094540424931,-0.018392832745612694,0.923804764689061,2.116812507148157,17.591147710180515,-1.5137829962928528,99.98765279022648
4740,-0.05872850197028735,-0.002268197266260506,0.9155388410864496,15.144185535637138,3.4316533503719144,4.466611335042309,99.97019283489583
4760,-0.09911459899075828,0.05455168294936912,0.871985981455112,2.059481638816329,-2.576726751889794,3.275137216096218,100.00409089850504
4780,-0.17363799835316,0.03970745160619672,0.8738099702631248,-11.967886823295009,16.132129299603765,-6.488967405570142,99.98476288496248
4800,-0.205351619732773,0.009530475258910992,0.8907771293831447,1.6761966660548033,7.332854031538911,28.201737817637493,99.98471542029121
4820,-0.17785135403094204,-0.07664760748801062,0.7515573344681677,14.459411820677618,-1.4995420401132682,4.9545395147099125,100.0222812935241
4840,-0.13471288590190958,0.03051418170785823,0.8529874836019748,2.1146322510823694,4.555907300808627,-11.793686229824974,99.98826709393114
4860,-0.24496833237967203,-0.0780686285512595,0.8935321699591691,-1.201657360041205,-17.30972360157952,5.708689275333235,100.03571207629297
4880,-0.11779777788618234,-0.044647029761960444,0.8707199309809631,0.04290621361196158,-0.11358483144086365,4.792041587544404,100.0144752971821
4900,-0.1665949991362609,0.05179353663384714,1.0004037974907216,-12.987822053457517,-4.771440356231243,0.7236564394198747,100.00337836567725
4920,-0.17177964436175266,0.03655004405305606,0.9390678863502144,-19.446622126419378,4.905247705542421,-12.926708239767299,100.01149183366793
4940,-0.18017733733647168,0.06305312031499273,0.8960903444448873,-8.208657627491812,5.743257722940889,1.3600936284702996,100.00591578636966
4960,-0.11516318729959879,0.02567822495067489,1.1009580912546721,-13.044266658581119,16.971908889939037,9.846469730376006,100.01730220706314
4980,-0.03001186502506974,0.06106833550880253,0.9952949524325914,-24.067793928131792,-12.045502014369106,-1.638709964547671,100.02567969426113
5000,0.01928445349799024,-0.06488803584852748,1.0909496354705268,-10.008631931289505,-16.291390829490513,-10.64294757779432,99.99887754925254
5020,0.04983143047377565,-0.020434948791787123,1.1401118036706923,14.9527732138665,-11.927703158801808,18.220175745471586,99.99741010588119
5040,0.007993953543491819,0.05415537324757448,1.1227096271134362,-10.17593379907966,-0.27903224117475856,2.374074856450538,100.0264269620993
5060,0.16113011537255412,-0.02407202441282048,1.2057962965270486,-22.04757996621574,10.820538603002817,2.0865601755765093,99.992756480176
5080,0.08646083545288717,-6.0561699666706196e-05,1.1764014734227013,-11.90253342557629,2.5234372365767377,-15.201767357031962,99.99004762425713
5100,0.18084645806503488,0.025987984653836668,1.1837893584615653,-8.16001882962008,11.776908132599573,15.720388809395324,100.00455840370316
5120,0.18263204127201618,0.011196892770963696,1.1515380895603775,-4.324232076628914,-0.7124782687307565,-8.37015251736517,99.98138934519969
5140,0.2113995306320437,-0.05982353071297225,1.07751649616998,5.26311556763566,18.196929468850833,11.386899897682621,99.97920500791409
5160,0.196084767697023,0.05774113793042987,1.11279402727506,-4.0772946257465525,-3.0448126622733476,10.920962299447954,99.9932933930389
5180,0.1989887097556299,-0.028810471093856177,1.0644653280660548,-7.596561553570457,2.9792590427613193,-16.09067760157764,100.00677244919079
5200,0.18341915988079577,0.10478803325281345,1.1102473128525736,1.2569256113438323,4.748773260052582,-10.033637574922643,99.97144165921819
5220,0.17478267923681146,-0.029266316734636994,0.9582125439662449,-16.595049882592647,-15.305937322507871,5.394727464275895,99.97796777695932
5240,0.05999846766941172,-0.03488186481112544,0.9772021671549739,-18.62216300645124,-13.200349939855911,-6.5045782161371575,99.98902853269327
5260,0.0017666165530979133,0.012714367634205598,0.9362363164636691,-11.109516090309072,-3.854225609232499,6.85146969480824,99.9619295133355
5280,0.016117921602433295,-0.09334318484179133,0.9223333738767918,1.5088812926013901,17.173635141301034,8.93603965933826,100.01068788360779
5300,-0.025452684581044247,-0.03620421690184751,0.8831033561093257,-3.0075859638863056,-6.794099349754662,-1.9863128351019101,99.99556518511415
5320,-0.016932933195037136,-0.02877966313767071,0.9642581441840318,-26.818910079701546,-15.488350681368686,-12.122367134245815,100.02823685330074
5340,-0.05522720170470451,-0.04620863274111931,0.863295313112264,-11.914837450609467,2.8392245701845837,6.706053103248926,100.01153922136062
5360,-0.17802223456250235,-0.0918442868017488,0.821225537621384,31.304027286642395,-5.369357401067859,-0.49821773945062275,100.01719647187797
5380,-0.12320806820326924,-0.024635692555950786,0.9266247816864527,-9.881909432918283,14.53172744415522,-15.028961622052117,100.01480249745012
5400,-0.2044273171334634,0.041924552067747305,0.8508288679262334,1.3419301580273464,-23.560480451477602,-13.924887393014576,99.99360873275785
5420,-0.14213615085609305,0.0019739795113403887,0.91542901172999,-12.157288307686336,8.2433841752752,-10.31859409994386,100.0212553199324
5440,-0.19398696094026788,-0.02457516822329879,0.8654961229532602,-20.833548020216693,-0.5399078673366309,-1.3539597539346513,99.97801592627843
5460,-0.14676223667093252,0.03944140086807787,0.8363043078640946,3.0072919655565302,-4.801011674518309,-1.4232689596308228,99.97119625765089
5480,-0.09395584867759682,0.05366329027279529,0.9991937151007712,-17.848162287836082,3.0142369817108436,-7.090532943964389,99.98914250138513
5500,-0.08559185573569567,-0.0030355843362398238,1.0471628330765823,-2.318443722584557,-21.499091195982963,-8.818577398902477,100.01642380741993
5520,-0.09552817802265176,-0.03383786072778715,1.124585035367565,-11.635032164084564,-12.178972080315923,-1.150711272248501,99.99352422195781
5540,0.03492343969250287,0.06504857128982049,1.075869119009493,20.80184477823728,9.201157543011444,6.244463697179418,100.00873527893037
5560,-0.026182433189951677,0.011286415474481115,1.1679363647179561,-6.2437344335671625,2.887761099497141,-5.679458703199741,100.01107162256015
5580,0.0072227781870304805,0.07707750036191648,1.0908004624162486,-3.4045857623171187,-19.047552055669097,-10.715738658990094,99.96319550227655
5600,0.18096146245262007,-0.048603464016374776,1.1653230176209448,11.251474096606124,-6.434950880368982,6.859063625364513,100.00637779182274
5620,0.11143810727002518,0.03367399142796403,1.125312942366432,-23.360207684320024,24.128525969586196,-18.426652094900092,100.00166729530218
5640,0.18479297121117708,-0.024667020012428435,1.1802776489327562,2.841886961631776,-13.5919437585891,12.367873256118482,99.97502087518579
5660,0.22688868685029123,-0.03580097015599721,1.1296078662915254,17.49810403550336,-9.420231034654437,-26.464867356003694,100.01893438293878
5680,0.23731196530114504,-0.07862979871100208,1.0988192240757133,-0.781992848889134,-1.691288722001473,10.826321654784767,99.98703986865968
5700,0.04920756205134963,0.028269043259197837,1.0800753627658641,-3.336735871036894,-10.89910340887139,-13.084013090661866,99.98579425280559
5720,0.28444389572065365,-0.08646377010132154,1.2272924039688566,-14.116381947492036,13.247462866695301,-0.47791851534480945,100.03738803126488
5740,0.19717549134653312,-0.025198916667576038,1.1107637805090413,-14.45038035693085,22.514342718213346,-14.637234017696706,99.99797581041874
5760,0.12945149541810164,0.07409794304286571,1.0162232080046387,-10.155090650734834,9.758918562056706,8.501750182661954,100.00252911361777
5780,0.09108141555236181,-0.03423840508505729,1.0352248822894743,-8.41527042872833,13.005008338408969,-0.9571770982711698,100.00343600197301
5800,0.08657741108968288,0.03206289028038982,1.085113350065332,14.212785656063101,21.10958401791977,-0.822670797768519,100.01523685080713
5820,-0.018326411078088606,0.03338071837260021,0.95046077375449,-9.051541632753288,14.256270422643778,8.486249569217758,100.02069803342269
5840,-0.11661588660276008,0.02482433754880258,0.988588073425563,19.599482547120086,-15.371931441157816,1.0489876663042974,100.00268216164868
5860,-0.13914670934183365,-0.08195162536296127,0.8258429112129974,8.886268943334537,-3.785336231602048,-7.5841112345567,99.99691104099986
5880,-0.11813681520034905,-0.07396044139806388,0.8491909904740874,0.8796869850191802,8.013593812755856,-29.12357215134004,100.01808218727227
5900,-0.0744251836707012,0.0067977296350044,0.8445968878665129,-1.9542225883733417,2.4532438032059085,-9.119500597776163,99.9721259438107
5920,-0.2004120370456787,-0.027369851756225846,0.8702633765802785,-2.6374995717096397,-3.1277231656543725,17.29945222543579,99.97877325164714
5940,-0.1506510911214236,-0.0017454636905554783,0.8403519489506883,-6.08817077165431,-4.4984043101301285,-13.189270325143047,99.97118984185211
5960,-0.20085998407141323,-0.03571364664664269,0.8318446904201796,2.5451781870058565,4.446235267703442,-13.934648220247253,99.99481457991726
5980,-0.23642584182842444,0.06471072142061227,0.8962416598069036,-0.3215223817207181,9.084236988844605,-8.02815873994904,99.98426777506182
6000,-0.2679146270348565,0.030580459416997014,0.9129802488217145,-8.75749178177771,9.293401045074393,-5.236096969324077,99.98965573825988
6020,-0.09696320531146624,-0.023058918133261573,0.9156711645971056,-15.446522318907034,25.193471374194534,14.475974392128283,99.99914012747507
6040,-0.18749156120061947,-0.07196173115621765,1.0425094727223199,-4.914263438849318,-20.87998452679858,4.319741019466015,99.99251648247125
6060,-0.06295440210623215,-0.008202838286099957,1.0225204042469713,-3.552530602536939,-1.0977359014880066,3.4811249444375005,100.01465877216897
6080,-0.03047633313870258,-0.04321886932679361,0.9493104935944049,3.9376620728016793,-3.1833179704447545,21.09340542297978,100.01468616541895
6100,-0.04910299088078712,0.0480447563904957,1.0746220476329773,-9.598845302779624,-3.47306503175648,-35.48170007649263,100.01028904265074
6120,0.08967805785039076,-0.07243822020213472,0.9781205138378517,12.359127007022465,-7.932417090928849,-2.5237716096217833,99.9965389198201
6140,0.001349947567126794,-0.04911887056045025,1.1196963810787575,19.43172488873017,-16.37803981564986,7.958070037577798,99.98537516485844
6160,0.0637765840025829,-0.020844651575252168,1.1971990599888482,-7.0112308884630465,-14.890857436580148,-3.228722117535291,100.01512026923706
6180,0.173087482257194,-0.04323382141380777,1.0561109167009508,10.547538438935725,7.836233097925126,7.106947445154481,99.99687515923605
6200,0.12636950060019578,-0.045383843499786525,1.152100214691214,-11.244374461284078,16.763774374579643,24.111275676560417,99.97433865679103
6220,0.18815842500702684,0.023018337238818118,1.1062715756276529,-5.769360255276235,-18.884188290249064,0.28246507346123567,99.97155442983714
6240,0.1868072289975353,0.01255424333888332,1.1812376137580394,9.6935556117873,-3.0501100894211324,-6.103771242403669,99.97290621203945
6260,0.11720457662809017,0.07851974372013254,1.1309583982738407,4.9279192063492765,1.199982691614383,-18.595189846010832,99.98559033152054
6280,0.19967416640212693,0.009545512191993118,1.1640291085109589,-10.25495410786183,-2.419763333637784,-2.8156997202266227,100.00562503554147
6300,0.1849124129876309,0.047726735019384646,1.1934217799372495,14.982079570783352,19.60339011415225,0.6125787625920891,99.97154226590683
6320,0.10449355861597254,0.019268673715033057,0.9781192279236947,13.960611456653698,0.6699611514877152,3.5945960985288377,100.02323911501358
6340,0.02435556735221872,-0.01473668835967499,1.0526026691500816,-11.975903698085563,-2.4380206152340587,-18.733159464040227,99.99232554889632
6360,0.08706551714233952,-0.03853492987055724,1.029935722242461,-1.2441889104311186,11.355426026669514,-3.158297388438485,100.00703221179158
6380,0.062105150599245054,-0.016921429674155226,0.9888756418825155,-28.895926072676986,-7.843784204664225,-4.057060291604518,99.97305787978577
6400,0.013106255234447,0.005062984254156601,0.8628821284237347,20.1367568891822,3.813796318188407,11.860483821260107,99.98795913066745
6420,-0.04869442229392355,0.0036667046478262954,0.908032528137178,-11.086187537920862,-0.9403685635953569,5.205056577693989,100.01818716595952
6440,-0.05473702727097601,-0.016525109835049175,0.8457776897201702,0.7268894887456908,2.137779752464644,-6.1809290064255515,99.969406820994
6460,-0.1679596986641321,-0.022714236962083852,0.8241649270381685,-6.9641403981388725,-1.1574435230028235,-19.890222177174262,100.02125764368343
6480,-0.13314118167062297,0.039685698855629614,0.8027566889169645,16.56380379058818,26.3986556476117,2.9307936471188247,100.02273165869882
6500,-0.25365673868493144,-0.013384629112854577,0.9152415825959619,-7.314156486947996,-10.00491557953252,22.07960317422604,100.01421164614688
6520,-0.21142305731026473,-0.04969002447202005,0.8210712391831297,2.151673752596687,-1.1716130584150675,3.9145428841083136,100.03189345572842
6540,-0.20377571352197885,-0.033938906612095386,0.9412531853113761,3.313681664413405,-14.436207557122728,-16.73280413211076,99.99547176884369
6560,-0.19367828081664082,-0.06897098277754525,0.8722885902072558,-22.631041788826387,-10.518847423217714,11.858649790512013,100.00004399273045
6580,-0.1345740080419316,-0.07257525106188836,0.9600528123886679,-15.12846442553757,-24.4731999193366,9.934335748859947,100.03307841532799
6600,-0.03361751353863077,0.02754691271896144,0.9371160744747373,11.790984210412933,8.447846868324449,8.239264352978015,100.01388075519246
6620,-0.1052855085739176,-0.014364440311724494,0.998471456795751,23.25017265945355,9.79516438118038,-29.409309723066606,99.97341945553067
6640,-0.0567566064133806,0.01829718286127007,1.0564518205400175,-10.726137320075162,-1.073711146230873,-15.875427788890185,99.99592779018698
6660,-0.11878123663181436,-0.029161786976935784,0.9957874467375117,-2.7062940905926585,-7.67379657928543,-11.040890229850428,99.99949705347282
6680,0.0038418171041410334,0.03179889245349105,1.1521505595098938,-4.193216305721451,13.59585751197653,-12.265047822854225,100.0022740980574
6700,0.04288045801809985,-0.05648894193039797,1.1323135016279893,12.929175508346805,12.755436644238465,11.505391561907473,100.00824892988362
6720,0.09224186258635801,0.06293157532708112,1.0839731551172296,1.7971645015044704,-13.243587816169212,-13.016806389806685,100.00356773128374
6740,0.1015742846441581,-0.02936608405927892,1.1794404082084315,15.590240860784807,-1.4787356283693511,-0.7118866846738408,100.0223021394303
6760,0.14785136618371408,-0.03359411507749906,1.0218452182365034,-3.506699961171333,-4.641731409241316,-7.288546792800155,100.00035308080619
6780,0.2470909353234941,-0.0011549554833494011,1.075123111725443,-20.379141221983026,3.317427054287141,29.700219700126496,99.98433237618629
6800,0.24813518363833859,-0.046842025068369264,1.1525659184394879,8.128368116670675,8.470944882281898,-0.26070796258884016,99.96727212711674
6820,0.0876921478526316,0.06689033141837773,1.048145861657595,0.3573129502331058,12.345891325893845,-7.318271735454015,99.98869012757628
6840,0.1275624896849249,0.023331366837547943,1.1159302768197856,33.43637006552012,-6.191015664442345,19.436373106996832,100.0317085351237
6860,0.18070366555059328,0.031893424476359816,1.0358466640287602,18.479008611117248,3.1947103985965786,6.28850002092129,99.96242396900305
6880,0.2015649141623871,-0.015170837648944075,0.9054274278915728,0.6033421720672801,-1.1462094198318102,6.3433466051460945,99.98295375015492
6900,0.10606841106707601,-0.009016805109369483,1.0187830422049515,-4.666398368259308,11.492014558118594,0.5888990778003937,100.00013810497163
6920,0.021214000847238984,0.013533209346512335,0.9552397919893353,5.371615098454224,3.15579388862713,21.827888898232917,100.00279983181218
6940,-0.07452079848687386,-0.11124891876037574,0.9558525588416924,-4.434884601549686,10.124308100296979,-11.756960270985616,99.99913143436554
6960,-0.0737302457197355,0.016153144570716628,0.8789425070403389,-12.660312689105421,-0.22820367458232182,7.349559605711711,99.9852627536453
6980,-0.022528539747164567,-0.025916177982081387,0.8969495689632125,-29.774832277186015,11.11170670243338,-8.10252734044786,100.01561497075522
7000,-0.20190441811215468,-0.038594125616572134,0.8410377531224553,11.225330785689781,-34.15153758727019,-31.42670091831429,99.98948974747954
7020,-0.09245394836236559,0.0520694835114831,0.8515279714452744,2.637929892197574,-4.254429541982719,-5.42391382539557,100.00420599056184
7040,-0.19869467322613737,0.014829160360221156,0.902226434837636,-6.416750982576353,-16.583631748366912,2.58104217210768,100.00323573122475
7060,-0.22843372196344386,-0.05342193310531981,0.8647135977115319,-6.340335460322872,-6.0675788797845165,-29.105408443674364,100.02295310253373
7080,-0.2107925699312123,-0.0017492484675108247,0.7813409578187043,27.841927873499277,-0.40073039209417527,-4.79410278923689,100.04141085498391
7100,-0.16317306875261992,0.03109953225622958,0.8767314050244382,-18.512040536582628,-25.3651199863177,14.67489110669354,99.97177562255277
7120,-0.16053642116711628,0.011165440243945356,0.9960605919845602,-0.6400781282188823,-14.744449864398373,1.3321479449188827,100.00496473986512
7140,-0.13858199484743755,-0.05490040338122354,0.9033165086159185,-16.444969567900564,0.4982931987548376,-5.222784810084599,100.00140684514261
7160,-0.13744306849124685,0.017574836262308838,0.9688615988903513,8.736413038574899,-20.820687349192635,5.145087452917144,99.99957643303684
7180,-0.028052514937051576,-0.06256298414403538,1.1075188075947273,11.03049621535756,-8.162382465719373,16.88079564483583,100.01409722721085
7200,-0.08107834670507053,-0.016668415144538425,1.0533156914092692,-22.576045249967773,14.756122539358548,-12.895004981582998,100.00340994839968
7220,0.007877365429769936,0.011601466980797516,1.0867879641366367,-8.992789426760293,-0.5113103596222794,3.7330148025323107,100.00736194048744
7240,0.07124092509991134,-0.04159285534135991,0.9959391087196251,2.205208859386307,-1.876229737756254,-1.5258318223436467,99.99711628700261
7260,0.12987050751772147,0.021039320889924263,1.092392783351226,8.704311911137664,-4.241317368816523,-27.6900658711444,99.96595700007846
7280,0.15659568267257212,0.05978754551858905,1.2198728247695023,-3.168340248255144,-4.342329825982229,5.898097875300718,100.00368432275016
7300,0.2148514973689028,-0.07789455282541814,1.1500222049056892,15.387981489448293,7.965745766958204,-6.036274878144485,99.99721454247657
7320,0.17443309544192734,-0.012781460033975848,1.1102499031460007,-13.983626095073511,-12.982495623966777,-8.144475052369659,99.97972352458812
7340,0.24328755039519556,0.005172248380046935,1.1052061293293596,-3.9502675380997587,-1.2451380602659854,14.933539102576084,99.97885392033344
7360,0.16958658085745607,-0.03387658505635482,1.187866529852822,-5.127618962811647,-13.418457970821011,-15.512163797499813,100.00643135470412
7380,0.32658039461844623,0.04843282829097206,1.092825175341592,-28.69096538146131,9.315114878555914,-8.167090535250601,99.99183898613296
7400,0.20071103228239162,-0.046011022131565195,1.06985130073082,-2.113266129745454,3.147389591099489,25.7802190466928,100.02020299850116
7420,0.14974441502635494,-0.06363855713323952,1.142062120145209,10.479925933543607,-9.978973360401493,-6.27429181603226,99.96241432972508
7440,0.12132235924982179,0.020522682379169876,1.1080855595288326,4.394064723578434,8.830595591884903,1.5683412461396455,99.97846893019467
7460,0.05671643635154204,0.07542903904467373,0.8924131264856695,-18.52780495419094,3.1141463938074896,-4.434630751600194,99.99009937470375
7480,0.07701614210614269,0.061359490380731296,0.9695436621678271,12.327638295636888,6.678884756847018,-37.27457647508449,99.9796645013594
7500,-0.11492458144239955,-0.02456709099688456,0.9887716711957528,-6.298662468578799,11.762640711068784,8.151186111002854,100.0120122205903
7520,-0.08242866862883214,0.0559115430531533,0.9014417205591856,16.906915709856587,-1.224383336523287,-3.733783643031125,99.96624295565587
7540,-0.0713176090436718,-0.0530755440810004,0.8848391502500405,-6.45244875583461,-11.68806933720214,15.148869545146486,100.01706557695113
7560,-0.10792798547309057,0.04032868347508762,0.852848351110719,-7.553421621200751,-8.264771578145826,0.6050765979345355,100.00040252426328
7580,-0.19103844875887854,0.0012969151670152606,0.8707893646884473,-9.553464208491993,6.911487891287486,-4.867327369929127,100.00648711864153
7600,-0.21258054451918282,0.027621002626423936,0.9368214806838583,-9.507101333196495,18.507849180851757,9.440719652168656,100.02002119602399
7620,-0.13062856356763103,-0.019937848405099313,0.8658724268679041,-8.235725735527092,21.0972935658157,2.0375733708911468,100.00493742233108
7640,-0.20806391972255395,-0.09677345066235804,0.8592084417269373,-14.302150579843858,-2.9899389016331552,-12.967371692164502,100.01033382808987
7660,-0.20505904295554306,0.04520029398144356,0.8763918735456888,-4.255683224608998,-3.0376280213159053,-3.8056158729923135,100.0057611388447
7680,-0.2251950814463587,-0.013805822151197198,0.9019001843307463,0.9421304880968662,6.375080531421521,0.8307882922890493,99.98298914434467
7700,-0.0946908300786711,-0.005105611659174551,0.9385889738395987,10.679742426194181,-1.3652079727369364,-3.355643227193283,99.98124166063228
7720,-0.06182987202254855,0.051266650735002695,0.9407200425202465,-2.3286988538173357,-9.306563134230633,3.582628383049286,100.00195637232864
7740,-0.04742481926637548,-0.06396532046044374,1.031688009457605,-20.706369178893656,20.55862559768907,0.44924615982206817,99.99918496956154
7760,-0.062452201299253114,0.06670686950830577,1.0112940609376788,-2.173194256799699,8.228331045281191,8.414244370322017,99.9978967194049
7780,-0.019248247819500477,0.02685950276927672,1.05227441001562,16.940136279816436,-12.042350076883507,-2.6043922955912295,99.99729178373681
7800,0.06189813646360356,0.023261017020961117,1.1218165988721995,-10.521191058727307,-1.25539279271982,-10.560372620902626,100.01038819085478
7820,0.0011132553694490621,0.08466978201061755,1.1110726847786747,-5.146452962880673,-16.394919731357454,-6.062197736999999,100.03218363028103
7840,0.1810216115672338,-0.0920966088379639,1.104983870089027,-15.370048612599673,-0.4421888112433672,-23.17477670976797,100.0273469561832
7860,0.13385831926477643,-0.06212281844895029,1.1024528166733683,-17.50460482069711,-12.36058935243627,2.7344155477648044,99.99686491714385
7880,0.14034968546951396,-0.04391782364880977,1.1421200783763912,13.045281274398452,23.944722567434667,-9.213722170950156,100.02089960890538
7900,0.21390821073804506,0.028523415077187465,1.2134031926077071,10.898090488194846,-3.5664953915340476,15.723431246258569,99.99469333336523
7920,0.11535874914397891,0.04757526263655887,1.0717198688617853,-6.608294084997899,-0.5188886919748031,14.29716228131771,99.9937926874347
7940,0.15126779258409062,-0.03290672194368314,1.1395449362575907,1.8208507289177105,-14.572361577588259,11.014215177103939,99.9531158541642
7960,0.18554764202410254,0.020425792930098573,1.0475832860121321,-3.336309579997327,23.851340072345568,-12.838985133336983,100.01101752496317
7980,0.1490630594353202,0.08061179887605206,1.0206924735226701,-23.614570923155647,16.492548276266632,-9.467149148814283,100.00636439075843
