timestamp_ms,acc_x,acc_y,acc_z,gyro_x,gyro_y,gyro_z,baro_m
0,0.045257299501632674,0.09863033205899083,1.0789736542267414,0.16368234273660198,-0.7525711062443774,2.989889771287446,100.01388155775409
20,0.10821159686437956,-0.07907803992739397,1.1185466958912154,0.5950161634525386,14.191988908107454,16.85921234804632,100.0148898284492
40,0.0721599721290426,-0.01220869755573015,1.1514377641896394,0.06146120738762482,-3.2938298013071226,5.410894223402906,99.99278035256303
60,0.1450946035612395,-0.039128742606879104,1.197348632960313,-12.734104881818151,3.2424714304093216,-12.008702105181913,99.97270313410479
80,0.16985637065645848,-0.07254946031253491,1.1181932943149966,6.049559653361925,-4.197045275351566,5.960797257034724,100.00820955764001
100,0.161703798414092,0.018415689525374212,1.0501541450246448,-5.673283678923062,-0.9507550430536962,15.829900838031751,99.98470337435444
120,0.21451689266801932,0.05445694951464473,1.159344155660845,4.172675004868492,-0.9277039286932569,-0.595057213955123,99.96740892398037
140,0.21771607049008174,0.020169957039054828,1.1477471595873534,0.7782681432828663,-24.308635448877926,4.847049816881741,99.99862117103788
160,0.12317606158233231,0.04342857299231501,1.2299767720108181,5.334915399400536,11.774143015657238,12.694734705653596,99.99304413718811
180,0.18990989175147052,0.02805761006544021,1.0597115457836674,-22.35252596806125,10.67429537262529,3.928839815149882,100.01711348212682
200,0.2985168456412192,0.08553271484725043,1.0257247393780724,-5.576467587726677,6.7377961430715025,15.30784463669606,100.01421774215613
220,0.19717753232927732,0.002994717926266941,1.0183077612081801,8.590582630596032,5.920764199422848,7.22741499441028,99.9866793223446
240,0.10615597017956252,0.12263896643116211,1.0230685439897726,-5.162672450546605,11.994174306465897,11.104914210620581,99.99540529878422
260,0.06200962964039712,-0.0739885991528531,1.0136731061703323,-8.614043268473381,-9.306292504935737,-1.3869311486697642,100.00100084353822
280,0.00924476833206279,-0.02845194928855926,0.978969749745093,-19.70117072291968,19.590768369065643,-2.6399320162872106,99.98686891376177
300,-0.05703400310432941,0.00817258096765669,0.902809062380297,-12.362308177036379,-7.753474283412512,-8.310395540864508,99.9859005136904
320,-0.12998977039563508,0.04296578052363166,0.9045184327132617,1.8638251526625642,-3.965759641209412,-7.999568383357589,100.01430442940065
340,-0.18294069447882833,0.001652903682995489,0.8915312677085074,17.04115231629242,-17.3933288818559,14.10733690194116,100.00474257366011
360,-0.20429866575908345,-0.03230310055310004,0.8151560378220943,22.180145166507398,21.47494043638794,-20.489976837401198,100.00184375661901
380,-0.16163913336653582,0.0644932682048471,0.8786538890555317,-15.335491151148243,-0.7787745348977688,7.749337624115411,100.00603771620197
400,-0.22292379216695318,0.07410507316176843,0.9119999056153332,-12.37086774861309,11.05042116084659,-3.6900475016727103,99.99858144565083
420,-0.22841766859949958,-0.06876143408878992,0.9264728843814002,11.156692746412155,-0.9765950905414943,24.155407255588322,100.00424012257805
440,-0.21284603245829653,-0.051993775878724446,0.8334603896780074,-4.306021113690978,0.08936277762621757,-5.868181926028402,99.98362379843559
460,-0.1610228650987466,-0.006952802584057007,0.9266033460535492,4.881103068585336,14.90751380800754,-2.0222680865834963,99.98682099822805
480,-0.09794908621088527,0.08980505621866702,0.9581968819885207,-4.919893645432832,7.564205045369107,5.97312003188294,99.99122859059206
500,-0.11416468933989779,-0.031244753164245888,0.8898862669198927,-7.78081237976924,-15.551947695894246,1.5798320060482476,99.98430767098128
520,-0.0004131432908862642,0.05649203768606551,0.9749262775079359,-12.96863456276354,-7.935925024271031,-5.555356042709548,99.98595377474795
540,-0.010117441693640861,-0.020406588918422938,1.0785787064971502,9.042082428622617,-4.070174532288502,-0.8759419226700332,99.97504053614611
560,0.003156535243786165,0.0153270244340462,1.0702052398393158,-8.733341365467824,-6.363563024353764,19.126552234782523,99.97440283929505
580,-0.0010349516429688163,0.01188001477923733,1.103773239443072,-0.7020849554980999,-14.798521255714455,-0.3031721019158804,99.96872517697729
600,0.022135369767751656,-0.01480689142160132,1.1556323645093685,-10.307471078180331,-2.871797544283866,-4.472449736799183,100.00234642279196
620,0.06437966123581627,0.07476389734390365,1.1233380218223559,-1.108816492946054,22.53454731463131,13.977387999252723,100.04238499830015
640,0.1910816167969185,-0.05022263463827046,1.2035188162847095,-0.6939894279179464,7.440709721814127,-8.610549519780204,99.98201226542857
660,0.13308361958116446,0.03845443488125692,1.1534155755764173,-20.827742629153818,8.750550374281351,5.129184872705688,100.0327687152369
680,0.2434970769818688,-0.006284496895916213,1.140063512702583,25.436110998278366,13.629517415468863,-13.538854883953505,99.98713954662787
700,0.2563793371607323,-0.03033127296603005,1.107363410950495,9.944373541475382,-14.223984223855414,-11.943807179206292,99.99790503058455
720,0.15711028600064125,0.06595561942788404,1.0170659899135372,12.039014604295819,-31.59901256258025,1.3331535754343373,100.05424851852666
740,0.1977073761890124,-0.035860206991161436,1.0543998766673,-10.130395118551379,5.216320691052504,-13.772674176962223,99.96438658408792
760,0.12843487409704712,-0.022247151638864263,1.03951174044042,-11.494152107492178,-30.243289706297606,-27.245204643613377,100.00010043217843
780,0.1406191444462396,-0.03266864375146596,0.9541721221467647,-1.4785856086168465,-5.541241568522896,-14.04484614098019,100.01114671102529
800,0.12312547221485054,0.055054250948857644,0.9189851392862003,4.108961759538858,1.7121174779868156,1.8998154487664374,99.96612120369414
820,0.07638956682942827,0.08961524241728819,0.9217926396220698,-0.052686889764358064,9.091138254736716,-6.0541384605625375,99.9924037098553
840,-0.02049325583395427,0.023241637827743453,0.9447994423195694,-7.992361214022625,-11.021298237218758,-15.239732549754265,100.0038984324009
860,-0.09128326158136613,0.0815255358519965,0.8971202398346854,4.122980836392777,-19.785318345705967,24.987610677205048,99.99153899996706
880,-0.09365993276456287,-0.04834046278862936,0.8178077034542739,18.00681429407999,24.867723787602124,8.304020509844456,100.01541730186312
900,-0.1584800661594536,0.04707449988904619,0.8363817619871793,-8.586005317410667,-16.198089309997407,-20.245699331245447,100.0090236153171
920,-0.08493598706044841,-0.022500174562784962,0.8378476821747725,11.37548418965686,-7.08758554248508,6.678823025770261,99.98490498315664
940,-0.1698519640559959,0.05251465243542411,0.821075037531424,-7.74478672176447,6.4538409846094265,-10.860471892423542,99.98669053659461
960,-0.15721275569685833,0.06312695155328761,0.8591944618827415,-16.75518610054662,-27.162870127030157,-9.380979451679966,99.97029213858971
980,-0.14570989070022802,0.013491536749922269,0.7690257514271888,-9.171682474930874,-0.3465137362233387,-4.917676547770661,100.00696722638993
1000,-0.25611116938372835,0.008245774492354863,0.8784899285418781,4.450850024350048,10.453390696890425,11.73820170439574,99.98974708774647
1020,-0.1874107312561924,-0.03779531580824548,0.9616951108414267,-5.855209733304751,0.05345099705861686,-6.37421691457889,99.99153578076312
1040,-0.08978451197483937,0.1047125346550675,1.0412834971940281,22.629855413309244,8.07343873376681,-9.401794332969818,100.02662297984007
1060,-0.0674168533003871,-0.028166260878164047,0.9639165234174876,27.23716168980433,-9.096925384569834,-2.0841802251711963,100.03106088461996
1080,-0.09363951136771662,-0.11559073479753378,1.0448100673952014,-7.731686359056201,-2.5613217966868125,17.410156391389812,99.99934482225225
1100,-0.012966454461806406,0.11003864707077274,1.0124057921012555,-12.465883236636266,-1.1232258234193442,-0.9773135209105974,99.98252884017613
1120,0.048256467681548454,-0.0017457166451032198,0.9918684145828021,-7.433402408871547,1.1530342947730061,-11.761211624080339,99.99925050604325
1140,0.04396132096292715,0.046804313958724204,1.177658223952705,-8.515193565480526,9.335257778905008,-1.4234739023025125,99.98623986411589
1160,0.07157483268936937,0.04052254244665398,1.079722035779944,-26.801283349166596,25.910729333731688,-1.507118160498615,99.9752818445118
1180,0.1311312540843389,0.04002225996889296,1.1386948055737949,-7.930269897151131,-13.336180479662442,-9.462273467717365,100.00773279255272
1200,0.19301172949686551,-0.0277029879736392,1.1365236459842392,17.834543785248844,-4.121778983882956,-2.554255075216898,99.97123951946885
1220,0.2210391568701191,0.03939555763961617,1.1025907998720261,-0.784991181471091,-28.19164262566322,10.826497668270974,100.0103957266837
1240,0.2029924387204456,-0.008756761002284586,1.0587130013405868,6.818895831823687,3.592059016171859,-0.04034745434693576,100.01875979228848
1260,0.197246601961197,-0.03737470491852723,1.1172444494976037,-27.51980388135155,5.431373130378809,-5.811915520609308,100.02778725562602
1280,0.23137336336647235,-0.005047313779367568,1.1343876878501606,12.92850607023971,-13.52688317978151,-16.96028695339077,99.99158281617267
1300,0.15041814774228093,0.07420263732444501,1.130745957220655,8.88886301729017,7.68616453188268,-4.620048903003425,99.98852010780317
1320,0.1920524879477279,0.012567428521138086,1.0903893795604394,-12.872778411090177,14.293954639517182,-12.634211386050808,100.01725069926492
1340,0.09043604266902311,0.005770500757648203,0.9163159871990498,14.793273401517435,23.813619001673604,8.499183402586535,100.00239205447585
1360,0.013596832639422247,0.024738001567967613,0.9964236301102185,9.728869842611608,-21.509864498039377,-3.3460099942331,99.99386303973212
1380,0.07183931219778027,-0.008448458285978396,0.9685155451880421,18.30357691777789,-1.9493322385284206,-2.214479467269854,100.01163340628818
1400,0.0009009025385261597,0.04089613724503824,0.8410543871333974,-7.178939124169847,-0.03059604485575581,9.091625611627043,100.00426981183224
1420,-0.037765500423349155,0.01362485107739233,0.9038218988200107,-28.53850490157584,-10.986145578868095,-15.244383937281047,99.95336305908654
1440,-0.0647533039038195,0.003935846191337859,0.7219457180389408,17.138580929478195,-9.636934711859851,-7.930406170920563,100.01518703317966
1460,-0.05058874275967881,0.02043256569028923,0.8223341475291343,-10.235477216951175,-12.063983915403284,-8.304062715446626,99.99380890825223
1480,-0.16904488889673494,0.0003908877288555211,0.8997266925058774,16.063921273098423,13.121849853238864,6.397205186554446,99.99548622858583
1500,-0.23243375360706936,-0.05834500638198861,0.8174047007978077,-24.70070116681903,0.7537022572803265,-6.891930488378472,100.01094071693055
1520,-0.15535450620379793,0.07338191008005479,0.8422796935103226,2.5901511980312577,3.331608363033536,-5.407839271069399,99.98062311345747
1540,-0.15549291079216682,0.0064179120024433324,0.9187811676396764,8.972926891815789,30.613934131022543,8.476099248940464,100.02784187878368
1560,-0.20687719502700122,0.003584241821543969,0.9356993990145125,-10.301909102028318,2.557933020519605,6.903405694041437,100.01622172610978
1580,-0.1607098355762029,0.03325853027219048,1.0002681982955626,-6.753114438668196,-16.926733033471933,-5.921738810554359,100.00806110187673
1600,-0.1237714673212965,0.003934538939930066,0.927001163671071,11.573111484377286,20.86288608194172,-13.023563599938512,100.00372763563897
1620,-0.1272255720406123,0.03418262597247947,0.9855531709737229,10.390656700266684,-5.3926266390428905,22.02298024003517,100.01284708851189
1640,-0.11503114736564521,-0.0018124430439431139,0.9561960890174058,1.8348501876792902,-11.472993822570075,14.370901348483958,99.9855135998916
1660,0.043709185648456945,-0.014077147876603297,1.0122853765299133,11.273030759907682,7.479490380764105,-4.911232014498658,100.01177581499115
1680,0.045805667505339265,-0.08855989578384171,1.1104728919772593,17.14559617728431,12.345565980918122,1.1129040923943563,99.98481660206632
1700,0.11706828933101651,0.032150556608121626,1.0603122943169043,-25.081972328676777,-0.7351085432140607,6.403744166860918,99.99199760632176
1720,0.10298592552773457,-0.09737117232486478,1.1379273834026886,-11.875397430369436,17.566622115396342,-13.653643360161407,100.02290681715984
1740,0.12053195954730267,-0.03751712138716291,1.2479585883413622,2.971400103654085,-3.4585196772473483,1.9987006857176506,99.97055278660028
1760,0.19599725298047874,-0.020991812184445877,1.1434743537435221,8.342643806412344,8.708193295581188,27.58411545502807,100.02009047192834
1780,0.19339665286076682,-0.051513391471570115,1.2388340049285649,13.63525020907602,4.864044070346333,-7.901046457102048,100.01770581328019
1800,0.22018520788525298,0.041042085764371454,1.2147194641353734,-0.7941342013332675,3.081306140765741,23.115987353074644,99.9846857996048
1820,0.2072050438289649,0.03395882722523718,1.1072735278751904,29.02379871610625,-0.6351119425949339,-5.144839926897308,99.9964011464825
1840,0.16772783154800155,0.04290600402291809,1.1141284870163304,3.0647279438941704,-10.617928638548907,-2.5409833016503707,99.99195958557439
1860,0.20315244420204398,0.07532208742894392,1.0867592779749915,-7.706845002255478,3.7012132919862637,-8.912971395397374,99.97999759896527
1880,0.12063034750577896,-0.05177070587125933,1.0240314027307615,19.208763028663412,5.78767545249693,3.777204593682302,100.00904285356646
1900,0.019516693880728006,-0.06273514489139355,1.0463886891380438,15.29356557177114,-31.20336583959108,-9.088760640881421,100.00215869647072
1920,0.015188411343041344,0.04366895217021337,0.9303198005279367,6.442470329831998,7.015641699264638,12.484215617897041,99.97827823323372
1940,0.011387594946221196,-0.03980139004886435,0.9143500565047826,21.20462847007963,10.390692456123887,1.5794014651954473,99.98636884921984
1960,-0.039668939289509486,-0.04845323553384971,0.9150048389035735,1.934586022490841,-9.160569813430161,12.013297844763255,100.0241797387435
1980,-0.058311201185476634,0.028933978022817327,0.9019913356984754,9.198312490982136,2.4250893132905684,26.482555044456994,100.0311854575126
2000,-0.15796498725698344,0.023049744058020183,0.8551915162708441,4.252504191277618,-9.713237241001783,11.319159117790763,100.02963004463905
2020,-0.18552707755817208,0.11000178343364529,0.7588656403641076,-9.918581638738512,9.063644244151492,-9.471561620034123,99.99738523652825
2040,-0.21269792011798208,-0.10255022296006244,0.8532114853095127,7.142993281571812,5.464779972006586,6.368902175737789,100.00486585119124
2060,-0.19897438910246626,-0.01960494267416616,0.8575923508433317,3.468760033208242,-4.769718689759212,-9.171742362757254,99.99630786275537
2080,-0.20625020030097616,0.027444591083266835,0.8345903684871581,0.9266568040516769,10.287247312622762,20.703592567303488,99.96375159557145
2100,-0.17205031113207536,-0.07503653342039501,0.9026357674997135,-17.851310841590873,13.571514871850612,-2.825248577283171,99.99697234750721
2120,-0.1723406330184959,-0.08273117606133493,0.9938900605362888,-6.193213291063183,25.189745281268472,20.878561098513696,99.99516334379332
2140,-0.09416718530375133,0.06339552040387712,0.9496957934494792,-13.38848612811567,-7.8534470169456165,5.478502466599628,100.0113557500797
2160,-0.13739513495687578,-0.0671302028155165,1.0215495432827293,-10.452360840435666,1.993926029804689,1.1979072419243884,99.9854183053266
2180,-0.08907811388140935,-0.1375601891603887,1.028201786804572,19.567993664742374,-9.244094218319853,11.1409701647348,100.02417076423387
2200,-0.13137289454540313,-0.03942320359526544,1.0897601661190504,-12.980447632931337,-2.068948308168608,10.918552558266422,100.02290927342827
2220,-0.10785838314191898,0.01702453494436963,1.0331361454501322,1.3096833317185474,1.3623837045221308,5.2550515392623165,99.97302205366864
2240,0.03303691927261175,-0.02996799477085639,1.0791104631552093,7.214067183587877,-7.396518831036516,-10.025412885397282,99.99902516152358
2260,0.03178222289989782,0.037075705294013016,1.0912975210283593,-22.851828696540753,1.7502937693901657,13.788954252754753,100.00382713864414
2280,0.1299051377563275,-0.08967381373699657,1.1574464761934342,5.183245839069453,-23.712405044685234,-6.083870697708377,99.97358245168859
2300,0.15522995640815415,0.010147744084207521,1.1394975774957465,19.242175220925443,1.204777312773918,-0.9801703287014221,99.9833592735505
2320,0.19789136101342603,-0.02556640330015011,1.2378300191182758,1.90143887621109,-17.170084125733368,14.793027392781838,99.99027578818716
2340,0.16475623642819692,0.001632140852687109,1.1969279776915793,-10.945406018259455,-5.460310890323212,25.126923962793576,100.02475904199797
2360,0.18717133363612742,-0.00027312183743434537,1.1966515053155837,10.690120792287791,7.357479769480863,-8.476319903307331,100.01352765967671
2380,0.1844046172192256,0.04969385818732199,1.0675739475459296,17.410661927442092,0.957608634422162,11.289373696888104,100.02038331121673
2400,0.1431538536695032,-0.041186277044283064,1.1362631742695888,-5.333711242018787,-3.148956634253326,-1.4790546750965718,99.99259507037813
2420,0.2506502378625345,0.016940744470994525,0.999388528909356,5.945642163787914,-18.497233919609126,5.416255898621333,100.00145505028065
2440,0.07448616301402887,-0.020053878091306945,0.9675442707033176,8.410551196918645,-14.525373904472346,15.376629885707278,99.9904310374072
2460,0.1321995384920861,0.0076752815426167536,0.8951216014851769,-0.5371119995938345,9.311710033512345,5.892653417777845,99.96310928504218
2480,-0.007676384354806956,0.04915950374923206,1.039090756770346,-9.421922286215814,28.17602430001613,7.888618013262629,99.97091064255204
2500,-0.0010897684616381945,0.025867122887026195,0.9654717697261063,1.3896965427506653,2.89784731117438,-15.12976451789969,100.0175462224551
2520,-0.04283696146786783,0.0016642194013945597,0.9909347809617287,4.7738159322184135,2.4101095319793373,-9.927259455499767,100.01677009510533
2540,-0.05880008264197419,0.025173840940287545,0.8525575310378307,0.7320034884143074,-1.2831681201139764,10.639420633109637,99.96900674090868
2560,-0.11025767282630328,-0.0926196462428176,0.9346106671444875,-11.51321384215605,22.861191177824093,1.4418881572531614,99.98071036911136
2580,-0.25758429520117154,0.07691898536420036,0.870347703470515,2.728124740160236,11.935968841004733,14.020467547714905,99.98221963276801
2600,-0.06964330386979148,0.010449473674239177,0.8702863100716453,-10.301620531289046,19.032020080557118,14.57222772018639,100.02717140370042
2620,-0.33763586173576265,-0.03317729354508761,0.9401442181569413,-28.3542643859682,6.536042167228111,0.30115327300161226,100.0320403378154
2640,-0.14534600579693163,-0.08388888773217612,0.8304699132432458,6.938165974839826,3.7442505983259218,15.821093334626472,99.98906717397993
2660,-0.19371205836356906,-0.021881596523388544,0.8507768842883199,8.553032478627447,2.3162966466628037,-3.41286220321377,100.01795825629357
2680,-0.1657927633254168,0.020895117640019983,0.948787386527169,-9.706446414163963,5.297412812035532,-1.86549750765484,100.0029351327404
2700,-0.18934995810978889,0.08608949024075738,0.9679418451482672,12.360100581006318,-9.07252197162331,-7.947439982130692,100.00647868208785
2720,-0.019136087622554948,0.05345929927853928,0.9845575762442412,-3.182646802673943,-18.189463808418253,16.725414817946195,99.99584485958474
2740,-0.08992830331846749,-0.0008838217807505343,1.0978788140101867,-17.3471640489191,3.4707808223189702,11.101605043831336,100.00125046612057
2760,-0.029343148296212318,0.03884208162930068,1.0440953113063483,7.730222143396768,7.718654074138517,-8.044824350892924,100.00066173697786
2780,0.040879466074648554,-0.060668181486808706,1.069149895621084,9.84536548109897,15.444605942132611,-8.929196057848761,99.98561077668438
2800,0.11103627194538482,0.04980968955735001,1.149749404553872,-8.561863617609372,-9.695053328717265,-27.96391349518184,100.02778910810217
2820,0.03707099140104613,-0.01367107836621332,1.1338505887436718,37.45277060862414,-2.480486863785014,15.817462263692043,99.97670026545661
2840,0.15562355391315325,0.02385741238530252,1.1057181799547569,-0.5356148130722623,0.8649899188886014,-4.130509006601222,100.058863037537
2860,0.1150257437910242,-0.052501577135296865,1.148472894338186,3.510750317819506,-21.679436239325746,-10.572939499099451,100.02425051664852
2880,0.17662118473044194,0.04008280325706084,1.1213161765236523,3.6298825441330833,-9.087752882363436,-30.710066180052557,99.98937575532146
2900,0.14562475344022643,-0.01653945645806788,1.1534216233418348,-24.12082690606089,-5.741846401553452,-9.891303292964828,99.97164604530784
2920,0.25337669992634515,0.08601650113982767,1.1466784124646932,-3.5320414630554238,5.8920126015372105,1.087596505987405,100.04636404969563
2940,0.12679462108082926,-0.04461616416673595,1.159245713509685,-8.582776989726595,7.884999401260366,-4.583012221884831,99.99255664071845
2960,0.14110248159075406,0.0032143672325126403,1.1276760756406743,10.498533539197052,-8.814032632572921,2.465857749081648,100.03718485547755
2980,0.19370531072710923,-0.02292746403383461,0.9787879327423142,14.915371177986648,22.620536469836544,10.297183539444971,100.03405251201188
3000,0.12689481213699863,0.024253476597076204,0.9934976186474982,0.4517305159543545,-12.263297129294536,-10.93283042450904,100.0613961067553
3020,0.07524651006753579,-0.0815296857000171,0.9494415449267154,-3.4715850666113734,10.231062284265823,0.5179622114414988,100.01187081764066
3040,0.07157043187961794,0.016312704246356235,0.8821508084823237,10.731675563464142,-8.982469093394016,16.681281829299866,100.00081950663558
3060,-0.027792341216410443,0.004610018030093252,0.8547974205424729,4.319063879999767,-12.387278745265693,-13.920469627491734,99.99151985861958
3080,-0.045613455706460374,0.0070373112893037555,0.9860748585462725,2.440647390977644,-18.769742548158007,3.1330633162138306,99.95494489009579
3100,-0.1502328028174002,-0.0012735271560903266,0.8270188546350475,-0.49039790802808303,21.046745216132816,-2.9616234834705515,99.99618170106707
3120,-0.13386275852962679,-0.046715363540308696,0.817802351116755,12.141605854666496,9.31947568376035,7.14973908485913,99.98883865309266
3140,-0.2598127835865476,-0.04586276609981127,0.902205072262131,12.931228753157633,-20.941628262738806,-7.3755602371390045,100.01759145775198
3160,-0.2309166774788231,0.0027361885258917512,0.8165489802502061,-12.367516078358904,-0.894194494030135,3.853296014392102,100.00218911055536
3180,-0.22982565871586694,-0.032796355979299745,0.8175976278020887,20.591917515103177,11.583866587003271,0.1393217446776191,99.97586774865287
3200,-0.2001701613650948,-0.002619062007085697,0.861606072158407,-7.398326319611366,-0.7568619040560401,-8.755987997421512,99.98562927468637
3220,-0.25862701124624243,0.002951850538603657,0.9569652517645514,-11.013053240549207,12.634170512804214,-13.755763286971039,100.02101707429395
3240,-0.1802263768242873,0.03733016315234895,0.8940218570876154,-2.2935350986255885,1.3108758969092629,-8.301294713728748,99.99586539175735
3260,-0.21812678937805702,0.04493532893819227,0.96979953671351,1.397289372786899,-8.267870762766423,-4.98486821229676,99.98014565729994
3280,-0.20377354774785872,0.09013940321758644,1.0337060831166356,9.784240382546697,-26.33634775706697,3.0053869029951885,100.00239551328133
3300,-0.11819319536486876,0.0042586621626761875,0.9777032715339927,-7.00644380851238,19.302346502125854,-15.797987044450593,99.96624295651141
3320,0.005860687535258598,-0.06506145622378692,1.0776248034109481,-10.756920137149217,-1.8145772246531928,-3.833004802517377,99.98822411702166
3340,0.03983764903489007,-0.007056693030553153,1.1738082857192556,10.999533778229665,-19.03780958889793,-7.8053841924497025,99.995424628515
3360,0.09203960999619107,0.022738148908295022,1.1816700463391214,0.9717298925483833,3.2800333955353103,10.806285650004801,100.01763654317004
3380,0.06115394317692561,-0.0726392067728898,1.1727498586881835,5.762135169900123,11.745623304327994,3.7402509192041666,100.03565846276065
3400,0.15283334702671164,0.059799403383952524,1.063067433858034,-2.470048127976792,9.895782076995967,1.5676910566724027,99.96723381262072
3420,0.13348729147044497,0.0010633295315771794,1.1568007589550968,6.332186337343052,33.05954446699201,10.211112292674933,99.97180667816895
3440,0.17195030247293663,-0.028476421232236634,1.0560531925029644,-17.144823455862124,-6.296219244760679,-8.307458416497937,99.97446272189026
3460,0.29633118948341686,0.034184078870970906,1.103701541079462,-11.223895326158166,0.36171147246944313,-17.75745157625362,100.016019759568
3480,0.23496915537427213,-0.019977611314010928,1.1005296087408178,0.22293753494743268,-8.22234136488356,5.4053582107640175,99.99966570518991
3500,0.22359001808592938,-0.07847024820120313,1.1516260794173938,-7.986171526757511,-11.726309933551718,9.636789036231368,100.02919203155335
3520,0.14412594266913073,-0.04562544811465616,1.0928714207992403,2.7895565381795664,19.31872026150665,11.118256581297537,99.99128718241602
3540,0.172023966057013,-0.038526246863791525,1.0776190067704179,-14.017773776186306,-13.2676382803642,-4.80766143987222,99.96552773693143
3560,0.19549209849656995,-0.05868475304544062,1.0314816786523755,4.391803722729652,-0.4908775968936726,2.4204327983297236,99.96206275241862
3580,0.11176910844718614,-0.02175631321768845,0.9821364478630548,20.70289166028151,-23.17877886988525,6.440442349589725,99.99070395016042
3600,0.09823090933434754,-0.05906581726587306,0.8302240485384633,9.328379138803179,-3.552816904042511,23.627049696593517,100.01338470360588
3620,-0.03930228464742794,-0.06526664996152544,0.8830835130028143,-19.328698859950325,-7.763166344372095,0.8158509501270566,100.03533256080458
3640,-0.07534154970624407,-0.002003948228999268,0.860077864410176,16.639895841829013,0.20111993156555058,2.3930519068560727,100.00351370318138
3660,-0.04425219981114776,0.05480787689680514,0.8909333975789658,1.9897418399079483,-14.593245248854966,1.4240379056793362,99.99760133583649
3680,-0.17155033384027024,0.019376844279861777,0.7641460324250879,7.660912981659783,-9.272432789148326,-2.0245160731525775,99.99082951324164
3700,-0.10090622924185047,-0.11036851679682443,0.8197438845881684,1.2082295910217042,-1.4800403743086117,1.1523680307528692,100.02475434184282
3720,-0.1939384113189824,-0.030926315915843824,0.9475834214708123,3.468308942507642,11.884838495597743,11.034573018847086,100.01833045952614
3740,-0.18976757504656244,-0.07257887478936383,0.8114055088969608,-10.480525285154245,1.7548405906619258,-3.3933035744040727,100.00605130566473
3760,-0.16621386779774386,0.061256063961165154,0.9116443209541288,-6.4328737099563185,-8.289677054220604,-3.899780134918026,99.9741254208291
3780,-0.12294405899291691,-0.0384664293058535,0.8621137541362973,-6.611472821376071,-5.371951966927529,7.91691148918536,99.99476124733798
3800,-0.12815930290921257,-0.043957016468155384,0.9668467421143009,0.917344408945826,18.961134629319734,1.9213334912354778,99.96649621252033
3820,-0.09441446877159987,-0.03595543174085945,0.8757018675476573,-2.15345152689726,4.678825861977362,4.887419856428103,99.97069730947662
3840,-0.06856032338493198,0.019640743654695085,1.0195343110097073,4.174560982384575,-9.204107472056204,-2.593279714120883,99.99550367259141
3860,-0.11367513169545213,-0.01636353795146139,0.9910817497719996,3.572267263264447,20.653238808965412,-3.468539696039281,100.00295275436714
3880,0.007068342623290719,0.019041695485970875,1.1307500618881394,11.325592399655628,4.672795400347278,-6.246844625581747,100.01318390331619
3900,-0.015605527931466193,-0.006007663612962115,1.117874021024641,-11.106700367405153,19.794170998134422,-4.518423788093607,99.9879917753843
3920,0.1151528534777986,0.10826147831939832,1.1756599441377746,3.386269650906906,13.085290198095041,10.51629555438027,99.99155722294891
3940,0.09878738698540827,-0.06954519191022004,1.036424648265461,8.551092740827404,8.954662398799588,0.917883730790126,100.02557263059252
3960,0.15634578830285858,0.00037219989837061377,1.1756874232419827,-2.749223744864161,1.3307131992103298,-13.740742804086725,99.98654548474515
3980,0.15901140616219328,-0.0892988616873585,1.1517359696914566,4.2300413093052285,11.935525767523227,-5.030032217376251,99.97087226389111
4000,0.22709861744274243,-0.04363537851395655,1.1792059295082018,-21.769857284317748,5.599207690617993,0.41165135120274665,99.99300487638719
4019,0.21250810208368462,0.048141332445542334,1.2061533242050664,13.350264155736813,5.379888680027866,-13.457570752693497,99.9824857348144
4040,0.17056614430942346,-0.014283237383084993,1.1207959287696398,4.742385895268503,-6.0397443794937535,-18.592691154248794,99.95617859446165
4059,0.09899042733770673,-0.03663291401055829,1.1417541085319385,-4.493748891684419,-16.960404457179788,8.301817200527989,99.9865173567284
4080,0.25760483114868943,0.03983552924504888,0.9999216035392509,2.0163724907475133,-2.811292859767387,-0.9209282300559936,99.99415797740427
4100,0.044053663394980375,-0.07650886377093588,1.0334056730325867,1.2213062190675017,1.18051624549009,-12.393641370743588,99.99031828343202
4120,0.15586869137210302,0.06377299461095612,0.9997145002546415,-7.675283019302789,-9.713649998123788,7.044166797116459,99.97971979480022
4140,0.13434060848657964,0.027661918243830453,0.9397122815730636,0.5750030445689003,4.970952283242447,-18.365064935883684,100.00460778844267
4160,0.08196672281762077,-0.0442612182018933,1.046765431856183,-15.875417662260977,4.035059955271253,2.4054181015844653,100.00927141917003
4180,-0.08657332860887063,0.0005537789914019885,0.9195216649590203,-5.110974586123729,-12.56598742973998,-7.234110722577669,99.97410989019656
4200,-0.05722061474187565,0.1509510135557152,0.8791145768154974,-5.209945922076478,17.87629040996863,14.435183693455121,100.02357336862659
4220,-0.18024295236025134,-0.03415827475700179,0.8747071579694742,-14.119562325926768,21.930575331201755,-6.221022246371129,99.99577535916488
4240,-0.1998474392323061,0.023765608703183227,0.9270994673877638,8.944568416385271,12.713820406222762,2.315742961751788,100.02939015266693
4260,-0.19304472820972546,0.05091862582948784,0.891061570892257,-8.923216627253339,6.6967882494590825,20.409820507695244,100.02868723494338
4280,-0.2367257000034294,0.0821973211630432,0.7998495103543152,4.503010193314906,-1.6766819196674918,-2.4573990507274255,100.01337069552244
4300,-0.15370344900538507,0.01775260251549186,0.8771996074629145,12.854657362892734,19.07397263174147,-8.107316728729348,100.0385778241513
4320,-0.21182959181449462,0.03206831785611409,0.8697918494416119,2.769654872803006,-17.33405349078894,21.53562998409545,99.96658093845032
4340,-0.15658918107605804,0.001690558807053869,0.8927686091761575,-29.113538335844407,-3.952190271913615,15.86748682541564,100.02295986110718
4360,-0.10609008341989337,-0.05265428536741001,0.8756737985394688,9.624182908188816,-4.629405310462219,-6.322610630945932,100.00110493222438
4380,-0.027642080371735628,-0.04664721941359151,1.0488018534850998,-20.464667507218948,-11.239742522420157,6.280645629291168,99.96054420252922
4400,-0.030715883987837242,-0.047121107742944465,1.0981488517281985,-5.351255532685883,-1.5361170370142587,-17.95215928289454,100.00086243291071
4420,-0.027458375466332632,0.08532973086239809,0.9588099033088398,19.45623617442153,10.570798054599905,8.36899131113823,99.99402164733092
4440,-0.03838208271664038,0.002486569732397337,1.0398346126802176,0.21015094074811067,-8.329653816801725,-2.1785248692397947,100.01247903991361
4460,-0.02888544098930247,0.11851016707217535,1.2091020086994322,-5.670595083406431,8.140321147189047,-0.5094035390541511,100.03024420954205
4480,0.12144949062042532,-0.02381986583394878,1.1445743222499574,-0.5786333384583087,-3.279290945294767,10.1166008061218,100.04227095100433
4500,0.04241698078827848,0.04674682046066942,1.2289642426459886,-21.4419439029856,-3.3856112899420827,23.167417151894607,99.9996004942442
4520,0.10949633276144266,-0.047047177504195764,1.112164883157408,3.903759171999392,-6.707615987238873,9.658421605912128,100.01415905309963
4540,0.2328778184623557,0.028858334195908164,1.1544324764953593,5.547091607810547,-18.246420541323435,20.204684894183195,100.00270500306533
4560,0.09571059734168837,0.012733371930155543,1.0861661099951303,-6.7480345357803255,1.1733471688638035,15.761310322036225,99.99878585603221
4580,0.15609434396327296,-0.0211197203381222,1.235202348931063,-5.03037016505972,26.175018582988113,-0.9680366562938926,100.01602976090922
4600,0.11985335476194171,-0.0542585730125892,1.1332725300350357,7.283047830004671,-29.990966024819613,0.4186586205597554,99.99897811850845
4620,0.19655746662468587,0.027115644734975148,1.087302285784242,0.32598849728401214,-11.847889861068477,17.567236800168985,99.97774163310073
4640,0.20508678869155922,-0.04492856746239995,1.0063554811046111,-22.264764013160935,-10.468677393841915,7.944752513084492,99.98300580781708
4660,0.11695522625849149,-0.024317841764779684,1.121917997342995,25.836371716154275,5.45036979261007,-21.012594806502932,99.99775302101591
4680,0.15336858160826947,-0.11756339803289989,0.9461607759572784,-2.55678792045964,20.54235652614859,-5.729899398377295,99.9842578878163
4700,0.0665107660981178,0.0735883270933415,0.934692900187749,14.753959310019253,-2.372950453760259,18.46437536063416,100.00069706465825
4720,0.01074094950564961,0.0861422464467556,0.9716647553189753,10.994753183735128,1.6775638052684547,-3.056403452247909,99.98904826882993
4740,0.024338819210940874,0.0021831483288760104,0.8685370604785966,-3.757316940158051,16.783402357359794,14.472982051742619,99.97705164724763
4760,-0.014691081085749888,-0.0007115908660899068,0.8083692747160766,-1.184756197269483,-6.134407758476228,1.873829505947517,99.99553773811667
4780,-0.09877152527280192,-0.0742255689056549,0.8074928109983628,6.485257468757321,-7.435590635228126,-18.556525732940404,99.9981113457667
4800,-0.13849429785826078,0.1000094858616643,0.8616584213671473,-1.859935299113082,2.3768793995603197,-6.242733607829689,99.99250223127339
4820,-0.20227704055763157,0.017235359811255842,0.8744214216357726,1.2594296768853335,-3.2152635074021694,14.847895328641956,100.00806542581724
4840,-0.177672596550117,0.005561883144977939,0.7732464620049198,-12.743269272399278,-9.55168252860835,-1.856066346774794,100.0181780022241
4860,-0.20016931157998624,0.032264339141415375,0.9785893247861797,-7.26410699097349,25.01030678643756,7.686649450616965,100.0287855547313
4880,-0.15414397449529876,-0.09176497841283726,0.8275700061656129,-13.378213996874877,6.912603434703268,-0.3269045065243419,99.97646727032709
4900,-0.27026355251216116,-0.016586648377962622,0.9191505792337428,19.80163900183895,8.886239716636318,-3.0395330545631705,100.01533345887593
4920,-0.12773265036767553,0.09636525441608698,0.8907552480145728,-2.5623051471788445,-0.2547554420706314,-5.075666877577264,99.9727805502558
4940,-0.1333858931849552,-0.023996927523081954,0.9690342224324885,-5.555278916152054,5.21557277087124,3.446312997136255,99.99039882133974
4960,-0.11201418755792697,-0.0642329265853045,1.01779601965533,-10.487268464730496,-3.188149023492114,21.287095350288826,99.97645308542592
4980,-0.032060882232439775,0.003738204470278834,1.0095121246385907,-11.758492060823786,0.5626371631674818,-37.11085230924229,100.03779226241105
5000,-0.000890619333330312,0.047768980184133544,1.0412297226819809,21.75617397520016,-0.8128501486312252,9.33430684521663,100.00002344867906
5020,0.04034671619909645,-0.005256744016646375,1.0262707622538938,-0.05784330685703507,-11.743135743241844,7.786000904657747,99.96007404165745
5040,0.06481330670205862,-0.015450724693987887,1.1734944442516657,15.119330458966687,18.73660068297438,8.10127606835961,100.01711539938078
5060,0.14078651274765758,0.04437644287358547,1.134300594215436,2.4553050505144065,-16.16854560361489,-6.443621485071709,99.9937228642446
5080,0.058242308837708034,0.09311423576348891,1.2717088665296674,16.659909847971093,-23.5725656027483,-4.7556649292254995,99.99399040372282
5100,0.1710410119201155,0.09635629768975601,1.2107067423947766,-17.71451124130551,-28.907262588233948,0.30454050577603736,100.01377389108534
5120,0.1506192631368391,-0.015582509840080498,1.2046655176042707,-13.11080180178207,5.575454019374485,-8.102239438082197,100.01829046031813
5140,0.17758447485270387,-0.02669140110901594,1.2209554062871084,8.206937761314176,18.149895267192676,6.944123000036839,100.00102841412834
5160,0.20677673361774274,-0.03667843034541081,1.0803871453457563,2.5577171058180377,-11.98893533132526,-7.267314456025845,100.0170809389688
5180,0.149097734056664,-0.07085652454954097,1.098595930359235,9.049506838774846,-1.7628217988795,4.004886052553599,99.98323051035406
5200,0.15552331773514463,-0.007273432418733562,0.9812256421428673,2.0499824904390644,6.044981125124748,-6.856643251617911,100.0022497716069
5220,0.16378452164065593,0.06759895787992688,1.1419721696060576,-2.0264638203694068,-9.493808837176301,9.050299563304488,99.97308066117378
5240,0.09300094510517642,0.02325211526831835,1.0292647193719835,12.575662517099616,-2.376744289715664,-3.720361085883682,100.00842896340887
5260,0.14280304088308005,0.04310569030441847,0.9268287572207229,14.453784112930924,2.2396809450480313,14.378078285293547,99.97000971633652
5280,-0.05578636175581253,-0.019264641570586282,0.8999087989253609,1.4170297489149735,0.5522403653298056,-6.7023490835153865,99.99826440383326
5300,-0.016986476537775207,-0.0179475220327323,0.8921229698952806,5.284073820294608,-45.587726976958734,10.564551218619176,100.00937529285261
5320,-0.1316651991326182,-0.013318784261474521,0.9796007723146506,-15.894740550549736,-4.169080473263993,-20.45502752257559,99.99920955759981
5340,-0.04816543004107385,0.03105916611938893,0.9475931574812952,-4.317021641791484,7.2720318975752605,-10.48756557576571,99.99457381166403
5360,-0.10557540634172985,0.005607998137924917,0.9629733070321759,16.080591356390702,3.123535571182745,16.438212407150495,100.01538869919824
5380,-0.20251804981398955,-0.012897149934473504,0.9053517756191612,14.163151586557488,17.52545095991651,-6.173794979184466,99.98918667000571
5400,-0.1840144562147251,0.09617877070680753,0.7964085318805976,32.7133010701908,-2.704877619622026,-10.23728261770851,100.01231348062977
5420,-0.2834172637043242,-0.058071816992819894,0.9271416142571751,-2.010962947195789,-9.312050648504755,-18.770403490829924,99.99456948310373
5440,-0.2083127887779858,-0.017242276415132082,0.9498394825138038,3.1616392070079677,6.871076322928357,-8.87936173215458,100.00991854287425
5460,-0.11623362165114873,0.04414603409784141,0.9224328990590082,20.188099972753722,3.364639911793094,-1.9194469371320348,100.01027513543607
5480,-0.24210928620885222,-0.04529134078607721,0.9028660807530023,10.93592714279557,22.678325270006376,3.4421045556975725,99.97121152091938
5500,-0.1513148803581277,-0.03255854774642664,0.9229149037202512,-3.4076374937446414,-23.226580902708918,9.603777091831597,100.02226487684098
5520,-0.16439373677013874,-0.00980334383320322,1.0244279939425172,-27.960230728858853,7.249645129511,16.772982008984535,100.01601569703212
5540,0.026386123108928065,0.028060273564131967,1.0368751238873173,4.041209598047949,7.189388219093997,-13.514793490479633,100.00419944376635
5560,0.07482246828969766,-0.1037140364236302,1.2011766276002147,8.438365594349742,-13.802897482561477,-9.363331346008902,100.01647237659823
5580,0.11772948938916042,0.0031747743049926475,1.0822274207923077,13.341824241655335,0.340654213348216,-15.68401580039118,99.97123111862153
5600,0.08079795673571809,-0.08642164871423678,1.148916419788363,-8.899295503507355,-4.691085140224537,-12.202789616105864,99.98956780328783
5620,0.10779079053785683,-0.030092169915692885,1.033235113441755,-7.138935245629602,18.648697038549393,-9.774140161149418,100.01310182499289
5640,0.10821911446864199,0.028035267636463225,1.150916118554652,-10.579542432922446,-19.508431374647184,1.7863072427343514,100.0530983562894
5660,0.14410227120956565,0.028898082827201122,1.170813095602605,6.3750020260008124,13.951058480919162,-9.360591444079425,100.00901944969735
5680,0.19830808802865155,0.06782111308235002,1.0490205488354565,-12.174931361693869,5.484134958407369,9.223905800359782,100.00572048104804
5700,0.19064173104635684,-0.038051442391434036,1.120338340250371,-7.471613936503148,29.316172786786524,-6.580815435485405,99.97291145556284
5720,0.16321505760074306,-0.007088629111988687,1.0956854467226966,-15.122515988738504,-6.308655564363111,-2.7256725359952902,100.00197541367898
5740,0.17691870014121044,0.023546298889738554,1.0855993149056975,2.7567881247792876,2.9439056923024958,10.49747721770704,99.98207843535566
5760,0.18664974993205125,0.07077028736098928,0.9990013891978073,-3.717922057757127,7.283787050385197,-19.121995694309053,100.02481405079317
5780,0.13484720994575408,0.05257910342526304,1.03896683660514,14.075400466618621,15.961690180739843,-6.137890483164538,99.98279907509108
5800,0.09688871262213561,-0.04353490242289167,0.8930454262496671,0.0919564304012888,-1.277681031797826,11.163402958564099,99.96801512395199
5820,0.02751282781214954,-0.07817969670204866,0.9401816444434632,21.070714656312845,-15.287852777423188,24.51518446282651,100.05481634843608
5840,0.02295622977549619,-0.04738785206729593,0.9747788526255774,-28.469632270303745,11.755174197525147,-2.4442347808369345,99.978981224846
5860,-0.0874474528761851,-0.024966178764958255,0.9116729516127471,-0.36349009706283003,4.274503902872484,-4.9332808068443015,100.010463269801
5880,-0.19703218907745845,0.09897421838501602,0.8748084787006954,14.601449704284017,-4.38177894279943,-11.571631293330212,99.99020228462487
5900,-0.13763768713607896,0.008829439751975709,0.9163386450867063,-3.827889529692814,2.678685106434257,-0.05971292671186507,100.0263017770956
5920,-0.16234976540541382,-0.023835272754729606,0.800267855803618,23.636931465832333,4.809506723157464,5.321231951455951,100.0156334294583
5940,-0.1646945736532801,0.019405915113309732,0.789831233269835,-0.5114604515324807,4.62989284945603,-5.446422571208167,99.99805617882942
5960,-0.19529169833059062,0.06786171321077619,0.9023977762334298,-3.8349754844912285,-22.141472104501513,-4.259341361714417,100.03451747859356
5980,-0.30132447692858694,-0.01243625461995122,0.8606215726269337,-20.753263674369265,7.540941297113129,-4.633865506131874,100.01060690725109
6000,-0.30432259653862787,0.07253600638815165,0.8990744167295495,-12.26909943644732,-23.813166880307776,-1.8565997755525594,99.96965058778322
6020,-0.1324668765543549,-0.02398075807786361,0.9943224279584493,7.620064276135615,2.9929857846599193,9.527691470793872,100.01022683773196
6040,-0.1301729439354644,0.06748187452232636,0.9917926250157552,-7.116975971676565,-18.066552734819137,-20.03919658178989,99.98988445384589
6060,-0.14132642163648787,-0.10097255077048353,0.9353805257643825,6.919148261873989,-7.926530306828598,2.382091702578667,99.98629308884969
6080,-0.052470578554619514,-0.025523714209009642,0.9308180142024054,15.841896062562721,-5.6518341109332155,-13.679367350160518,100.04150711917697
6100,-0.09360827439282692,-0.03328566465704324,1.0379923724725584,20.653803533398225,-0.4990757076743498,1.294725380500477,100.01198293391482
6120,0.03338477394536864,0.03397703128210027,1.0709108580941569,21.12512897004495,-8.672453661346438,-24.132258716177972,99.9744663797286
6140,0.1464119003975139,-0.00742440608852073,1.1188248410179669,-3.457394766778105,-6.317917692321124,-18.42829873609172,100.017197151935
6160,0.12490510852349937,0.018355541178331373,1.1951192814340816,-0.20552906485638456,-1.5862253226492342,-13.781758172610802,100.0189615259062
6180,0.14273629336036495,0.009475863738637924,1.1247551732204806,5.453297593448671,1.883232729044623,-6.867012829383512,100.00892919967104
6200,0.2351232831829087,-0.03581205303213627,1.1163473668673443,-16.334710760854318,13.72458051267207,-13.314847143499751,99.99056315430938
6220,0.16749233722040133,-0.010319044478454352,1.1361855700158676,-9.798345293775162,0.97266183275317,-20.700064093961785,100.02054777774178
6240,0.1750631167383795,0.05992945538594268,1.1259471997644401,-11.35242863654009,-20.999420157024492,-15.051420379992638,99.98293105068264
6260,0.22524803375679464,-0.04256165228848175,1.0110092742267787,-2.0802455730795426,-9.63426046891894,-9.827398949979498,99.98255287101283
6280,0.15516823562277318,0.12136301935361425,1.1150081956106517,-2.271255220051286,3.285536786971563,-5.756827756283647,99.99820197603783
6300,0.16133969389859668,0.04191304235603193,1.0650067490434199,-1.6719091577422671,-6.3779148262573875,-4.770781517704029,99.99349671540391
6320,0.17285257981382804,-0.03809149823932492,1.0319457371537812,-3.1926298004358546,13.397102583932774,-1.8311062810167833,99.94518817455227
6340,0.14924150329879193,-0.042118084613937505,0.9624746601130756,10.95687246184288,-5.789264707252242,0.44509046616658404,100.02146924694812
6360,0.08534451348154276,0.02234345100066899,0.9304351868274684,7.058431380455513,1.1788867806837813,10.191589468868258,100.00515522505233
6380,0.019665111915262146,-0.07820696868652915,0.9526578633587146,13.271641245173006,11.13679891450611,2.337908251647527,99.9883179884309
6400,-0.05237919270357301,-0.05996815538751158,0.8761647814881576,-3.563311989836208,11.40986408198346,-1.2944862268563315,100.02192757250783
6420,-0.14404040884547223,0.0520412452996096,0.8870117150736124,31.101699890743674,3.7686083109726414,2.713067403027212,99.97850326239384
6440,-0.07951017111866955,0.09351171326043536,0.8472049120486402,-4.687522207266541,5.517712199379284,-17.54112638118935,99.99955700097885
6460,-0.2124714079814684,0.004541934671349892,0.8602432267609936,2.1750921065443194,26.62571152179237,7.0186918149107544,100.02545126205298
6480,-0.22754042229276672,-0.06276162974037547,0.8772114394671102,-0.15453496811947695,-0.684159352621485,-8.543679809088127,99.99209153329322
6500,-0.2287504701520808,-0.06733856734622226,0.9011439737286548,2.8269438400956335,-4.940834795536453,15.240840965954398,99.9982557688594
6520,-0.2482834140463544,0.024327737466910096,0.8960257254955658,-19.3081656803899,9.282503013627657,20.814539802188122,100.05068788588157
6540,-0.17630626647907174,-0.010205302352184016,0.8785119505639478,-12.028355295401784,4.143849200775965,17.468735242400378,99.97443537692097
6560,-0.16332092600672823,0.05711393591382994,0.8964281066818043,-1.802107050944266,-14.060295246342806,6.7543622387899465,100.00709826734919
6580,-0.19578870305421098,0.04979643961757546,0.8856604190005223,-2.1436064762711653,-7.051957941612085,2.1522687656436688,99.97104956676634
6600,-0.15150827740402936,0.04178242187553592,0.9796865588171155,-17.74219609653828,-10.115498128263102,4.732880958197583,99.99962512879473
6620,-0.11492441282323254,0.02399287428324172,1.079594912163817,-8.63391524611512,13.681471956824218,-13.04972404300006,100.01164575692594
6640,0.0744921600696074,0.07074277704956498,1.0341228129603715,-1.0520997774328629,9.304927857086287,5.654100656880198,100.02609646262718
6660,0.07636470735732558,-0.01441411750555622,1.0643867310991466,-5.294369983022946,9.923970949306021,-3.5746775344773756,100.00835799652482
6680,-0.02545487303048297,-0.01137932296427304,1.07972604571007,22.863117024444964,-34.38677264615566,10.453655388919941,100.02279212887889
6700,0.002737027598507219,-0.0664300338128491,1.133530232565359,-2.095066596511775,2.5122850746399807,-1.9758285054471614,100.01558369285344
6720,0.10959828058584577,0.08318123848517643,1.091893935383828,6.861387422716595,-5.406654680757423,2.771630321475524,99.98236340124063
6740,0.11180060661639765,0.0012124567412514034,1.1307162153826933,11.739151519753737,10.731939230451694,-16.608186598000408,99.97762384388969
6760,0.08483766023775104,0.0027962992230159698,1.1363264728841933,5.237886640852791,7.060125526562875,-5.51418485683983,100.02128307274509
6780,0.18938543311730885,-0.0017031639811788228,1.1493294029731895,-9.557518935394551,-4.104358326537234,-9.916253163050687,100.023238652259
6800,0.03860280371529887,-0.10644352473804691,1.1267965668431834,4.62979920379321,25.10275052966177,31.315122848184433,100.03562614837492
6820,0.11092172895123578,0.041772954469036845,1.1299111874644865,-3.9760126524077273,17.57956684734649,4.611597669633517,99.99414106791995
6840,0.1322991567814651,0.08144067326931452,1.0567600792459642,-16.328709992797386,10.610887744687606,-6.662300348808428,99.98458688119953
6860,0.1164150066960602,-0.02346476863185328,1.178918712537291,-13.335516773659197,0.3977115107095054,-12.387197402985372,99.96758264292676
6880,0.09872865518576637,0.04173840029141871,1.0632381436139415,5.182044626851787,10.55182805908705,-14.376617501979876,100.02323406263133
6900,0.0664385088052957,-0.08048227399423397,0.9521051910523877,-29.30442066890693,-14.198415086121138,-26.884480406685967,99.98163397133436
6920,0.020207847837823055,-0.018462540523905786,0.9036307710970409,19.6853098996847,-9.314865515170187,7.804016741096334,100.00181276441695
6940,0.00182295207554589,0.07505590745176877,0.9675704641253673,4.374946305579417,4.476234606549156,7.8007532301943865,99.99340540745555
6960,0.017722369298659134,3.568686968524393e-05,0.8779660827825331,-5.155851745160906,3.603744937703374,8.540744187122549,100.01391830736705
6980,-0.19113090607155148,0.055021509325094246,0.8988943363342469,-9.360223688183291,4.254732388294256,1.2007254812275132,100.00118331538742
7000,-0.20111478748730713,-0.01167513397740582,0.901524189359975,0.799917210194012,-6.83197934852375,1.2106749605844618,99.99783880097318
7020,-0.16832953945016882,-0.02881772299719317,0.7922556925076722,18.52805085250345,9.74609431178973,-23.509046969501107,99.98404282282547
7040,-0.16684568677239692,-0.08861048050992469,0.9054686847354627,-1.0295041651760337,12.851174715142632,-25.505493331188468,100.04396183263111
7060,-0.18522976381428455,0.07267079928806242,0.8789039974483311,6.9032029320530786,-17.14530601490333,-22.502696437840466,100.03335568666978
7080,-0.23414881553843242,-0.05658577623323213,0.934205686081627,-0.1563627619255945,-2.8136276343664615,-4.062214413959704,100.0195472629915
7100,-0.1968719583407199,-0.10628461257672304,0.8590927675131184,3.6031532208099186,18.782278180965072,10.30678425766732,100.01366308977771
7120,-0.1641747909329624,0.05249870101369602,0.8759048900372585,16.948352324356513,7.466884398459851,-0.3309294691748511,99.98313097172367
7140,-0.1791913692349895,0.01822139884928474,0.9575321226772486,15.357397889692248,3.559054677994726,-17.75125832521513,100.0092981780374
7160,-0.025057613258873207,0.028243019525408156,0.9534387814980482,13.469553543797028,-4.684797340215974,5.967310980261999,99.98931758477445
7180,-0.12721620316443963,0.024927592719533896,1.0707865064739233,4.536387010748336,-17.630005821785474,12.890395520916707,100.00766505198897
7200,-0.004446015527613659,0.023112222811142558,1.0229271923747274,7.302034933950761,18.060502668083505,20.871309594747412,99.9940842088979
7220,0.03165204508394138,-0.006596229303445196,1.0473404367233625,-10.119884116048198,-8.118357404613565,3.3967558915546334,100.0043625467166
7240,-0.025635564052077682,0.020271286850180092,1.1436267683532502,15.84288678848337,-8.493405002004657,-12.281777589585518,100.03308941576134
7260,0.09601049234445388,-0.04800920846105061,1.1476638101780745,-18.812916974637794,9.610640763885245,-9.651275840743635,100.06118777999751
7280,0.14361751781036616,-0.013317094739103483,1.1145376234443454,15.95820766257242,-15.965900781534698,16.916848021198554,99.99811486637742
7300,0.15625300038068798,-0.031855156056595446,1.1059637062495191,23.2958112142079,13.619966843456176,18.999378195704345,100.00933522987586
7320,0.1672496521127648,-0.037449013260961866,1.1295823632197117,13.258699969064544,20.96639617982175,-14.02829092440558,99.97299608062903
7340,0.15462845696941127,-0.14654108489350579,1.1177843563497052,-7.081612690357673,-9.448552705450453,4.569067250859881,99.98096872092047
7360,0.17105620251746007,-0.024433354317273157,1.1117218716025008,15.94124789758821,9.73316624990133,8.921445415960854,100.01022123826772
7380,0.17250930440073986,-0.06472671953288993,1.1002463377779994,1.7185244136170907,15.542445334758154,19.10687368767774,100.01955614459438
7400,0.16418579421579255,-0.04796482844940299,1.1457518418194157,-0.28154867838937414,-2.6705174830950584,-13.803246778274458,99.99153678703055
7420,0.16102710837699424,0.025002685659879776,1.0627489049651213,-12.31552434029901,-6.904045088608041,5.608470651235167,100.00350386701516
7440,0.20851785620958335,0.02510184387221739,0.9423180760338818,15.401394281328805,-4.168459315329762,-9.715111328764959,100.02505768593083
7460,0.13954800703404827,0.03988352239970028,0.992052653091378,11.481565581408633,-9.298732795959022,0.6180840124391589,99.96478829454254
7480,0.11694371835931447,0.0659740861927921,0.9840819093088824,5.177140410958452,11.009720801307353,10.262654957502145,100.00674110468306
7500,-0.025334737937311953,-0.022256798393909528,0.9231494157502511,-0.9261586378469009,-12.311947660721795,6.175555031712648,100.01205356560727
7520,0.02955236034598284,-0.04035538089284559,0.9010502809384787,-20.148437113695117,-6.084673376963508,13.440353593135024,99.97096527035563
7540,-0.060339935282635315,0.02699536819925093,0.9245534966214921,-26.744013586346675,-6.032886213702168,-2.1703412119754555,100.01353835047853
7560,-0.051327568744578514,0.054364169162402366,0.8797138125347894,2.3718977305773046,-20.58065966079377,-10.334345846031528,99.98678354644866
7580,-0.12673647882053354,-0.03287963131920753,0.7894995620447991,11.14885858658702,24.97334110369151,19.49532346753349,100.02161171551155
7600,-0.13497934457045446,0.02472714210251876,0.8068972283136656,0.26655923803076714,2.1069238187958956,8.457107319179407,99.96929468544116
7620,-0.16263225344561172,0.10326164844669111,0.8725496712261225,25.308560250289375,-1.424893490743004,19.75542126006394,100.0325427670526
7640,-0.18536252399421768,0.01506092976118624,0.8840885136657958,0.4096546973330407,-0.18177402194999426,-7.752151492584574,99.99541940047212
7660,-0.2656127836426168,0.07016058543079631,0.8165246154856953,-1.273336850130388,4.662234481554425,-8.029339327138072,100.03922483151692
7680,-0.051159747699703884,-0.0799769872689646,0.9878858091989027,12.840266751831662,17.28405303579597,13.045724656539168,100.02455329137153
7700,-0.21147890390051113,0.006803616289681416,0.8808922168740524,0.40532937712747147,-7.993816268480009,4.6770413675799745,100.00796733203981
7720,-0.06572359884563934,-0.0626352191033756,1.061890361516824,-17.927591121479857,27.25929187488773,-14.821176263106238,100.02734526751327
7740,-0.17132357208869153,-0.024782364546361554,0.9529860506970629,1.102675654790278,1.9477487859543976,12.347248755465408,99.98745643333764
7760,-0.027970108968074586,-0.0931344583735705,1.028428105096595,8.742738211538384,6.902815618714168,-7.095418201819912,100.01320872888951
7780,-0.006826609762747108,-0.09428780625445513,1.110384088025386,-1.9988867693052146,-4.273110253024756,-3.9887870265666727,100.00043651329366
7800,0.07388733391986006,-0.012722882116049026,1.0707452202426146,-13.214279309414827,-7.421992805382217,19.834308175914167,100.03101467512842
7820,0.08780399444501581,-0.10803059586505764,1.1165598438978461,10.849010119609643,0.9399764534861307,-0.26309745867596757,99.95685920832511
7840,0.08681232775208655,-0.04815275223343714,1.177205425368938,-1.9286463354680725,9.198534147309536,-10.43922263321528,99.97164308553982
7860,0.15253456424265818,0.10137693669358279,1.0774160271701179,-6.699095248883696,-11.491150181029507,17.540581063630803,99.97246599522863
7880,0.20635616640890186,0.03270427651183204,1.146600996325235,-10.223875328480059,-4.056139187531855,11.256367216060958,100.00045086046697
7900,0.2946004806425817,0.01798452482397565,1.2387985078582677,16.27962826496382,6.748793596143802,-10.19672307278567,99.96790107870794
7920,0.16672162183349806,-0.01818679681649386,1.1608036016967584,2.3198685171311766,-7.011986933448782,-12.209195981801557,99.9918732907424
7940,0.22908330420024053,0.04791994457357583,0.9923824369296694,-5.6290017937762435,-9.298843837136621,8.18372269629773,100.01234494433466
7960,0.22697666665502153,0.04393242540916203,1.163482918819346,24.70694377488973,-18.874588375644766,14.362655926804724,99.99575729934382
7980,0.1250106960094162,0.01900969961467764,1.0900483180631118,-8.584957730440285,10.122357899467186,9.313803790624824,100.01019774546114
