timestamp_ms,acc_x,acc_y,acc_z,gyro_x,gyro_y,gyro_z,baro_m
0,0.011325253808163889,-0.03385826982500178,1.0521534839279862,11.18786922144545,-1.6181089020825823,-13.173253304538207,100.0156251237092
20,0.040884688063152416,0.05231653120866182,1.0625575480855893,14.511763630232311,-18.24073172911072,-4.39086694102336,99.99822037613524
40,0.12852698808086097,0.01688503263548402,1.0507162568748958,1.050438746155601,-8.082307884007392,-3.746407625842511,100.00392352097633
60,0.08135799234319353,-0.0727951444359292,1.1456434823010861,7.821014780729106,1.2226003679371138,25.419936802249396,99.98046812584833
80,0.13592571483418686,0.019428696320682948,1.247023303603414,-2.0965258906704323,-0.6362645531821688,14.131864920624581,100.0049190633419
100,0.2602025484161824,-0.021024719297630643,1.1244626168898628,12.408836023971947,16.284769666358564,-3.1615161415563007,99.98625003757898
120,0.14102588870219368,0.029565697358287242,1.0784763265109865,7.876240810712538,-12.612433247116526,-3.5418838485498263,99.98813348124617
140,0.18405079901144633,0.006332563219452266,1.1321118533928523,-7.243374504224238,5.130872846044327,13.969094069478503,100.00160300475626
160,0.22737443955591463,-0.019155570424528867,0.9878823072238768,-2.2019216303306637,-0.8340867375916701,11.598722961487564,100.02311394152585
180,0.18441459305302316,0.056310551342363506,1.002421560957503,-7.415041344910803,15.685419972710388,-21.711003326945196,100.02068004474539
200,0.2311696482492207,-0.07259328457956525,1.0625553413435265,-2.953142090944072,0.569249590668843,-2.0714719617588755,100.00122323824685
220,0.14931774851720037,0.06317387896286773,0.9593880835681231,-5.118440724096347,-10.336384591567645,-22.61436147271362,100.01248292458166
240,0.07996890506172656,0.10357612274981785,1.0294648021001094,-10.110599661845928,5.936082575204069,5.35884644114565,100.00358699973187
260,0.015202701908772032,-0.005842451055626584,0.9698724714177415,22.27863845574624,8.911769257927437,19.951287813326402,100.01691796761565
280,0.06310407254612323,0.11155901842663402,0.8639597588267167,-8.934306024850477,-10.49908237216058,-1.688252867528334,100.00437501322362
300,-0.03370308003460684,0.012702169225466792,0.856793113127105,5.9053950959478225,-2.8244421466920433,-2.7959140941954757,99.9948585108021
320,-0.1080690191619617,-0.035588182924651386,0.8172128073977473,12.244302582283737,-4.741154138178857,19.040433918573754,99.99128258015675
340,-0.14560371893222054,-0.04766347496857947,0.8372241844582953,9.348687954419825,7.301241007385413,-9.295931125380203,99.95848942167234
360,-0.16166707844323638,0.035147966720170586,0.8724298248370065,6.175133165127294,3.609341575359533,12.360592855347114,99.99427554924395
380,-0.17217788702377662,0.03644600444985371,0.7753040554526047,-4.668984898296633,14.284185147392744,-28.677913053769075,100.00380266366976
400,-0.19343739162957568,0.07644301118959917,0.7893445296822132,-2.7336067522787926,21.369617962484785,0.632717255140435,100.02461217060579
420,-0.1954273156795954,-0.12141340073072018,0.8785529281412893,-3.487039121216743,18.817355579472114,-4.082762299506616,100.03153612735231
440,-0.3037111308663676,0.008167981149964785,0.8203352652659739,-7.0857660903264605,4.743451999599124,4.982025231470314,99.991196111868
460,-0.16733770274128662,0.03412867266293293,0.9292583250482148,4.496729674570481,-7.658282839717917,-4.965568797361396,99.95689537852466
480,-0.1131039395650531,-0.026114745673821962,0.9161599632558959,-4.660963170512611,11.111653856577345,-7.06736017426582,100.03558663947935
500,-0.06373444662636979,-0.061265922141353485,1.0031239177702407,-1.5746046443618877,0.10316921300403073,1.4491705543106823,100.01003634269577
520,-0.09585590484639779,-0.035789508103233385,0.8771290598757645,2.7893247982321983,1.453904974015727,8.4093289028165,100.02282692742307
540,-0.11281604630682429,-0.05872404186445005,1.062292907466343,-13.225937470576953,-2.4913338027996907,12.764827298292431,99.98579966960806
560,0.08066826445426278,0.05657311452544378,0.9995410238526282,5.182569344395407,6.22207256471781,-1.5319110316764557,99.9865573143331
580,0.08667718640620842,-0.06716322574250305,1.1853871600828016,0.028486347220990083,3.9222811489536364,18.891651573104088,99.99550580494406
600,0.14110806422657177,-0.05783777504150681,1.113871559637882,-5.974257257622564,14.050377337190834,-13.569725013408343,99.99884290270056
620,0.12194119449925364,-0.002337805004463364,1.1243058941804918,-6.091231140124437,4.3907103628712845,1.4233301130758755,99.99879967421019
640,0.07316437868507433,0.05345620813832387,1.1366112733804643,-8.548402442300901,1.8693466110660633,16.512344687110847,100.02056334780912
660,0.197572128565904,0.12229069905255413,1.1559761150182888,-10.2259890529958,-11.89676936009709,-7.405992484762555,100.00811401303294
680,0.18022334518432115,-0.06403428495740542,1.1842024125087236,4.33025191460996,8.709464969346552,8.457647736738151,99.98473717660332
700,0.30152526953178915,0.04727648159227465,1.1374977137685713,10.27858830265626,13.208800470195463,-6.442154905098757,100.00090352435821
720,0.12809913104742526,0.02093462984587179,1.0168643912506419,5.877578911187516,23.21414408695883,7.337970754751073,100.00378641733113
740,0.10105430110025958,0.029175920290711532,1.0632926314327196,30.55000257116046,10.1353209530237,-5.971463415876434,99.9897107015715
760,0.14413789889190837,-0.04708202604694771,1.0586401242178163,-7.894900099903987,1.8522544603100477,-14.823404899192433,100.00332428091419
780,0.07099949357038522,-0.03209734094572021,1.0339051335465685,-19.089584894356005,-16.328584256192862,5.941500440298726,100.00682465011577
800,0.03551261144985563,-0.02748168032040296,0.9428963206498934,-18.355036885770392,0.27974633425407036,18.078506132037845,99.99446304839917
820,-0.005082252675283241,-0.022117930765498044,0.9040676964855728,-12.449415926517585,7.694857404493094,17.018431148129082,99.99365151344125
840,-0.0442096705631025,0.009305745225647753,0.83030691226778,5.843798992599723,-14.245519378395432,-7.173453763830505,99.97545873445006
860,-0.13403622579495372,-0.050657452843145094,0.9048772166383038,6.599379536438084,-15.387465292250724,-24.932285810957577,99.97685975136612
880,-0.1427108680839189,0.0005519695945944425,0.8874400819364014,24.734336828527535,-6.630207234625541,6.118404470095442,99.98695583021535
900,-0.10374005232338726,0.09907517858636224,0.8163574681673302,-16.36149374485541,-2.369601889725802,13.704774496191494,99.9920506489189
920,-0.18002322878658453,0.06085598244392584,0.8209392957648971,7.506940140075775,-0.7328567728437122,-10.295801404760454,99.96581208503179
940,-0.16007263853961679,-0.05535525966279023,0.7672617197431452,23.802005359227778,-0.8211649171758154,-23.457966655615547,99.99603021620004
960,-0.21570513963794669,-0.054952398197942946,0.8931479214909601,12.570067385268095,-19.34092884891709,-2.09473079527541,99.96884000979094
980,-0.15928410940757612,0.04554359493295474,0.9131311612978453,-0.19188157959431779,-11.779531491310973,2.26248174780173,99.97342257274772
1000,-0.26744692892109323,0.055932019520583624,0.9805994206407189,-5.913927266984885,6.0719712613692085,10.38255236948147,100.0481395428979
1020,-0.2237114940671644,-0.02883782274685151,0.9108791929545368,5.20804599959913,2.448759023677729,-6.324285819034564,100.00012731314868
1040,-0.15638927914835304,-0.016557272679232484,1.0048999690229226,12.909719569912154,-7.650688497745676,20.603037781468885,100.00945864432602
1060,-0.08899741711914538,-0.06711161796586655,1.0626209392480943,1.0455866704942582,24.420688319142926,-2.0389491979166183,99.96654561661565
1080,-0.0876302130437831,0.02370488942386128,0.9272757219635438,-2.4920159798896697,5.129248464549567,8.365471702571337,100.0063887231542
1100,-0.010960348817116437,-0.014163645514004779,0.9802208460535115,17.447880858759117,2.2190503239539425,8.413759246289075,99.97787839463479
1120,0.012581265028784268,0.030577434458793226,1.1074232382823157,7.2309182499933256,-10.185532598700805,5.3387534162531765,99.98043378406977
1140,0.09897072946917697,0.06185579229269235,1.078893501343509,-16.815291986555728,-8.109441618082663,-2.6801954634301923,99.97750468942225
1160,0.03175209753327703,0.02110837648831252,1.1323141304447393,16.60929836962932,0.49497503626552175,13.273747442309759,99.97867796395884
1180,0.17132584401837586,-0.03352451508675439,1.1795002918397859,-1.278983661674181,9.75409162600943,-15.916520891402145,99.9771670911529
1200,0.18030045950350498,0.06375457830306658,1.07873188989922,3.8480285670868506,-6.243823457920746,7.248017018007653,100.00139958298676
1220,0.18188432565437537,-0.03362505012542571,1.1627489249678196,-6.123057620099402,-16.854208035543508,-13.867685473022604,100.00994768197573
1240,0.3002034476380292,0.02240970527070245,1.0507152495536265,8.222672337086282,-6.092169017301295,3.066734216531887,100.00503774179647
1260,0.20472107852555263,0.09121999878821134,1.2400261899333476,-21.667485234171316,4.079425455078095,-0.15195673839893326,99.99728368443229
1280,0.18194054890347716,0.03785695796895885,0.9943328321386501,-13.44838762020495,13.728065302491174,6.078657194543032,100.00524303234427
1300,0.18680309602054074,-0.05024893898987427,1.0652221941915707,-14.186436038110433,-8.492785313863196,1.023165308605075,100.03315078583029
1320,0.1252755503260764,0.004248146874872298,1.0237019256814557,26.38263848745511,-0.057914848755537374,-9.207658926155293,100.0128628448582
1340,0.1318442737637117,0.05539322161437217,1.0293129295374355,7.5727274352575655,3.477996040121586,7.21531091713441,99.96958458066524
1360,0.03851611917125887,0.010616897954811851,0.960863224940908,-7.929994484707484,7.106656920137397,-30.080612166054955,99.95952416069905
1380,0.0495559575806844,0.003769831123345644,0.982319923212886,3.95461461057082,-13.57422834786913,-15.993610666383905,100.01261980281143
1400,0.0032699750456458877,-0.08237934776343973,0.906713507605089,-9.582562938326507,-3.770699532646719,-4.195134502085761,100.00421964449748
1420,-0.11044838560856349,-0.019574059630445274,0.8768276023913362,5.119002147697109,-11.27782034208126,2.108289032783678,100.01567655898444
1440,-0.08843220867331805,0.06029851884700828,0.8802256318133134,-6.128814393822287,3.236246066292458,10.069917924930376,99.96549061616498
1460,-0.13962046231108047,-0.0032788158293921028,0.7632627357448147,12.628778622910744,16.031450463508186,-15.496321282504535,99.993488886987
1480,-0.1728631969788523,0.006194779329211919,0.9345343921694859,-1.7849482856519696,11.04983351094647,6.682149523716014,100.00928262907036
1500,-0.21962203339068792,0.049957674316382004,0.8716258069904134,-17.65962383787817,-20.29341129271737,6.524974351027293,99.98501117507772
1520,-0.11320262417711831,2.3209667539218225e-05,0.8885401496925615,15.800399100372609,-11.197076450739994,1.0238260766470249,100.01677882443536
1540,-0.1533634068701453,0.054992320931196305,0.848608998584716,1.5695833440386575,19.795472959529402,-1.2157727619619132,99.99898566724201
1560,-0.23300466984387516,-0.07341124660797976,0.9180412103442922,13.066973757102602,6.51360973576924,-1.1341289109982382,100.02151465815595
1580,-0.20338382830532403,0.056638199737174634,0.9057257663162132,-13.39594388721708,-5.539113951020175,13.500986061269376,100.03395648621338
1600,-0.03955947171191726,-0.04875252809283981,1.04789273012323,-2.1086333540432167,4.680403752884535,-13.077974009015175,100.01177473717723
1620,-0.09531279852561933,-0.021553754524405142,0.9869487211462292,-22.730493887214383,-12.036160275627342,16.826756869198174,100.00875059940702
1640,-0.06028996870802638,-0.03270562851342152,1.0433160356188942,5.201065740119867,-9.45644095352131,-18.118311851384238,99.97148905949203
1660,0.007398834327801239,-0.0027079170364302085,1.019803001717243,20.426268119012164,-0.8786494586460543,-0.210152023336117,100.02992851759551
1680,0.014762357026214873,-0.03918107922977984,1.0874889709214197,-13.535794568053849,13.6521981203662,-1.9291551061743322,99.98613816195638
1700,0.059446067664718,0.0016328118620004943,1.1395188062059918,-6.183289780525923,-19.283237230763657,4.253314709316655,99.99405593059048
1720,0.23963964265533017,-0.02696001465876065,1.1688464832356995,2.107547261287707,-11.427206751232776,-3.504549401414409,100.00637364723775
1740,0.15267350056562154,0.013273577609943714,1.102224733161386,-15.35408591928953,-11.88060142751023,14.792754032356697,99.97725956221016
1760,0.10338816963967265,0.008052346127801278,1.1618164692196558,-15.90759144667063,0.44167080166132167,6.918575355795369,99.99817417225384
1780,0.09324084390751286,0.07367888673897649,1.1352288524584075,10.387837129152425,-12.758045448246655,2.3947895475959626,100.02644699979211
1800,0.22952121775806797,-0.017998858663081856,1.1727269622156513,2.034128208206508,-10.373625881623754,-1.776199423717172,99.96048823609578
1820,0.3417964156065559,-0.012744504479148515,1.082774325160016,12.268697728469766,5.6543639780049615,5.488914435001066,99.97411251686624
1840,0.16165675020552184,-0.013163709556317038,1.0918725756771441,34.75516446890928,-1.7287429208557321,-19.424383244569267,100.01072218760275
1860,0.0880935359772675,-0.017661502455352713,1.0802468997075039,8.82141327657475,-0.8666115601633007,-8.14381591234951,99.99486623679988
1880,0.1621151381265504,-0.05533546513653407,1.0081734714228072,-5.169792914904343,-11.801334176241872,0.9135063067075999,100.02506272874393
1900,0.04284408055829958,-0.009846403659122288,1.0135990518751414,-7.674019722530394,-8.934717398225434,17.53283720769994,99.98044043515259
1920,0.026164257378879438,-0.000764738616743354,0.9212054922694041,8.968168657843007,13.647566817567185,-9.55580938938137,99.9998398300708
1940,-0.08080203161512725,-0.07772527486341392,0.8827053887944165,-9.973570902082056,-14.634923066604173,6.940961295650954,100.02623550910002
1960,-0.0731835755261327,0.03598923976698593,0.8734509404494823,8.326637751867027,3.2024970660287515,6.683893071409178,99.99771395378963
1980,-0.0502691167220551,-0.02689742721177085,0.8880926111064751,15.267608543087306,-3.915391172024803,6.66766542376,99.99797998387692
2000,-0.05432816397628987,0.012794660292794656,0.8178131352321072,-10.078855399835355,-16.560314242047564,0.11305202137929973,99.98795522349829
2020,-0.15400431794911468,-0.006295705868890173,0.9419068486346959,-31.797943520434785,7.375368462622644,7.693735862840365,100.00405330514596
2040,-0.19555181113917106,-0.0003779264441272118,0.9364305886223243,10.547369248038628,0.50429537681635,-18.52567938014389,99.99590944429393
2060,-0.20805489687381104,-0.05790461483487844,0.8380774111159572,-23.499960621289286,-8.509148706615493,14.159096316695148,99.99391873919676
2080,-0.24938047939461466,-0.0071160546021583355,0.8701421934007784,1.596835448869156,1.6421063787260497,-22.63732578506043,100.0355778483881
2100,-0.23038514502261664,-0.0024351235874575474,0.8005920603867412,20.38085669498156,13.938305745008176,-4.519162582601571,100.0203298361892
2120,-0.24274713171619364,0.01520875095235416,0.9188914444903848,-8.813028856187582,6.090777718298826,0.7625688943368817,99.99052137396428
2140,-0.13579095803239233,-0.018691391927478845,0.9760639012890048,-11.736996269619473,-11.120850679865459,-8.801024858621986,100.0372224044414
2160,-0.2118188398912268,-0.07448276221571316,0.9396133485948884,14.059168481862677,-12.256661163120562,5.2491832409215995,99.97503957626705
2180,-0.10467462587054904,0.003975263772348905,1.043588860375866,12.404728692068241,-0.2761893444817968,-10.038083856874625,100.00318275914324
2200,-0.03530910116377533,0.013277562143057177,1.0583150378135147,-8.636290363872476,8.586464921168112,-20.3825165990023,99.98485600819149
2220,0.06971312988414907,0.02351597792106947,1.037888942350569,14.286681704956248,23.5839854662263,-19.953719552441253,100.03803484169934
2240,0.06272234186617147,0.04607993068335421,1.0820333681853729,-26.577462591148503,-2.6822668884293335,-1.4665811825520239,99.99458598601795
2260,0.06080761709377387,0.0012486608907868724,1.0700166111185645,21.013767649871838,-12.02144578918561,0.5615020955503797,100.00892861636302
2280,0.12716644627494775,0.0319584787884585,1.1252731180453168,0.4017720046007011,-27.01666418539467,29.730394095064305,100.01233888026172
2300,0.2073594146239841,-0.029661062587359954,1.076937125507349,4.422954918001391,-17.30595751656657,-17.212075128614256,99.99525366597562
2320,0.18825293138407728,-0.0017331804025685741,1.1092619012850669,3.3975764448945447,17.142139877364627,2.1946099181824206,99.9567529767043
2340,0.19794944697914327,-0.07507569320348594,1.1551662870988628,13.224408660591031,-18.768166104204848,-8.38709612733216,100.01685248514158
2360,0.10142433862123881,-0.07259843114187996,1.0823743610691354,6.007089223332013,0.24263284399290988,-8.776449741725727,99.98765704228707
2380,0.24373701973750106,-0.10134049469516795,1.010731253041224,-22.109211193609514,-11.540538837867716,-4.769720392119762,100.04085793633836
2400,0.20448991994233034,-0.0002579948510527367,1.0753939124460623,-2.4775945455474937,-12.541916780670878,9.933587715871397,100.01737389349698
2420,0.14967450507916125,-0.027279435980662643,1.1245619189981808,-8.416986421718397,0.5173350216367014,-15.804888703645865,99.99727898536226
2440,0.14215043800411187,-0.0182519630741724,0.9764567025168376,-8.446311766621754,-1.0160445388268262,10.606318823368232,100.02256812594332
2460,0.07032638422405438,-0.024098992309880215,0.9544476291117392,-18.539459198628137,-2.9788860937096397,19.016042884565064,99.95971797248427
2480,0.018532326315227148,-0.08132761279485218,0.9954631803848515,-12.718876485004067,-4.627471025315265,5.345900289919129,100.00694302588667
2500,-0.027967355544206415,0.08702105040835548,0.9147373302160537,-8.159362686910557,-14.022075541716283,-6.171089780303896,100.00125880773525
2520,-0.1498570138560983,-0.0675401974839553,0.8298838686109647,-4.284702209785102,12.780625153917864,30.709706337537124,100.02221369282357
2540,-0.043532663620102156,-0.009374176839901091,0.840258173453724,-7.786148977187573,2.247126667245319,-3.157225709106675,100.01139846761663
2560,-0.13313401286481155,-0.03711044300728761,0.9507080332846962,1.115192762427748,9.302408302821132,8.482727081760647,100.0257517984828
2580,-0.1020415648303743,0.014533541295730338,0.8133134579887361,-12.948004358497752,1.2500414747131043,-3.8558480411293057,100.02962313152223
2600,-0.16429560812577837,0.05052225901991014,0.8312553991555207,-9.002605828747198,12.009737508912284,-15.289089632687528,99.97448475296122
2620,-0.1891761496428101,0.0011550365257436805,0.8186234272284026,-1.3443814112987194,-0.56088466271874,-7.034798978462983,100.00280101155329
2640,-0.2062612027120037,0.07220193500120345,0.9287191986963709,-11.11176449420828,-13.742381343152488,0.8204349610331261,99.96866779424465
2660,-0.22165699084243567,0.035674664712784264,0.9739283660576392,-15.83550764415023,6.82999751324212,6.367921736741804,100.02023409770163
2680,-0.19963143736550648,0.06069546726184632,0.9796416686578342,12.164619395878441,-4.439057394110279,5.534034988101792,99.9785927846867
2700,-0.04706814887848877,0.02274882667795163,0.9940498218179898,8.010161613326549,5.99076067219803,1.9508143892528242,99.9894462444165
2720,-0.13922330078111148,0.016345417513972275,1.034453164086645,15.127629851444313,6.525332215934815,0.048814583041449144,99.99147283060182
2740,-0.015686993768512084,0.04676007219003778,0.985133533347419,-0.6619205970712447,-9.139470553882818,5.366149895826859,99.99994945570076
2760,-0.10570215050032147,0.04547637938440999,1.0768848936366937,11.329869340652378,0.09727860350835904,-5.306996295767988,99.99246121818784
2780,0.011983641171483754,-0.008249482175595565,1.059813913663752,9.321994401907158,-21.741390186728218,9.113754068803754,100.01893568145834
2800,0.00043341324295659983,-0.08509560917777903,1.1593411713085753,2.841140964388982,6.427637909566231,-26.752494343254916,100.03318082187249
2820,0.08863474901074558,-0.020163932494227793,1.1437305181165878,0.10033965054865547,23.763467021358565,13.56984044674709,99.97636837185621
2840,0.1574003794589073,0.060284231525471355,1.2185120818806252,-20.3013112495879,-1.8693241257624362,12.528489267971098,100.02524780416117
2860,0.18757351103181652,-0.016078629354452492,1.1465225976521354,2.7053459822830717,-1.0006678294511946,-15.071024319490018,99.9816329752719
2880,0.17537029395042236,0.0178952947310677,1.084122171642405,15.397412280692572,-16.138004182142055,-7.216940533473732,100.01667754246738
2900,0.08883904374785667,-0.05620200338662423,1.1319361540541393,9.054426250040674,-10.996777444912036,-9.433077009683526,100.01284391618856
2920,0.16832237125422655,-0.05539248255754231,1.0774391178804008,10.980539910041013,5.1892043416556355,9.974996573785948,99.99869876747154
2940,0.21549809988827826,-0.003421947059690609,1.0695381379007292,-11.625594204068316,-18.269489167700453,-1.2989359160892864,99.98854628014499
2960,0.21914263262788428,-0.09594488828246044,1.0473781969797613,1.9537220688334012,-0.6318934296502254,-4.734490354776234,99.99430686697784
2980,0.09051961176761775,0.0018815326200340534,1.1138651589079032,-14.871895947206555,7.53813724097966,-12.405845931099734,100.01638223561802
3000,0.11430699878502973,0.05924217419121561,1.037134422877062,2.01528434487145,18.25506323312549,-1.204004079316444,99.9999957060563
3020,0.1322942984210228,0.08113240664936897,0.9679031545330419,-21.45367962354789,23.415740762234908,-13.410735474699965,99.97209593738683
3040,0.05216805635106529,0.014094333110625093,0.8821457726385127,-8.288970535713243,4.388705976044919,17.62620455989377,100.01105225282964
3060,-0.03908627594966247,-0.06473989571573574,0.9096913931897654,5.797269891705935,-5.3256954854168,-9.511940351758327,100.00131305196857
3080,-0.06217011930451316,0.036483208106634184,0.9328991037857632,-18.039983643501998,1.7871344943324172,5.95572243735978,99.99093160017506
3100,-0.08399138767098044,0.021099259285586716,0.9536814775370307,25.10464196559338,4.030041459992095,19.038819036734278,99.96977106010304
3120,-0.23122750633888792,0.05137563299062586,0.8159358520842988,-14.040282048547455,9.746000115691842,9.701113150459207,100.00262203830917
3140,-0.06251982140339307,0.019311428120237818,0.8794601956980386,-2.3610040278117315,1.9384266018587202,9.453986586587645,99.98512316910781
3160,-0.08314804263604753,0.011584150124974508,0.8785639635393326,18.508513783816767,3.7487182067971108,8.805363867172211,99.99471946416466
3180,-0.2614798635303575,0.0038889150497916215,0.848852562249508,31.604331606494902,11.259443573967918,-9.94996481072048,99.97521139847079
3200,-0.21515419320935747,-0.04246394215369825,0.8406193274507231,-24.610659004643942,-6.230177796992411,8.6479424345634,99.99736962171306
3220,-0.21833376835957913,-0.051122799262286425,0.8794008040595562,-29.605382019037812,11.136000928026323,6.652524737576053,99.99829388581496
3240,-0.268634314803646,0.0073676256116723855,1.0217758279206233,1.5495252912115207,-4.227425912057436,12.890095738638536,100.02034206770152
3260,-0.22107866380189817,0.0037533976498455644,1.0770406654946758,5.530847428586083,-17.591482798644808,-9.651956429531959,100.00127756209353
3280,-0.1890667655598641,-0.09665933107939473,1.0222119651757378,14.933802767134068,2.1901581675477444,-20.38226758234569,99.98893626870361
3300,-0.05869782920976782,-0.0366203278821273,0.9975089364686085,-20.50047894635917,21.61122540224426,-11.751717673663546,100.02818432106854
3320,-0.04417513574378976,0.004089859531872293,1.1083299712788752,-13.864345307500386,-20.803714737797577,0.6281026976946686,99.98772136766623
3340,0.0018264336732645194,0.04291797358792757,1.0961651140226076,18.85273440289366,16.371448848455238,17.222808769048335,100.00332129931199
3360,0.1319597071256678,-0.02327962571740148,1.0488167987367327,0.801870687875403,-0.5101617733445112,4.197976392188694,100.00927543083338
3380,0.2162588096613058,-0.034001888602758025,1.1202114858781322,-7.183620924221154,-9.715990263327921,-0.9093707859684681,100.01313669112366
3400,0.14324168189854855,-0.004417062621521268,1.1697873805484764,8.02212905130313,-15.055036720136307,-13.030893870142844,100.00142267651809
3420,0.12899878489055266,0.017152292296131084,1.200869875174829,-15.994049696480197,11.44173246947852,-10.060697325923995,100.0268308870646
3440,0.22558997310911735,-0.04383785336249026,1.0558894654549986,-5.849567756458073,9.482119399179876,3.9848675423941176,100.00146305757418
3460,0.16615851419825006,0.054061066956329264,1.08104487083079,8.087947893786119,-3.271108588130798,-8.241864424536208,99.99757578220053
3480,0.18571934322609004,0.03305073009213413,1.0678423732846365,8.678010019031039,2.713864820133964,0.2251365364074191,100.00576477678504
3500,0.16581479551809858,0.05645174199304246,1.1182018311119661,14.00105597418519,0.18378621198434975,19.178315749920458,100.04777327746172
3520,0.18494539447556962,0.0005168471870956944,1.021804150744853,3.2605948936292792,-18.379115455743296,-10.09151012878237,100.01558908814762
3540,0.16867999464134353,-0.039959977163232574,0.9712594069873414,2.940649530327306,-17.116532023343293,-30.165650808823756,99.98720410809028
3560,0.018188678571760028,-0.006822361744396401,0.9911964543336845,-16.088488807363454,-13.934427438087788,-9.630233512021388,99.98113640268136
3580,-0.006002543391744261,-0.025732586209093675,0.961132335094465,-28.866178690888134,5.42585206335355,4.544210393131263,99.99412429168062
3600,0.06290083440343724,-0.0025574691803866186,0.9868823963868902,-9.841526055216363,9.058117362855185,-13.762194227889324,100.00673406840289
3620,-0.0868251498049652,-0.07979481251935971,0.9468682969393468,-24.423279426352792,0.9847092366655975,-18.84703193058096,100.02189455960192
3640,-0.06773255140205907,0.06614689873669516,0.8294235572966971,-17.781147930743092,2.188236851616507,-2.4895153320459746,100.04045382099488
3660,-0.03431649535286231,0.014607145097545167,0.8420888734345843,22.526838669166505,-7.214763829463568,7.242356090656351,99.99854679543631
3680,-0.12910477627976447,-0.03126129619278446,0.83889109061415,-1.6694176727913335,15.665937577300861,-4.834613655057357,100.0023840687202
3700,-0.17037731436121573,0.01338786504855043,0.8789013895356899,-19.041897807727068,25.458979258089386,-11.082940104528607,99.98748275181745
3720,-0.19610434547659905,-0.03785120843503223,0.9590177274885872,-4.463910630163108,24.16742323496299,-0.8248969910674238,99.99677449269142
3740,-0.2149182182755732,0.025958227092170823,0.7865945110263484,-3.020013095718064,-4.300966950732147,18.005114386950996,100.03103218301271
3760,-0.2810491780057851,0.010496523030249368,0.9247684034738918,11.753444973705992,-3.2442682041810587,-12.703552396084108,100.00688912472825
3780,-0.2605389015784123,0.03737076428699958,0.8541591187556343,-5.689427697635989,-24.47744622691927,0.6614440173181156,100.01487453650881
3800,-0.1316998043606861,0.057554672590617674,0.9498106455220853,-17.448641275154735,-5.862389873591534,20.0297852102313,100.00970343516911
3820,-0.08182657120855708,-0.0036246167976071936,0.8696181678345998,-4.239088478563088,-24.303551311162607,8.814234000951439,99.98714033044158
3840,-0.07151624820927056,0.0060751703288219674,0.9739531073472087,1.8592405688474454,-1.1812953938376218,4.7951689962113555,99.97859049633381
3860,-0.11790472903300331,0.0324142461161055,1.0149251297297441,-0.1027727002432427,-21.146917351192037,-2.604319744367695,99.98427649143369
3880,0.0015191167958960444,-0.0009956506809204516,1.0179942105518491,18.90490625438386,22.614635879970052,1.0485919560930297,99.99305961269017
3900,0.07210610901354254,0.02261168501313105,1.1168883861524954,13.067376462865488,-26.60882641312452,5.9108776897147886,99.99440870229455
3920,0.07264893725698988,0.010600645782734681,1.1192067342995817,1.2173004862617096,-14.79113500177818,9.944529218129437,100.00408467064018
3940,0.16642348148797603,-0.018720025958517156,1.114408720760352,-13.928992479654877,10.531330605475974,15.691655260843504,99.99221654226147
3960,0.15607122784794256,0.032494089049166536,1.1207415988610223,6.98829929707983,-0.0824331518205251,7.103882980075091,99.99071258232271
3980,0.10389874730682111,0.023135632812049892,1.1737707347909294,-6.807437642266677,-16.88665797133799,8.38313803148855,99.9990135694035
4000,0.1501116356207852,-0.04883827902503196,1.1933874837877363,19.308259968435447,3.27143672702221,-12.870894543951671,99.99792502448403
4019,0.2585947533861058,-0.008143666985147428,1.177788690355241,4.133484699584079,1.025447194085844,-7.4187157543695825,100.00186569940719
4040,0.23658416202668098,0.028446072625204172,1.0841041652140926,6.6324006901483274,-4.452843040368467,-3.4040025212809697,100.01772704278972
4059,0.1793561732127202,0.013350324732795987,1.0411132331650812,-6.424623780763982,10.038486461190898,9.534375287709416,100.00415398529161
4080,0.17671748261152673,-0.016668117254655532,0.9733634246529238,12.006477937043432,-7.607890308250921,-10.642600502373282,100.02176282822698
4100,0.09212471377032527,-0.002248042537712895,1.0013720156742527,5.368877487677471,-16.26722398390463,-0.48329315573547976,100.00149577262356
4120,0.0892959915301123,0.036882168579346744,1.011040907019193,-22.718518379678585,6.3065248522794,-8.884704657374929,99.98826284070638
4140,0.11333341859961117,0.057647949582277674,0.9186490566162098,9.478617329398308,11.772671440597334,-15.565117257723248,100.0124572089247
4160,-0.06835432528436405,0.10990451191880111,0.9965266707301296,3.8259836805367584,-18.647796538212923,-8.90251149285719,100.0024210286845
4180,-0.13144165084658943,-0.045308009608370864,0.8973153803756299,-13.493706268913872,5.235571769864088,-10.800023057029577,100.00839880287154
4200,-0.035531390081088174,-0.007326377426940436,0.9002730675808813,-25.110447132831027,-2.726573995427236,-10.408282562339723,100.01963449444459
4220,-0.10372997309388801,-0.03328829810468523,0.8869589826251252,-1.3128972574760223,14.201377573574165,-2.488874877034532,99.99187330110165
4240,-0.12030812953090746,-0.018684436106099874,0.8522533918478173,-11.500367979790227,-5.119107040945962,8.721467989184607,99.981378244552
4260,-0.2103014305719947,-0.07649063389485511,0.9009792033936317,19.504886515900825,2.6961855081994464,-10.509959116584668,99.98064682541404
4280,-0.25919898142157693,-0.11276025295714087,0.8167372606552535,-4.609026800208493,-2.2248717202292045,3.452786173178076,100.01428556193044
4300,-0.18672344097115556,0.030821414398495423,0.8997006158096946,-4.9243815534453255,-17.50521284596181,14.933388686959928,100.0138822463585
4320,-0.10060400745646039,-0.0008081521154945997,0.9213793146363087,1.193201561100553,9.957188093905515,10.465729033126504,100.0166579684324
4340,-0.08168560908378729,-0.003377132698427857,0.9613301142507237,-14.884747942458969,15.201964271597173,-1.6368782798072896,99.99337026263011
4360,-0.11826502438339079,0.008751337956508336,0.839531201803873,18.17697892254277,0.16253106377711796,-12.406591751692298,100.00577877432974
4380,-0.1688230034311491,-0.05929735664911278,1.0308988829082066,-2.238408551615899,11.010177521204005,12.350885673218292,99.99244522308288
4400,-0.08058859220761172,-0.07876848047504302,0.9861048385624597,-11.299474780340306,-21.82856687608508,-11.591528141827474,99.97937806257949
4420,-0.14019025237921812,-0.03145025893722508,1.1215691334649718,-9.097202419792206,-12.088601022488957,-33.142121916746326,99.99970553403122
4440,0.021114210882648567,-0.009945814958309604,0.98595903454577,-15.57053625941245,17.574833588622685,15.338944529963248,99.98953321513763
4460,-0.030907312621939853,0.009963373079725165,1.0080871520118788,4.202474768736767,-21.254716408729518,-11.36817418831398,99.97388839472836
4480,0.10904854433222005,-0.05752767783279479,1.111275285886987,-1.3729158062731812,-5.031813689609033,19.149884341417195,99.97632803787289
4500,0.07410383084794112,0.04568173949593207,1.1607957248419902,-1.299197006416802,-6.9282567786051485,10.565187113452888,100.01292385447277
4520,0.12827267209118642,0.036565521727884014,1.1082469472504848,-6.801913848815911,-5.494593875654865,-3.453722183396285,99.96883749356216
4540,0.23044775324048283,0.034852329151671926,1.1261889210013432,-2.12908385487509,-2.514707755741286,-0.6622430264347205,100.01083272414157
4560,0.2758136930371105,0.04248972742110021,1.1818864656546724,-3.116410309018442,-16.07650294936173,-9.080905634619242,99.98356902338392
4580,0.19136293802329063,-0.019638509995820962,1.1714093577946434,11.307732748367014,-7.951157341310974,9.892509653221722,100.00229973516026
4600,0.21718547897291327,-0.005785162583276229,1.1018550106110205,-0.9403732464271476,20.669073181022334,2.8322936812603596,99.9951273923626
4620,0.18192524671083718,-0.0020482868726456275,1.1157407157556642,7.3188581084911455,-9.247676054502438,14.592436633877861,99.99371279828492
4640,0.26848280941807934,-0.07583279926918161,1.0391689334126664,19.635316645336548,-9.038715647208331,-11.917313276697262,99.98751061675765
4660,0.07006942154075685,0.03504531759999551,0.9843371661722743,-6.245215601599956,-15.905511201853017,11.284279488191368,99.9969403255907
4680,0.06227359919359926,0.042569918601842754,1.0520899696577342,34.675704649740524,-3.2073342229236266,23.75401797785397,100.04197644411659
4700,0.09083612217855097,0.03358928548888161,0.9876475508960608,16.887143016823437,-9.995351600539383,0.2877981037734859,99.98945332285147
4720,0.060437141428298535,0.06956493426469426,0.9438499974346911,-23.09830723550012,-7.9899907460909585,9.091294063728258,99.99607766640598
4740,-0.09278871981362379,0.013962092562005311,0.9846699658156074,3.3979389033898197,3.16162933345562,13.278803897803048,100.0168787996586
4760,0.008273915158438852,0.004420776737179616,0.8635029528596496,-12.637082031388644,-4.467280840360416,-1.3510683960064913,99.9907012755059
4780,-0.12268512917508063,0.08106088113995098,0.8496661819192087,-20.362532193167684,15.814809476293416,-10.667577148797644,99.98578304249271
4800,-0.12307361062031115,-0.06370837084693154,0.891992689113956,15.759522179536699,-3.1902036036758235,17.542522205544408,99.99907938282264
4820,-0.17080234811352119,0.014618730991880683,0.8030643448182586,-6.573143794840586,-4.338250766978922,20.104963127694006,99.9719456088575
4840,-0.2283833548823334,0.005127144480128219,0.9234194806452054,-7.694364213829351,4.549953049382582,15.320157425675383,100.00857578699011
4860,-0.1322980018972134,0.034462604105190565,0.9034082305495884,4.395307939077421,-7.0519791838778865,10.321091819731656,99.98555354372876
4880,-0.24013580861993233,-0.01139634175849509,0.8655757639999662,-0.49337311462485134,-16.14385659534069,11.185515239782479,100.02333270821892
4900,-0.17728022471649896,-0.13257759861684382,1.0274847581419333,16.05997206851832,-2.0918197520008803,9.049474086232934,99.9956326403847
4920,-0.09514564430087796,-0.10723784751017712,0.8955059502447428,10.294500675099886,-16.9904946886287,15.117357323945924,99.98743025096171
4940,-0.1773441385898511,0.07508056734157625,0.989866264777732,8.415974872782112,-1.2258056610440242,-2.9069284727736884,100.02035803525938
4960,-0.14764300350721013,-0.03600255279793958,1.069474890740541,6.640567001405417,-14.364075548970103,-20.711227086665442,99.985904476431
4980,-0.05358260650548467,0.0680871059980258,1.0887669037896928,-3.0121591124460494,-9.704517912791665,0.007770980406474323,99.97101348798039
5000,-0.027438757882601986,0.025413061990208697,1.104034211313889,5.348303827863171,-9.293483365297677,-8.144140604301358,100.02358703133335
5020,-0.02137587409693311,-0.008351331126097582,1.1174336311455957,5.142440577399885,-8.018798128244413,-9.121772398418466,100.00658486792193
5040,0.07922620476551305,0.04947648972773269,1.1367831904899401,-12.833288353161498,-9.32758383182379,8.973643872050578,99.99259761954892
5060,0.02720560739955706,-0.032644557839567136,1.066412726651155,14.097210520049456,-5.476578983844799,0.052098727151165175,99.99913314883999
5080,0.06292919256936746,-0.07475590409646321,1.2360819716982099,-19.926622551383456,-2.3799797713076414,3.0093790147979798,99.98468654941182
5100,0.1878532956338817,-0.01707883202956041,1.2109799556167926,6.839814027915452,-26.240938059452873,0.8640799948685045,100.03335303191656
5120,0.2017535527784082,-0.06667215658760667,1.2445132216797203,-15.62008436420605,13.942900102911748,11.514393605865465,100.04037411992114
5140,0.2391179097150013,0.0630156023462448,1.1024026190835348,-17.106317025876525,5.399951281672399,-7.82528794537605,100.01842352147476
5160,0.1074907427896036,-0.03412422832655399,1.0557957848752162,-6.895807515122547,8.476207300445761,-7.053780808296892,100.00874970391123
5180,0.3019139022824118,-0.023289485626731665,1.1233821701213051,-7.462441664822947,13.62506510468404,7.269134840253114,100.00377396174844
5200,0.23064650105002188,-0.1098670587987105,1.1195108365986097,-19.035907616028144,6.1431792780785965,3.5327497757292807,100.00355124522763
5220,0.1133927689324159,0.038871551931867254,1.0287970879040673,7.414074855640747,-25.65737569776649,-14.759344212107152,100.00649266079543
5240,0.05737418169249274,0.017243755458833852,0.9038213468718664,-23.72578028364031,2.8410463062500853,-11.050365212955828,99.98637757956992
5260,0.01490694196841303,0.029758881450297637,0.9826766615098174,7.998716102383968,-18.31712504984286,-27.397307468121085,100.00599387434687
5280,0.061845667036591556,0.025586783989137846,0.9538960921844423,0.6368514923844568,-12.365225970222335,-4.694080316405722,99.9793283331283
5300,-0.009820713529744021,-0.0022822280482154384,0.9060030495852673,15.521136548721731,-14.307735360537572,-4.254488634663499,100.04513492250467
5320,-0.09085757412464582,-0.0018900227550709314,0.8454003190772816,-4.166584301641706,-13.399898351762893,-2.6324332283819354,100.01556892299516
5340,-0.08924776080750857,0.10715942477969619,0.8308571993518297,-0.28158799274173985,-21.300006305457785,-29.196817354259814,100.00434366479332
5360,-0.11205428564231679,0.014372492959817238,0.8880126168299184,0.9254337791902143,2.642111352609589,10.845153970924795,100.00523384215779
5380,-0.1634818436009399,0.003589734391328003,0.8130217730598179,11.176069677808556,1.8827064717925022,-4.934779896880223,99.98058709516206
5400,-0.28196839339308205,-0.04059288061861101,0.9153909154619366,0.2900437689769097,23.42347205510923,-6.926223640105713,99.96920106079942
5420,-0.20642409207563056,-0.0021081764659813844,0.8648019907564463,9.24212411675844,11.271080808648804,13.161849530976404,99.97489693319854
5440,-0.18386787730882898,7.45073256328675e-05,0.8763718567197034,9.878884104948133,3.101414287599419,-16.860458427780557,99.94399573509732
5460,-0.09092996804751352,0.07107814456531023,0.9854884062155737,-11.990277249686976,-3.864498071496398,3.7270005046244967,99.99425932668686
5480,-0.09362157273553648,0.04125718083900998,0.9879313650092498,1.7497750442101827,14.649830737206006,-13.975815654623895,99.99407291504562
5500,-0.14660252357466336,0.06981963720195893,0.9462246906890107,-13.911605686685089,12.998968591014066,-1.4127205808852163,100.004026171603
5520,-0.12792141196828022,0.03846633745924484,1.0078039332635695,-1.4439279354324703,0.27143309735713034,10.735672881572336,99.99748651902851
5540,0.022333727466409423,-0.015609147916147467,1.0394602581741212,10.121948902373484,7.9705800455190685,29.572770040384626,100.05339456743707
5560,0.0070975385663925635,-0.08047186697043188,1.036072017927772,10.622490625651617,-6.1855865161436085,2.181641599202715,99.97716325872818
5580,-0.007060133790947491,-0.04450693321202651,1.1535336219451553,22.589001446070817,-13.580144038030841,10.169631039076119,100.02385986509502
5600,0.17611254772585833,-0.002680642018347253,1.128675257446296,-8.1295553152657,-16.059092536351603,-9.28159910923014,100.02876061223898
5620,0.09175225304730483,0.09599709980400435,1.0947937425319016,-2.0803946861910507,14.531377124007422,-8.134535171194337,99.97452996815436
5640,0.04548475731120122,0.032827459702456714,1.1880393943945764,18.46316778621178,-1.3158961913518719,14.114778360886902,100.03045653093308
5660,0.21104552416130007,0.06628463893681732,1.1112562811780522,0.47632189503243577,-10.655372691188408,19.68541955549814,100.00309964639246
5680,0.21769951222676243,-0.055127315836774965,1.1340993875589966,-8.517930020524016,-0.5494926718015144,19.57040845176132,99.97773347775774
5700,0.1339862533380234,-0.03637604767369242,1.1263603445135526,-24.069282678262162,-14.738283924998445,11.373067928844883,100.00093893871329
5720,0.1966195380168099,0.049170294028496694,1.017208948931283,-9.274854797193049,-2.1883495802581963,8.21916654116794,100.00338908691114
5740,0.18331528832825275,-0.003754973830038314,1.082405931988769,-28.07396144047988,33.413121883110186,3.9513861357802975,100.01497582373237
5760,0.15387540525520038,0.040285746536362035,1.1848251169464343,-22.07234785345978,15.733197655940453,-8.883295557963809,100.0042264995722
5780,0.1202184916742022,0.025372863111139062,1.035315556521491,21.924814325644245,20.94021756126093,-5.315076398642668,100.01321448917733
5800,0.06453209054944149,0.026009591305192786,0.9849304592210402,-8.703248073860259,-18.547169301565198,12.128886823545994,100.00111482571165
5820,0.13414496709643187,-0.026403047282195436,0.8651618738393392,-12.138990754337112,0.8830019393080435,-1.0507333998728476,100.00283254130397
5840,0.015438206319383904,0.02231401029178368,0.9040239583816951,2.711922284235057,-9.19251846393227,1.3633922534775569,99.99536341054697
5860,-0.11905036989251537,0.10328655887661822,0.9191586949593301,-9.325631569380363,1.786481875173358,-1.5168294817240406,99.95240565512958
5880,-0.10379331658708389,-0.04026554342378222,0.8567474580119386,2.21634211021905,10.825742812269322,-7.277002889814897,99.98366174952282
5900,-0.11078396697457424,-0.0525627176302796,0.8352601259936753,4.806231612585203,16.346075877834647,-1.018943951676035,100.03606657058022
5920,-0.21719956350402866,-0.1038769799803188,0.8310880211545795,9.032598250508613,22.10585672747873,1.6722362769877754,100.00254674574231
5940,-0.2058263029074119,0.02664634229789232,0.8422441180795676,6.685339872079286,3.1881798012302083,21.556765300615734,100.00404116740445
5960,-0.2532222287315496,-0.005582232096062351,0.8171634349349164,-16.583611446427412,-2.434035757435593,-3.56127853664347,100.00433013159156
5980,-0.19749102027908613,0.033945658568668394,0.8614737195877257,-3.8007520335845,0.695279349249099,5.69703744616844,100.01316559867207
6000,-0.18495404644335242,-0.0401393853907995,0.921678910056956,-4.062486309416881,-9.772270431490522,-11.947331518826578,99.99742194374019
6020,-0.19719464236598894,0.006373707197749736,0.8929834418056877,17.4548140947521,1.357876194628648,5.897137120001249,100.00354853520389
6040,-0.08084200282924493,0.0022880945836011466,1.0016360276550083,12.89005517422203,6.204453422452397,-0.19980741731152735,100.01708444436284
6060,-0.18195770681145762,0.028311990497849146,1.0261981018681363,2.7462753428354922,16.970968401954266,8.110906219087113,100.01044497411704
6080,-0.08758753975517312,0.10209745675809082,0.9846812959407569,3.4782931815055527,-6.919875985925977,-1.531679254967505,100.01089366591914
6100,-0.031121405429606102,0.004249643337391329,1.0500809963095028,-11.598440771147915,-7.082171463745025,-16.704979961994464,100.01624306591135
6120,0.06330812520319827,0.026483544850704602,1.1125520107250486,15.115120235674507,-0.547223629220633,18.91974459962677,100.00933469485075
6140,0.10776835963960764,-0.10372159473769381,1.1109220838900684,-8.510939060253428,-8.090302160882196,3.426831429540621,100.01635449706416
6160,0.16189501107895177,0.017108930683084025,1.117178548344047,-1.715178523743052,-8.976839840554412,-1.413036876103665,100.00148352103042
6180,0.10356877862156347,-0.03679814793784763,1.1357325647556988,-2.541408056712171,6.641853859312551,7.938365375033673,100.0437590831815
6200,0.11468325688283171,0.018831180058284214,1.0527868707232813,1.6837632424583635,-2.439179691321291,17.76997993856707,100.01180087750203
6220,0.20767346715138674,-0.03023920800801368,1.164025653920102,-5.351913285158679,-17.575109059955885,11.579128866899556,100.01255974875262
6240,0.19639866140142553,0.010411794752727445,1.134793232013425,5.14503194538087,2.4039318216470082,-11.759166987029106,100.00479193297276
6260,0.2829280698026133,0.011968112309329508,1.0664953607211305,7.754279692037919,16.60765799869657,13.607332522138208,100.01385665326403
6280,0.13421618039360766,0.03278721133120742,1.0282230140484154,21.19034412686105,-0.4269875815681974,-3.5629794689435257,99.9969123638876
6300,0.17459979711436596,0.004815017241998918,1.0463711557440556,-4.980438730533418,3.809199313781713,-13.09928225369785,99.994035424215
6320,0.12958589742277266,0.08229346754919899,1.045337083689993,-12.103828695629275,21.567238872948877,-7.244285562300691,100.01029233430637
6340,0.1425557714682661,0.01899829649911932,1.0104315977661409,27.4050746669137,6.07333223717103,5.776573991059341,99.98671393730588
6360,0.06408389853060326,0.12301560140164214,0.9650870672043137,-5.104244107757378,-3.932983639061232,-7.936401159839921,99.99887316472295
6380,0.10164157091907493,0.05942971392080522,0.8956941360056169,0.6354116743544704,-9.408016875449444,1.431884366281646,100.02363819462433
6400,-0.030404192749086394,0.07422909559756301,0.8481839172008372,-18.0277515295739,-14.686911500919603,-5.229897967668428,100.01197920378387
6420,-0.05247816113326822,0.019152417351156734,0.9701187282859649,-4.193270243702385,-17.174087430471264,-6.423769634682573,100.00999004261304
6440,-0.09688562323186034,-0.014062586297167369,0.9545517356363451,-16.183461370032266,-2.031039425315761,-0.5633649193859932,99.97719308114557
6460,-0.11276854530676572,0.08675963842367779,0.8701188191329602,-8.153918638358178,-8.58637024444364,-13.913342345073534,99.99091958656128
6480,-0.1950844989371071,-0.04497148660708516,0.8763440347775365,1.828410670587691,-7.78629557230443,-4.671872077481216,100.01947711650034
6500,-0.24770653729443873,0.0701097818363176,0.8305103141280846,8.283527371778549,6.09832924896704,8.69569889894019,99.98656533926149
6520,-0.17690389697393122,-0.0017921464276582364,0.8824130246326791,15.737436292619131,-8.378498921206043,-4.571081925812018,100.06254231803271
6540,-0.22017928474396792,0.0536086487081623,0.8508212910313215,-1.9109173852590917,0.21206995343024587,-5.541922019000592,99.9834523556819
6560,-0.2291240340743652,-0.09479348881078252,0.8434931029185708,-7.420546408398788,6.15655036338778,-15.994256128675138,99.97248388223373
6580,-0.1674355363475927,0.0840063580787971,0.9887992946425115,-0.652967950939211,-4.78738920035334,-1.7193394121887189,99.98573383941232
6600,-0.0678314612295662,0.03677129034130615,0.890914876820324,-1.2526706675778125,-10.217004544059558,-6.202113198494774,99.96440299439718
6620,-0.12480363844814708,0.031347851917838454,1.0038071905957937,-12.217368159859967,-0.463610095469703,-6.415323213132177,99.9694600370768
6640,-0.005452988607003294,0.030750512009385528,1.0027490667810772,3.4179313445247352,18.789638426545817,-21.530298617129,100.01590154868789
6660,0.09346473316024795,0.04367990952565371,1.0089025347066176,12.307111818324373,11.564178404544624,-16.063122729593005,99.95590961213087
6680,0.0009916769303476292,-0.012934619575863346,1.1283440022454567,14.869467820464163,5.027300546040101,0.13821069663515267,99.99393938374463
6700,0.12455545430244122,0.043852819818247124,1.2024174705432793,-3.806022107339035,11.228276862671459,34.93121832815216,100.01827077858495
6720,0.05057524858109812,0.08111163017674775,1.1423556597111193,7.571773221127029,-0.7725588019214319,-2.3068659065326322,99.99029155355038
6740,0.1534853271290719,-0.029927366907370495,1.084110228643907,12.333638699229098,-9.720799908857382,8.345986818583722,100.01762553346667
6760,0.26351105028494026,-0.02772432426747018,1.1718745125068029,8.566805413293597,-2.663539012136232,4.973206315528075,99.99015512793042
6780,0.25226129523540325,-0.03980873885803239,1.162856502545869,5.74606254145594,0.08065213525375638,-11.139812231246907,99.99026597976705
6800,0.17405523818525848,0.050003685448769146,1.1804160714127678,4.055575856204465,-7.747428216448109,7.880030605978352,100.0038818019766
6820,0.2015931513700454,0.05680870222542439,1.115701071328248,14.512733132138694,12.711245240679135,8.529264315738143,100.01453337815298
6840,0.19260928951571427,-0.02858783971528453,1.078951620868181,-2.179626331635303,-4.654994813463566,-18.61851480840052,99.98894899804888
6860,0.1273371891788004,-0.017350478447020225,1.0728143742227236,1.3421671429405162,5.946424236309564,-29.291998040486273,100.0135958586343
6880,0.16511337943235027,-0.048864972968780035,1.07731559132893,3.0890680914186888,9.194591139001888,-5.383469910055012,100.02099420075041
6900,0.0859809687882798,-0.12030550627771186,0.9693175601670279,-7.960870597620467,-4.268080637296935,-11.489387159995893,100.0709673782049
6920,0.15683408822696185,-0.002951482374012982,0.9626293969193663,-8.065876332662803,0.4264900192557892,-28.27401373199747,100.0002454080672
6940,0.03500551940270727,0.026852053389265634,0.8943998168959331,13.83073588091969,2.6112272151438947,2.3827826026210643,100.00485027700253
6960,-0.007587265561891168,-0.09330592691866174,0.9184951955633845,0.6939121584958379,6.769844820982486,6.705395436668484,100.02907120015269
6980,-0.14203545096109954,0.10331708636784319,0.9057943372931071,-5.878628699881251,-7.427317023564407,-0.5235183553087864,99.98230100439297
7000,-0.10377351852455517,0.051265821239526776,0.8019149873502228,-3.3387333188990698,-18.685120427690926,-7.799105044896292,100.02517835534601
7020,-0.0799913542707993,0.022027604014693235,0.9315168759976274,-18.3982682881267,-3.9297237926218456,-16.151612186032683,99.97804172609555
7040,-0.1649448275355507,-0.007218559911964515,0.770445597252438,7.581141047465393,-4.744289685929641,7.505897527110748,100.00319693748862
7060,-0.2163205422856039,0.03161624750979537,0.8005783537459076,4.915076501400688,-2.346202839394147,0.25922998192476576,99.97769000365594
7080,-0.17524256363134386,0.02374354132174097,0.825338158358773,8.664861022085969,5.941553730218173,2.7278559953853176,100.0134283722636
7100,-0.2711301063248663,-0.020061467398918627,0.868562829889559,-3.9940237405786263,-4.230162390520052,-24.703124605637623,100.02723827195837
7120,-0.1962594304879314,0.00282137511596717,0.9275223959662637,-22.204942759588704,-8.384058466988801,-9.021848421106855,100.01507286574281
7140,-0.11910230825663998,-0.02282540123991107,1.0121055335812177,4.022625592663554,17.697127942653573,18.23193475334262,99.9856295736403
7160,-0.09184873376389328,0.054882321847718046,1.0742600305082006,-9.137234666345316,-5.897561176803789,19.4391949974766,99.98439648521081
7180,-0.0377190553181406,0.03578201098583171,1.019271951996847,23.513421864230608,23.81685042534963,7.1288199149330955,100.00249067790354
7200,-0.04322585913999786,0.07487459886457985,1.0183832525802423,22.131066279464072,-1.541700232950416,-4.607364289614878,99.99405624033287
7220,-0.02548136543803486,-0.08147403681730836,1.0307180514218037,-8.573534848159454,1.2184497999770074,4.757679698008975,100.05035611179693
7240,0.02154157020346885,-0.00039130898566470094,1.0358540440864212,-0.10182691052983234,-20.304959496093073,1.66691191067587,99.99819556831174
7260,0.09180666418316402,0.01538988381236407,1.0784357821819368,6.689546106725688,10.417718562624952,6.673485178893156,99.99418760884771
7280,0.01773706245542632,0.01688806117796442,1.1079216541091048,9.0354656632936,4.658968772950212,11.81365442732483,100.01729348825518
7300,0.09244375205954268,-0.0036828489659263435,1.1493775225459932,10.620007551335945,13.867236551056962,-20.988213343226178,99.99128593378983
7320,0.20222273755527936,-0.0405222856736255,1.1479070182396143,7.958739263525663,19.801063475694377,1.1441304184610415,100.00008902901578
7340,0.22459574127735335,-0.0037348130193947528,1.1808046718676373,-0.37350553170340406,16.705921142865378,3.0390364056890187,100.01698765658492
7360,0.20174651915448077,-0.00019251422958320612,1.0896422403343233,0.7172528261543236,23.319644065876687,-8.101185018520315,100.00117422188174
7380,0.16659024007981904,0.047469568922559886,1.0316585521494515,-9.108169761731299,-2.3769718688732597,2.2535939157721367,100.02073410698348
7400,0.13436965637390752,0.04056204287327759,1.1822827759509942,-4.242209044000145,-2.6114812211482556,-9.263371613951753,100.00734638165429
7420,0.15502096576761387,0.07003935168031016,1.018526453801169,16.412231577280963,16.954709321224758,2.7942469059133743,100.0204776181719
7440,0.12521395005732822,0.06373885613827988,0.9855961446171279,29.25798343738098,-12.468925513580912,15.99155389654672,99.98386233760138
7460,0.1015546010640952,0.03506650557452517,0.9984972575881518,-5.3069566912984625,-11.567664544658939,-9.303445436038352,99.98733690478697
7480,0.046420166204008094,0.02419393844765447,0.9926449148661933,-2.5316003080936644,11.73695136318691,-7.334794363944417,100.00193421334332
7500,-0.048778200668675956,0.002517030117823822,0.9057132705966661,3.6841544969415905,16.331619294773226,7.167500287321821,100.01003727140116
7520,-0.0319147104274138,-0.02619665888558699,0.8839239134288414,11.425679970797699,-8.655268525143471,3.858760806189845,100.0027098910961
7540,-0.11403420962642034,0.01049601272041383,0.8970762680513873,10.404332488365078,3.4046674558188217,-11.829275547203698,100.02701148072356
7560,-0.20677869758451015,-0.03204440480374637,0.8991562840167325,-20.05642860599139,2.1331781863692783,5.698217668865294,99.99072624210706
7580,-0.1782489384592481,0.09768630834188541,0.7888601074569944,-10.804921378231617,34.8269516378868,-6.448643750577364,100.00000499842491
7600,-0.17927839398525064,0.06137369634368178,0.8743394047161185,-6.522244909409606,1.3179908031343102,0.9949134966517599,100.0289981640433
7620,-0.2066816620330615,-0.06813536885188769,0.790602869570248,-3.574455564621397,7.9842397435009635,-2.3500254480268175,99.98645751283703
7640,-0.1714986544224881,0.04155825246084163,0.9320715736198543,-7.162903349263443,0.2261486735666124,7.213036401230212,100.0114149770018
7660,-0.2616156446539629,-0.033035994567942,0.9521453004162668,13.80116460415896,2.072944876419181,-10.12144669572476,100.03403230352957
7680,-0.2392366077786151,-0.06000750414298808,0.9842891314281453,13.182114176154148,19.02871627895078,-5.116188124645722,99.98721510910171
7700,-0.14495387436620072,-0.0025836121559961365,0.9024879432527319,-4.844805567021773,9.797947475533535,-6.320792393983556,99.98754899109254
7720,-0.2260722892039824,-0.06333931211549819,1.067818541389797,-6.61393522661688,6.105132727351993,4.513907132046689,99.96166606124959
7740,-0.05721394944051869,-0.006952040531192887,0.982109988187501,17.41202242426086,3.1531341605651555,-4.443966211585682,99.97243142771741
7760,-0.0329534682713343,0.04764777898026642,0.991421008894968,-9.402114283350716,-3.3209191369116997,-15.279930655969324,100.00536629693602
7780,0.018184098729558992,-0.032747787091392866,1.016114061093587,0.09100428379213009,8.74029259678626,-20.199362825842414,99.9631586145526
7800,-0.024008730344009556,-0.02000458815761934,1.176924963113008,-11.559435988737423,-9.43764836299048,5.6385808954676415,99.99450076754188
7820,0.1480124778651024,-0.04319401299004336,1.1962008139412716,18.55751107207597,-3.6902466522594803,37.93060886763423,99.99496525129389
7840,0.22742188613014272,-0.015868936242877038,1.1064300012980386,28.46715434112239,-14.704222414658176,1.730740701496172,100.01676702402361
7860,0.14454811101638712,0.0035189954373665644,1.2207190866607145,-13.324571149187094,23.517964095038643,14.76063591827587,99.97657502541995
7880,0.1993112933899652,0.015015392941540282,1.2006647889323847,11.101172679691535,-8.075806951901782,-2.9301469463670022,100.00718984316751
7900,0.24054415075212532,0.03393558283858057,1.100407071787626,-8.107277353540141,21.666529773484143,7.16411104555109,100.02325098681999
7920,0.2028381461020316,-0.04655011083739319,1.0823703682122232,-1.7179961010530849,0.10371497166250174,-1.9464162897683615,100.02128747144941
7940,0.17717985937867212,0.08694593530552741,1.0609910942320397,19.16204358345864,-3.27194014511808,-11.16532860261605,100.04544639022465
7960,0.15914832692782757,-0.03373904889964669,1.0055586820285214,10.010005703114564,4.028146806165663,6.72982315631198,99.99037053681911
7980,0.10504868503906581,-0.06061066095237233,0.9822375156951634,-8.729778418613845,-8.709678560370989,1.1925328085523514,100.0067134120646
