timestamp_ms,acc_x,acc_y,acc_z,gyro_x,gyro_y,gyro_z,baro_m
0,-0.05237355289229182,0.06614550264049017,1.0621458514183262,-12.898039561668998,-15.271663409239036,1.5350049750917352,100.01054655884877
20,0.11993915953656062,0.026660075084838253,1.0682702286239232,9.721795424707805,6.386909663620452,3.037362998361198,100.00060119310577
40,0.1188352972974834,0.032805737975472725,1.1554310123718252,-15.533752526006896,16.49594494639321,-23.686696078862152,99.95062085820538
60,0.15198498347959238,-0.10980548120181091,1.1547328745406906,-8.392817716300828,-7.133147704009854,23.705529417596594,99.99853075604736
80,0.10481937537261575,-0.019095844392228983,1.1849191520369302,7.130827242954269,5.5112712170123,23.04007720053357,100.00956528032248
100,0.13051681799871057,0.013144127478732346,1.211625830800132,17.552027429370046,8.26360347280908,-10.047661862923407,99.97194717667948
120,0.21336458819705578,-0.03483244847679753,1.152118802449752,7.0838967482991055,-20.472252002531945,-1.0193440183327254,99.98147398769856
140,0.26513606455750166,-0.04648072256349568,1.2709378538086762,-1.0986943468943886,-19.86124999936022,-2.898751389876345,99.98020160159376
160,0.13386731187753567,-0.02305116531677235,1.1361343976455007,-12.968904203771285,-1.637472844186386,0.23095890943021405,99.95814328117545
180,0.1516640148453926,0.09049567512819895,1.133061671711285,-10.184832479969113,-10.732042057730144,7.026785858787724,100.01521067873571
200,0.11978088579098523,-0.020627054853711906,1.0677270826711098,-5.640970772516777,8.3723477837607,1.1465252665787817,99.96420619483705
220,0.13446771159530613,-0.007302688959705038,0.9938499983408497,29.08949831147658,-24.692736598133273,-8.817982715465698,99.98819366714439
240,0.18745418863046143,0.0319762831243214,0.9434946741942274,0.8033836188094907,-21.385831149618674,-0.6847985577599982,100.02605948445525
260,-0.023559294946781627,-0.01765447674575055,0.9631520209437135,20.849572654036606,31.01581353264384,-6.327431404566696,100.00778328859768
280,-0.1316502356770688,0.0025109455962974104,0.9666353849928779,0.7608978112409318,2.886559513371547,11.778789092475819,100.02785138740488
300,0.05588270379203419,-0.03911441981307596,0.9592092363435154,-2.7824099266645543,-18.251006176004843,8.940748103259477,99.96682800022266
320,-0.14024095254694563,-0.09902276900102044,0.8417451670537172,8.115981607844613,-0.167846420722596,-9.87000171444476,99.98201045325476
340,-0.05578569536582338,0.04125857774139278,0.8711460874253787,17.379775360269164,-19.414401478945873,19.350981270156957,100.02743425741735
360,-0.09260757791210784,-0.0322037456092684,0.8167377063211815,1.7051391209770776,5.6569672905508614,3.5040038722596556,99.99752746159967
380,-0.10246757582354199,0.005922334699223556,0.8446666634830651,-6.440655607637133,10.43383580423904,-7.388289031461628,99.99770969895354
400,-0.19620378111492545,0.043273479346490784,0.8628948269060585,0.530641934974083,13.730679181962255,3.875037258253249,100.0061385916123
420,-0.22370672151625642,-0.021013098259923195,0.8388259607612727,20.654874886775218,16.00317962996985,-5.802110764555555,100.00158637846293
440,-0.16813246691800515,0.006614515345981573,0.8961235480024179,1.8993741769461292,5.456121556084231,2.27681644910602,100.03246428586455
460,-0.16864525767785074,-0.0011226423216705885,0.9438059824803255,-12.261116556837894,-7.839295296527099,-16.66693395756243,99.97819240271272
480,-0.21693695686027042,-0.01955246811513539,0.9633730319713701,-6.126254511679077,3.814768016173815,-8.403655900431838,100.02049107769002
500,-0.06650205883612834,-0.07603322768677638,0.9191544786526207,-2.7713744645475034,3.5950294658512254,28.45821021490375,100.01139239454106
520,-0.056797086658476374,-0.061426016217296035,1.0254444388328652,2.593016018356292,3.279450931230449,-11.46251351668538,100.00050197217568
540,-0.07513901901695262,0.02874157714854827,1.105900365001073,26.585387943305356,1.8035278973728794,-6.598317058359805,100.0103076135038
560,0.09706208040461657,-0.037263029051558816,1.0699785173734808,16.101260556947764,14.34231611356671,-2.372186475690102,100.01811960694266
580,0.07859091831014015,-0.01163068486951883,1.0484559060438254,0.8803404996364286,-3.4677483584131004,-2.638510024487949,99.99760161717656
600,0.08149800324822094,-0.020812705206797563,1.1564731812188318,-7.95687361581345,-1.185342460317674,-26.581300847341428,100.03990688718851
620,0.22203868543617372,0.03669821870715744,1.1518614081168554,7.295112172396835,-5.558672830690577,23.006384958735254,100.03684170269418
640,0.17333726974778169,-0.06725866301609809,1.1311924010464194,-8.045639909162468,3.2323543666233716,21.899760252523656,100.03211464963474
660,0.17004398711318858,-0.04708032405984435,1.1687633154472319,3.0563995653961493,-10.431219723433173,-7.486918662821319,99.98826898583627
680,0.17480504948009004,0.01138686986652017,1.209062818830256,-17.314976912720347,-21.765247005291926,-19.63432199432851,100.02364384398524
700,0.1620805579075238,0.12171821310714336,1.1549762163373802,-19.842314421013977,-19.863692750026882,-9.005202105818045,99.96722659771189
720,0.2814725880568606,0.02800075997136798,1.129947868493146,-14.651751951324986,15.171692732307054,10.823230841266309,100.01076911894091
740,0.14035392926419693,0.09220835474444092,1.0843792945841346,1.6382911692564524,10.068649534699421,0.877347442944092,99.9952995266349
760,0.09847019715270636,-0.03166268792832274,1.1239857835097111,16.347828672119693,9.085578224046749,2.203944890360386,100.00552004414128
780,0.14350005492687576,0.042999900852089795,0.9891299009520573,-12.464552459128932,12.553284352876474,12.245585656214335,100.0287664692611
800,0.014328572767413138,0.028567670239676046,1.028613226186277,-29.628807810103716,7.065098563746166,-9.91256583838714,99.96576063816039
820,0.02082677456503132,0.03513566949907795,0.9309161000872836,-2.161841985999893,24.624065078911293,23.925145228625112,100.01096034794845
840,-0.0700468254925161,-0.00940637776524534,0.9362162240543017,-1.219744697755321,30.61923232346625,-6.8384773189121475,99.99688929440016
860,-0.06094351437586647,0.05132264448322266,0.9306872784036597,1.2978104666354624,1.1822018425249252,10.477481859569593,100.04960919055317
880,-0.16402004505335377,-0.0991940315658893,0.8443133145762507,-7.750322929659921,5.153705309246931,0.015186209112305213,100.01518991949678
900,-0.17898709457189638,0.010427667288841758,0.8006200989648876,-19.80387721420983,-6.717197882601749,-2.1267506226492063,99.99412833528123
920,-0.16450248100514947,-0.06448940300964222,0.8806302083530367,-1.8536994274579286,8.846414111601316,5.671637645732847,99.9932994887855
940,-0.19590702078534028,0.024849640094510766,0.8436931555935338,-1.3219277050322467,-19.496892369260053,21.165197627688876,99.97396754607225
960,-0.17511784092061528,0.038295743205947815,0.8184500483926294,6.1848535634052215,17.956960159653796,11.795837393860246,99.99965664524127
980,-0.1319921108008642,-0.045983156378429806,0.8366114889846046,-1.2902150604007026,-15.841798557158159,-15.982061385247404,100.00160392441605
1000,-0.12045184802482153,0.05368441574319771,0.9473485491182243,7.522317723063928,0.09771226894026402,8.002767611645547,99.98655729686782
1020,-0.2195792880713594,0.04272996884959359,0.8762380534372936,2.5862337984251464,-10.035315747650113,-2.857364343753913,100.02628746567703
1040,-0.23932703953569023,0.018903197366945734,0.8919432261409793,-11.358131888175224,-3.4009634080389586,24.30931069188032,100.02337233247367
1060,0.009848334304028497,0.005312559519104,1.0479837479670908,1.9756749707309478,13.958729670172438,9.314062335349938,99.99271059595287
1080,-0.11481266546961849,0.009349168339629028,0.8968191257551928,-6.4256495366485415,-9.254195428730732,1.688084128742579,99.97941642487308
1100,-0.023375422520298936,0.009226425917312119,1.0091661358347603,12.569030179032518,-6.760469893641773,-11.997908737955946,99.95826224984538
1120,-0.021975746252682723,0.009198115170913899,1.0616407274813577,-5.9811849735870215,7.621981181350659,-10.577556882870907,100.00712505325059
1140,0.07505117870407765,-0.053939436656939566,1.0873282282163255,-9.400427255770971,0.16435107210173772,2.7061270187089486,99.99662089209632
1160,0.010531494197814018,0.11200534567588623,1.1888820427433644,-19.255597566452863,-8.08709169250424,9.249540126207538,100.02650978567425
1180,0.17362035668219578,-0.04314080631057109,1.185086144104936,4.972100957218578,24.44283986234353,-16.454589887394015,99.95745617416232
1200,0.09185063165841838,0.07514361862655888,1.0710025242156924,21.485895164785788,8.263696081079555,3.8797768402399244,99.96958123349188
1220,0.13178718305852097,-0.12212403947636047,1.1063860646945842,-12.131119965775916,-12.153849467050332,-17.9539498680037,99.99137678701878
1240,0.13844646778196146,0.009635543758625678,1.1478654186846207,-7.0207828825006695,9.130289552364442,1.147350954380149,100.00852795774902
1260,0.21876246239534014,0.016479987281234613,1.103721656036652,2.5590970543560934,13.780433301549316,-23.93202444061727,99.97424709328726
1280,0.1389531301377196,-0.04455835817416109,1.1143306024419495,-21.981786071360094,5.138689543997797,-5.766432855225448,100.0390734256714
1300,0.11673600512769006,0.05326851258854535,1.1489555389931079,15.589143482830814,1.508195068621305,-1.6384286414866915,100.03012118512459
1320,0.12483175472589272,0.06631288428510466,1.0614698272479641,14.749126761178399,13.294128488142972,-15.12123798901705,99.99401113614289
1340,0.07226454930526097,-0.01869116918866345,1.024210114054244,-5.2331535645812,7.408230954508309,-6.907307658717774,99.97212860794322
1360,0.13025363283038255,0.02388056594363712,0.9942463271958468,-10.949188925192232,0.9958997553485401,2.879977925371798,99.97301235385461
1380,-0.07757921903360329,0.061466478197454155,1.0064572718807043,5.4022415784824345,4.637734424678981,10.281706969995115,100.00930893541022
1400,-0.02296294698296304,0.0018602898282455125,0.9745831446459621,5.041349899931774,2.6715811177797884,-1.9555965472409529,99.99496044568971
1420,-0.09325293889202256,0.009640203125916074,0.9073520061779882,7.7552729988886995,10.675951259475577,19.668928728839372,100.00597253985887
1440,-0.13691037512772386,-0.04734877182186201,0.7886558396328104,-12.83788548544776,-2.1798024104391915,-12.628549757693449,99.99159569769172
1460,-0.09922134317534217,-0.021758728310115903,0.9198736942649174,-9.834495238217848,-8.756351008127687,6.432603812454424,99.99037345713658
1480,-0.1478095445994682,-0.03549531774344237,0.8358474841604707,-14.3025995403037,1.6005008554193023,-3.396958603957861,99.99954439639441
1500,-0.1439878174990833,0.010217662722475606,0.7521674193545153,15.98776670546815,22.713005309931347,1.657069622755896,99.99843216743578
1520,-0.16340068908051875,0.036145852338181586,0.7409528112587159,9.203625767662547,5.618683940228482,-7.404805609101884,99.99060064930016
1540,-0.14786574750352668,-0.004564459666071361,0.9362184514577212,-7.398216605768663,4.448899961341628,7.06789443079221,100.00408645004207
1560,-0.12445077044195776,0.015335821366389214,0.882007880858242,-3.844022005818304,-5.041964033098879,16.762390011984095,99.99221528266483
1580,-0.19718782803643514,-0.042857491071262,0.8912064970883606,-15.49083682654493,-5.370750210142733,-8.190873000128125,100.00039641256862
1600,-0.16923093772094455,0.058319930671072655,1.021007834251935,8.120396586559249,-2.4651510428427112,19.41385588538655,100.00237400588654
1620,-0.16626343138429955,0.024387697240531754,0.9496008556988341,9.411137342172369,-1.2545226547403052,19.479369438807378,99.99818422658029
1640,-0.11716641622115476,-0.0069433386596945,1.0092530640628643,5.775284092629837,-10.138548240186179,6.622554008287396,100.01096015467108
1660,-0.07202734864155076,-0.033001915332503594,1.1166295330894787,-6.215511305234074,-4.905633720792949,12.62943859588965,100.01765250251252
1680,-0.01189197272283636,0.04514847507412306,1.0939704371177503,16.950192677656847,7.171443471133012,-25.195545566543515,100.00448670498818
1700,0.03485632006607179,0.0037139280159474946,1.1464590312980345,-7.324410917791026,7.853272332682915,7.353843507461777,100.00884583292095
1720,0.10591566797495665,0.008971442110387438,1.2179765147629604,10.838358481058005,-28.48546383098128,-11.237516333079885,99.98964025569693
1740,0.1054435564208961,0.01568090974638971,1.186674364252919,8.610708359994105,-15.121208002887645,-2.2962643392262545,100.0295796651617
1760,0.1967517114880881,0.051806942806971935,1.203404069922501,-3.6238817615929633,-13.86010515322769,9.90846077416803,99.9807752725015
1780,0.20113093000945392,0.017704076307740062,1.1923354313362085,-5.5580264744384795,8.445144534686953,9.349995382956738,100.01199731829134
1800,0.19605967710027045,0.0713018952715854,1.165408308772786,5.623602842392042,-18.75727929717259,-2.3559488200329946,100.02983985225228
1820,0.2749363340516475,-0.0393460529252846,1.1500663278032128,-14.50570664778408,-18.78367100656465,-9.253325958566641,99.9496198810191
1840,0.21114895656737223,0.001120449509101605,1.14129819085217,5.260379891657991,12.384711013299613,10.886948090801482,99.98778771347502
1860,0.22868909202970306,0.053453364475499934,1.0857353697610543,-15.088204606859708,-6.361183173848131,14.41642595866099,100.02103823205084
1880,0.12022982006104266,0.0636691824802456,1.0803552785326722,22.75419704169515,-0.37480634764295623,15.07336473222715,100.00074916755442
1900,0.09402368175681225,0.028852186330832825,0.9973111852823356,21.489435437902138,-4.693883175725053,17.526041974341034,99.98359604058277
1920,0.05546362799941315,-0.0654945979757151,0.9836043962099762,5.5354074810477405,9.246625929129726,-4.850225280739237,100.00388570093793
1940,0.06593041113612289,-0.021323960933306758,0.8909928628171411,-5.459188665674268,-6.949365929979736,2.3374267842919143,100.00380004180033
1960,-0.09934583477639967,0.08621391330752495,0.9536832874356295,5.290893139734793,-3.016856670632341,-15.215972775668671,99.97639629321243
1980,-0.08265393999541903,-0.09628928955498961,0.8547650580831805,7.222190859798637,-11.914440851782409,-12.367644047402383,99.99641085603143
2000,-0.0480508898660488,0.022381666593430487,0.8832024741547737,-30.058785839827117,1.9674067243339168,6.219282960852805,99.99608579951983
2020,-0.17033875535590925,0.0020799512530737248,0.8480348560179602,5.821208548092366,19.37619543048743,-23.64809092029799,100.01038868069801
2040,-0.23125759955921274,-0.001568543703216797,0.8249071704373541,-8.641395355977762,14.3507927862736,-18.08934396212607,100.01063508769171
2060,-0.21576470173510834,-0.03126604878599401,0.8570822137847641,2.5013587571721,-9.718122084098361,-7.352802474480325,99.96570207519026
2080,-0.1802981839353076,-0.053996553844178785,0.873197547155621,14.05663702857013,-18.437858603989106,-6.101080539816417,99.97877587036834
2100,-0.22409199425514276,0.1362490871960533,0.9080562204170112,6.885602620281252,-21.531919710868763,-9.476901780574355,99.98365477194072
2120,-0.19893454067244412,0.04589477561792976,0.9188070697649728,10.886567749749368,5.446550659134592,-15.908395768068857,100.01719450591041
2140,-0.07277801329717351,0.0008886505541020293,0.9745241968336047,-3.752513311529278,7.603894578688354,-22.727477272308484,100.01167174168727
2160,-0.0882871116306625,-0.027766072185756052,1.0230645562241691,10.922931449412147,-6.375612585804834,13.282029702203914,99.99335424739091
2180,-0.10933954130626847,0.015788489507659074,1.036428043358398,-11.476386572912428,14.052672545200071,-0.5516298747803733,99.99983044945141
2200,-0.05281513071902694,-0.08428376138676887,1.123061585750632,-15.712328070383194,-3.1533694469988856,-7.32575996574358,99.96998955785592
2220,0.069701208351928,-0.007066366680991056,1.1285059582160684,1.8076187843214955,-7.612111445627638,23.400523823276295,100.01652041529164
2240,0.04831600369386578,-0.004900099790426977,1.0871014971125836,-1.1509286022159242,-6.883626331401107,7.6948220228313,99.99541133726017
2260,0.17384386490943204,-0.08573851239202943,1.2006703735001332,-1.8519657889897982,9.604888714337083,-12.146834028350598,100.005415309573
2280,0.08198146971277018,0.05235573439784058,1.0761417653991279,5.680279948547066,8.45414204371373,-0.9510907460441399,99.9653518026214
2300,0.09254688036517277,-0.08223327457975964,1.1781326185693914,-3.0784007592588676,7.64194025048762,-1.339406438298846,99.95043123880018
2320,0.13548977301508086,-0.0372174235668492,1.1684181730358325,24.922711253232166,14.934692956119381,-1.755069139183143,100.01039052757046
2340,0.23435034401471622,0.020992431197286915,1.144854065343214,0.7468223082537162,13.63954538706261,0.01831969812668281,100.03082307651916
2360,0.22831079928013734,-0.03188233821150432,1.1244366611641783,-10.163370642356186,-4.890028546056413,-11.031066997257998,100.00443928280525
2380,0.20272342305869157,-0.06905590663249421,1.1603630788096277,11.234248299297384,-0.33091399216336315,7.603991336161307,100.0305171629346
2400,0.21119439923413205,0.02953341884910159,1.102610219185947,0.28100253397382424,-32.43654132210958,-9.34444161295897,99.97418264559948
2420,0.2033545168097922,-0.031474486705171535,0.9724436344542908,31.027119840993706,-8.379076555503799,3.8005330786374696,99.99240797191163
2440,0.12155268236165921,0.010298910424250561,1.014579344415295,3.074506700969245,7.9799349477808885,-18.75767841607708,99.97302816295444
2460,-0.032938479988170774,-0.020180384130471907,1.0219595783851616,6.8206458380634345,-13.308462037958527,-0.9771391902274329,99.99187065440084
2480,0.08939859054545479,0.005089110509908067,0.9771171207097007,0.24928050911879027,18.64473759059683,11.781224578393468,99.98839073463171
2500,0.008820870585452542,-0.01803416933577433,0.9595591826823793,12.354560837746977,12.354061822850616,-7.281286618084367,99.96638149540381
2520,-0.025355300298392464,-0.033127806238694595,0.924214346946761,-7.163187654315493,-14.954798571183016,-7.635172830495799,99.99048964833459
2540,-0.022725434117537593,0.1401803291488509,0.8334132049358963,-4.271908041137051,3.05655739313194,-24.16099116488584,100.01239857070067
2560,-0.19276457299010302,-0.015891178126210607,0.9222104202350181,22.705842436960424,-5.9478461976147905,-13.08260300920326,100.02825302504375
2580,-0.22824734789083184,-0.021166808251228506,0.7291088726161419,-5.162584479101612,12.080571135871367,-19.56192543782675,100.00982822219179
2600,-0.21323219150022937,-0.005142052286844029,0.8671640283984122,6.788564093505491,7.321409390291232,20.02804763366013,99.99774199597682
2620,-0.22373945132813672,0.08827017881532243,0.8439511735848206,20.13344366412698,4.631922477493497,4.537664990498833,100.01898086525588
2640,-0.1460869013357752,-0.003832368429092261,0.9050558815719482,8.725786977716389,-6.599051324329511,-13.935118273406722,99.98818470275586
2660,-0.2801100446226754,0.006720820085628002,0.7623647322381034,9.585516582231833,-7.00002222678369,-12.267660775366345,99.96960944600251
2680,-0.1939579718250872,0.0755735244024154,0.8497311174756489,-8.383698281042031,-7.4199014543126465,-15.248634559494036,99.98341469291537
2700,-0.1390692439988132,0.04660064136529646,0.9527865734263745,-0.49439110784563434,-4.345351293164673,3.6338976588295013,99.99048874931191
2720,-0.1048949323980536,0.07998468667768287,1.0342464762729793,-2.6159107976730387,8.034964677295587,-5.019139237747624,99.9794632661288
2740,-0.08656127777121844,0.05628250610609192,1.0723459538253077,22.59793960598906,0.029883198568264928,2.485987471462038,99.99367894591903
2760,0.0092069320297987,-0.034389503336833126,1.0011821171638866,-3.0799945843924355,3.594797002426687,26.89408127306033,100.00804638436809
2780,0.017266900052058633,0.03260242055553317,1.011567224567947,6.98452950557777,16.076215333390394,5.361621882238666,100.0012357994469
2800,0.02132876416478844,-0.0928202693807395,1.107668103950141,8.22351025215239,7.231028028172875,5.384992817311651,99.98917524984152
2820,0.08580853523747362,-0.02017629048923863,1.124922626886576,-2.1676985327254172,-8.861057151256135,4.575477420379789,100.03172552031742
2840,0.12147372531490698,0.09747108444131643,1.1517891942841278,-9.045458459896032,9.978948619267626,4.821366796540201,100.01280254431559
2860,0.1466124467558249,-0.007456093417714711,1.103487780737267,22.744185800847383,-13.507364914981252,20.20483720922806,100.00413476969061
2880,0.1938213994677197,0.019885685368196782,1.1454768158834558,-16.830445246192344,4.190432780255618,11.812899343456904,100.01866143378125
2900,0.2685635519731412,0.010672345240642232,1.2014747113667748,-12.506477241257624,8.617230267143917,7.612697773056315,100.03857265525744
2920,0.21228351494781025,0.08675207104091766,1.057941665062563,-28.390704687346414,-6.233539794437506,-10.152612626627352,99.99615460890895
2940,0.1617621515401163,0.05450326400026772,1.1350596551669578,-1.420989372582338,2.015488768886618,-6.481428290247452,99.96548259694458
2960,0.183824186806437,-0.0183881088125737,1.1208905843106174,4.6295524279574165,-8.940510412474724,17.559866622487675,99.99922855713221
2980,0.11078871456919923,-0.028601121176662237,1.0660382980546137,-3.4292023228265522,10.133992590230637,-0.2218509478139871,100.03586036822043
3000,0.11496674391610731,-0.018448709456282034,0.9948877867288038,-4.778073155671408,15.134711541083405,-2.169281687709907,99.9848819919583
3020,0.02848665003786359,-0.031891523727970314,1.0248741175612437,12.602784860878236,-16.11496844787827,-9.537272900381428,100.01256875297648
3040,0.07967416725943935,-0.05198229002332733,0.9086196792993247,1.654620509287716,-6.569493879788228,-6.5945086466066005,100.01757817919308
3060,-0.007721351403227358,0.06256708198599507,0.8765984662157746,-8.45201650089877,-6.518571903237547,6.296575195678688,100.02256987792524
3080,0.010208625421558738,0.028729109655014108,0.9575025054077609,5.529120428333089,-4.593569629344092,4.040480126362752,99.9836853420878
3100,-0.08566573567727674,-0.026851063497577106,0.9108608032045461,-2.333316096327743,3.865417996833582,-14.971913978591628,99.9846192731106
3120,-0.0930899283093875,0.09446592511798751,0.7552784928544645,-16.28517511893499,7.069496786754073,-3.658292007084035,100.00232338605713
3140,-0.14890921462424442,0.09470868634987521,0.8137565149098621,-5.200896430205756,-22.593826655972048,12.060903645873001,99.9710596327021
3160,-0.19769785202913284,-0.02198453004907752,0.9170071219393517,-1.242711268496834,-20.931502510566393,26.57297863033307,100.00166617270497
3180,-0.2096705266597418,0.010994258593175111,0.9425157115812091,15.230148667233466,-2.2034864524987947,8.894740727682116,100.02616571494205
3200,-0.2461756042750247,0.11264881310101489,0.8938116679796066,-0.8554191169569072,2.7951813143101623,-4.043985863653092,100.02008693174253
3220,-0.2559945870299039,0.0652884958767199,0.7953402655119016,-11.045255128643207,1.633199513230958,-20.76954029871606,100.00981527049514
3240,-0.13903580879742056,-0.0055014302564834645,0.9181216804650443,-1.0322376241078342,-18.21180821491796,1.0335015950379327,99.99443755057527
3260,-0.11449056705895327,0.10973766921390343,0.9185481774289836,-9.103802339430477,1.5022434419089432,-7.047387722155193,100.0185517093388
3280,-0.19151859598078547,-0.026477230700236595,0.9816130391237877,0.3241188653551697,4.847689763371168,-5.71527502182565,100.00611904127157
3300,-0.06624065064381061,-0.022875818133308985,0.9919956127752316,11.097661006910743,12.921424549144024,0.1921736056811875,99.97910556765191
3320,-0.11618244337454631,-0.08223135648447946,1.0191678437531246,9.035900973668534,11.196473231042338,14.847049647708953,100.03884021776423
3340,0.035982489223959906,-0.062343683235318054,0.9974305383819745,-20.531535129377993,-19.72806495623646,-0.2141919306736274,99.9757325653409
3360,-0.006747343804962266,-0.0007299639054707413,1.075131156297129,-1.2514933842222178,-6.129148833875231,-0.8319267807909801,100.01278935759761
3380,0.024021654835681028,0.0682076229816735,1.0691036879313371,-2.8300449558759255,-16.348973657520716,-8.31321524602803,100.02919684354487
3400,0.14676718679753595,0.04726547467142682,1.153761228540702,1.3824206610260648,4.995538367553646,-18.1403635386395,99.97920629837185
3420,0.17174288539818197,-0.05878637524220986,1.1360332198136014,13.007526609066442,-3.3213690091035204,3.623617462585572,100.0032781827931
3440,0.18456520962972464,0.0015220205904720545,1.222187798198901,2.8075421042500883,1.688579913870576,-12.305905836507218,100.0347105004783
3460,0.11087504992481692,-0.039492307286702326,1.2307966444146616,-6.680094719915612,-8.919760247893983,-14.763668640663555,100.0019009595517
3480,0.16743151163861392,-0.002334467088246419,1.1227810766163313,24.21739394962175,2.9234355394618907,-3.332583802473563,99.99089975117204
3500,0.21440142229092285,0.05588555747469834,1.133197832226127,32.502255456221064,-12.213169147705365,2.158606035385582,100.00447746909241
3520,0.05983570768312556,0.045692748717120424,1.1096703298924075,-6.809859814680827,-8.5467356456064,6.224541034304659,100.00826305424945
3540,0.16929812398779615,0.0068638358348731944,1.0377471092363881,11.39419632340017,-3.7240497837044497,14.93160646510564,100.0071584073885
3560,0.15833015683134768,0.0017774511314027444,0.9941058492514205,-3.520806250982441,15.237360629147144,13.468752589140275,99.99911415212266
3580,0.030458013040308825,-0.05162027591910212,0.9734912522145011,0.4736847291281396,-11.116787495722306,-10.937608391563394,99.97354482026857
3600,0.021937611412930283,0.08980414739454863,0.9088138467179379,-0.7016404449882719,7.779899960480616,-14.993818291935309,99.99155326633876
3620,0.009238316034550827,-0.06421462053547385,0.8941113591842852,-2.665639882061957,-3.15007958548701,-8.10169713463616,100.00710758491185
3640,-0.1784193846291764,0.055399181801567034,0.8661477762282948,1.7375776051054217,30.58698921266054,8.686280457397809,100.0130779141179
3660,0.007289037990151834,-0.05261763988081303,0.911660467973473,-7.766330178842146,0.1729821838607038,15.923503410721462,100.00439905036261
3680,-0.2134511819513023,-0.047392526172065186,0.8527137076207809,7.091252969143168,10.86425383177569,-9.897745266491603,100.03302579680074
3700,-0.1871143440964827,-0.01280027184744784,0.8225768767215167,-12.81464051847265,24.225690293553093,11.1201441117148,100.03317991618361
3720,-0.17220856240458787,0.10322722014804397,0.8384223912128187,-4.913066889193029,-2.930292590843244,-2.62823021630353,99.98919407947247
3740,-0.25991996093981984,-0.07987474086851994,0.8790534224337297,9.030795418540146,3.609168944705958,-4.607847108775891,100.00043543857386
3760,-0.1402445549662531,0.008417882059075683,0.8924631729177759,7.334217709007838,-3.7146519112739655,-15.342802899618242,99.99529404689017
3780,-0.22498827131431492,0.09036925645142715,0.9159487754073342,1.334542491897615,-17.544486447422422,8.432868257978392,99.990366559359
3800,-0.17097118266459035,0.061175974638374944,0.9473088681023546,15.888140345448896,8.2283334323682,12.774752996939782,99.9787980200083
3820,-0.1447793949243687,-0.024845064794936103,1.0326353109018587,2.1456341629102273,-5.494176134493273,-19.547587910560008,99.99817626253763
3840,-0.034648326424091644,0.013647303789309685,0.8602897142969441,3.516396983196498,13.899014590136355,-10.199069970160767,99.99168321151056
3860,-0.06787091370278453,0.036025534572940554,1.0071000210217738,5.830954705361712,-19.872032941278256,-12.234764595008292,99.99467970939902
3880,0.04931813204672861,0.003089494414804375,1.0528321528302378,-15.710573635065455,0.8086295689088225,-12.261914120856023,100.01339911733736
3900,0.019115572279647858,0.03820698286453257,1.0261794468955647,-16.234959457815616,-11.105621681770117,8.958019162020188,99.98268166234077
3920,0.13816404888664485,0.022606484873305674,1.0907892507511014,-9.551608927718913,-2.3087496409444346,26.619120194963585,100.03166907560677
3940,0.10475489955739785,0.01976627136640771,1.1948995356872687,1.0899861528108896,11.381138431364455,-5.451981273267405,99.98955606997632
3960,0.1078248118706833,0.02212743334169834,1.1411053229284789,10.650915010678464,-8.40594922310553,11.189496840686303,99.97495906209492
3980,0.24319675277481617,0.004104203609215863,1.069883289306827,-2.1132169299607653,-19.994472109364423,7.554129734433349,99.97849160729285
4000,0.11152882331300187,-0.026291098726755554,1.1577949609757878,10.228995148975205,-9.152189586835846,-8.064008045116843,100.03087120696547
4019,0.11508776326840942,-0.010627911716224028,1.1817405105731347,2.7500876770391,-18.499935513238512,3.1993721134938973,99.98638336939553
4040,0.20560948077265037,-0.16068936961839347,1.0981541182590433,-2.0379227497240255,-21.94329044905412,-9.8853748973544,100.02458394223567
4059,0.15836890064710143,-0.06408272055252118,1.1507463960687019,4.749762046664135,-5.850430208040434,27.442707225931002,100.0141950249641
4080,0.15545961338482997,0.032402704792954914,1.1000410483196141,2.355002587385065,-10.786916556816344,-9.972228074845487,99.99276031130643
4100,0.14395082166471013,-0.019475180331684164,1.0924101921059521,12.850218247860871,2.309143633291872,20.337765812932098,99.99341262499627
4120,0.09957289119761756,0.016523587804942,0.9968182925263211,9.185713189802524,-11.401847143994786,-21.362745272123565,99.96233295465063
4140,0.019602868075253896,0.1143708646415939,1.107316374231772,3.589612222654136,-1.0841763057200235,16.1001935829203,100.01243020035004
4160,-0.045313233932930054,0.054091836333887394,0.8575234954570654,-7.7392369413049344,-16.96897451728992,-1.3165768588254765,99.97994796552231
4180,0.01871237519207871,-0.07350672761971894,0.8580479237339235,-18.202126992738297,21.79030699289351,-15.28468616485426,99.98655024294308
4200,-0.06285372159902007,-0.030569684514609136,0.8539422094911747,32.792763558734414,-5.9519500986124605,18.15660855840754,100.01983680652141
4220,-0.15565719454793364,-0.028547250508063678,0.7586759557265677,9.779258684681594,2.2797569886392215,23.26545082458821,100.03896846907918
4240,-0.22737263620378645,-0.009719769644728878,0.8746788498170324,-11.529253532597641,-13.137912073520067,-5.474725310970965,100.00428612573548
4260,-0.22206240217930448,0.03453780943815898,0.8258712656971727,20.209756342933986,8.661116106926398,-17.106592190657683,100.00315451828276
4280,-0.20851635605717142,0.028917191780016085,0.8689448634289859,0.24954500303625482,-9.295225163511354,-0.6732963092958895,99.98192771431319
4300,-0.12100514347431741,-0.0005186453254314804,0.885106391798371,-10.679095364748916,13.59865042626365,13.454324286901876,99.98220725568116
4320,-0.14076720018847053,0.00046032020192950264,0.9035422899840446,5.0735182986511695,9.290876444015769,-17.192707683243267,100.01207267287634
4340,-0.23960768530503732,-0.0553854312759583,0.8723961213927782,23.885979713253093,-11.126479511310075,15.230955301059822,99.99315515566612
4360,-0.11040133379196794,0.016975846762549148,0.9463153004709659,21.714372646991375,6.509918540441573,8.346358163685428,100.00652828848818
4380,-0.23313359424268648,-0.03400209261958084,0.9673310437732595,2.810918054463605,20.27105743079028,-3.7810700694628627,99.99740422631648
4400,0.0018108222384850686,0.06085184199345835,1.0371787093189764,23.45204106569722,7.7686157270432155,9.806180528320816,100.01878676557318
4420,0.005666448531387036,0.04746850692382481,0.9698770202201984,12.533729031299693,9.420853527893742,-8.896054103731919,99.99142933410283
4440,0.007713325605891873,0.0715144710413672,1.0414745123634104,-14.22343363543941,-16.442561531319555,1.2502878607092796,99.9383813494945
4460,0.06328979233833192,-0.025056962061817248,1.160042200866397,14.477887830675854,-3.1765782985077853,-12.430622175433431,99.99018293409576
4480,0.059777536001862405,-0.0461355703176158,1.1165642586338735,0.3661852183741794,10.595893972205062,-9.451252103911461,100.00487066352841
4500,0.12814706246298493,-0.029108849495492445,1.1623695360750232,1.034667548549585,3.248329734557137,2.1833778023819894,100.0089021050892
4520,0.109903971393816,-0.027126559581312683,1.1397585731609703,-0.4487416461208974,4.447598052084309,4.023671060238385,99.9899925240529
4540,0.10092347220216105,0.0008400125129426439,1.2163417724581516,8.16766151661638,-9.494093425926867,-8.772751185310025,99.97920129673679
4560,0.1873881690319249,0.014685228416148128,1.2141339450059745,-13.989318965178818,-13.708686721167199,3.5893051337180735,99.99287080006332
4580,0.1972221087707977,0.00901166707348544,1.1362457506329855,-3.17179556568315,-10.593866392360043,-6.200798527846189,99.99872146618853
4600,0.25526229979372317,-0.018672517730395268,1.022958523371142,19.73445075645612,0.6266349298475884,-0.5657669941540754,99.98074985655705
4620,0.13653671258660327,0.023780104053739235,1.1045392577506434,-0.48404876781444794,-30.474006744538016,-4.21331358284338,99.99461855683877
4640,0.07593567849364233,-0.04685424839616499,1.0656602821592953,-10.525711301433224,18.453686240751768,2.959011351759483,100.02234852057136
4660,0.05436811055211074,-0.03158643845402166,0.988984600305072,-0.5160613628227032,9.674036081687683,-8.210099447495484,100.01899429349858
4680,0.14424367305266578,-0.09383739021565572,1.0188328809751723,-8.036900142477208,-0.5666774698449244,2.3053446217103795,100.0155035117488
4700,0.14651953252038674,-0.01628553794832481,0.9301246019810018,-4.768502212926883,3.5174993955942897,14.598706847395427,100.00785193094478
4720,0.09223047965477396,-0.013643788294240783,0.9507052912016183,-11.94858432557816,4.6400329741138995,1.1805333841201286,100.02800950779142
4740,0.011749937934805207,-0.02952250313669645,0.8813892212483987,-11.049242731489027,24.029336539282262,-23.116251258115998,100.00868980904052
4760,-0.07891869007570955,-0.04719470573239396,0.9064584086742256,-10.930369543820351,20.49131876437405,9.431169678548212,100.0122273655255
4780,-0.1999873167006102,-0.023947327419404363,0.8877891337324033,-13.831739103147758,-14.599728797714738,-11.408525203525667,100.00291774616593
4800,-0.12937093848305986,0.0831507417190093,0.834749498424334,6.884516535043931,16.683753864974232,4.55655140157759,99.99668617752008
4820,-0.16585429808350916,-0.035525918455051445,0.9698854008836912,1.7278546397959347,-9.260062653102281,-16.877918140952715,100.00250142584696
4840,-0.17213714862248525,-0.0223763513773055,0.814982522587736,-18.587555710569063,-4.271715900939949,-7.374863569240011,99.98747875887108
4860,-0.05130194082363504,0.03543510330785264,0.7922127494775988,-3.43397059585505,-5.871489507458631,-21.507703327699573,100.02504096192166
4880,-0.15974140655327995,-0.08092341919415955,0.9064559058587848,-12.875300652100655,-15.917142391076545,4.753545033199547,100.00828078478175
4900,-0.18244879606653874,-0.03227859800659231,0.909783011807413,7.26283197908765,19.31439424622019,5.183576815216694,100.02449191094311
4920,-0.16078041636118723,-0.09562154697867907,1.0133151228724784,-5.990146759544703,-12.398775120450365,5.973323709492641,99.99657273340306
4940,-0.20896784675455488,0.030072410445968256,1.002378945398491,-2.013230441850178,1.0051883669396697,9.915417700932771,99.99148274311683
4960,-0.1787100935655938,0.005988124935577806,0.9892491076351773,-18.114634873170047,-11.760931524167685,13.238183838807377,100.02226431975383
4980,-0.055318193690763406,0.004821194053691866,1.0232884700960179,7.237073338356455,15.544014949253437,-7.5504575487160395,99.96989693304349
5000,0.0041899712733144264,-0.04577287336401125,1.1788959901322476,0.4524321418154569,19.758921649489324,14.385806044006102,99.98212178631069
5020,-0.00488145769143334,0.020341490458925263,1.053849648485371,9.209742071210771,3.729143304929364,13.14715609421703,100.00179579547115
5040,-0.05249357511981795,-0.02754997588908897,1.121935135158544,9.010383402633241,-8.641804008275324,10.121779478257745,100.01755661000506
5060,0.15515465261195854,-0.05794656729678576,1.2233522610403236,1.7287143317855547,-3.3228085906004807,6.893976429189271,100.00125335495824
5080,0.18107257447575828,0.09312301908271935,1.173263536046217,10.101859229233828,-10.054747771780592,0.6897344777573345,99.98748517574406
5100,0.14269847442900713,-0.011977133526239693,1.18504227203989,-12.765268526961318,-11.44664361739624,-2.6954074935820573,99.9657320866345
5120,0.2862570733375762,0.012154690428589557,1.091217012402469,-17.01586607847152,12.305435463704526,-5.019705296780289,99.95567522672057
5140,0.1274564623618216,-0.04755147356567276,1.1088358566139136,-7.724947331210591,-3.5902001716222727,-7.336044823519476,99.98242343943768
5160,0.2167071004637137,0.038284324053835465,1.1535391708279594,13.208035150500685,-15.94384311139874,-9.6312101852192,99.96631090129607
5180,0.21878258050321922,0.038132949115447984,1.0392137853578691,-2.8966511585192833,7.214492245111242,-11.031175077007555,99.98096816892097
5200,0.18407590253005449,-0.04728194885001256,1.13075848917611,14.229637101087182,5.345746415711101,-13.074900599584184,99.99967956123317
5220,0.1506377195143449,0.07716487370586957,1.0151313108927096,4.2815552070302605,33.572312408260245,-28.070861492749582,99.97550172502824
5240,0.12481753403213998,0.11798555899660189,1.034550708366913,11.978099711464182,-0.524732436646344,-4.081316018284381,100.01110715549129
5260,0.07163283637361009,0.09904506269564509,0.9003394392553672,0.07319728649306449,12.617202319134472,-2.6894732409477378,100.00696054943899
5280,-0.0024316444771482794,0.04605085238035622,0.9675173041473184,-10.711461343293724,-7.872364020647198,18.263887741412333,99.97483956303468
5300,-0.026248626824961447,0.03191435300876634,0.964396415161772,-8.0467858635029,-5.857056928510994,-0.3718799559127109,99.99375060992777
5320,-0.05823434065655801,0.05287169943954088,0.8862734992057276,7.3114237321628135,-5.771405398988336,-5.013687604421253,100.0179959679526
5340,-0.12932462331137584,-0.05783744776408505,0.8335235618862283,-11.395056543218708,-9.894893036832528,-14.709220655651032,99.9783927836121
5360,-0.15332960460041326,0.05270693397145354,0.9091282508210065,-5.310258219272198,-2.173210234966455,-5.602566959495316,100.0184893488878
5380,-0.2044348754132019,0.019150358740599352,0.8786756861662934,-3.6908739566538094,-19.836799901058885,11.018244287352607,100.00286431816555
5400,-0.15106620228889703,0.04448819794474454,0.9159857057441503,-8.244103241781833,-4.731775462984937,-3.8712373597468206,100.02204123861685
5420,-0.17664115618175286,-0.02586089803201394,0.8863041541594892,-3.363587362689332,-22.239374844239357,-0.3644034448267818,99.97037129134145
5440,-0.14283798793658048,0.046326466459604775,0.8245695779440583,1.07037504463076,-0.6325111884661526,-8.409651194118991,99.98919596464135
5460,-0.22459941107537573,-0.039640786634633024,0.9015741821091624,-15.734904694941413,13.780247971014653,-12.88847600903928,99.97152392480066
5480,-0.18178300758866334,-0.038807195491806036,0.9624470738742159,1.4646583933413047,-31.343987728888933,-1.3766933477621794,99.99502342252893
5500,-0.1266363273015227,-0.03024172600043328,1.056305070806821,11.248916121729508,-9.031935466669962,-19.833290778000393,100.01983721444752
5520,-0.1414047282520509,-0.029437315960364807,1.0713131266310914,-2.9617260764629627,4.948406426629093,-12.26685342388772,99.9660399703536
5540,-0.06592164447747584,-0.0849693939515584,0.9704948516181764,-11.845238637564481,10.998915130432858,32.3328508635792,100.00086835262171
5560,0.021807363973949962,-0.03673573173985684,1.0556881042022048,-20.53503154560545,9.391430871358232,-0.45986778933648637,99.97890891073992
5580,0.0738253729462615,0.04597753218869675,1.0491307623572288,15.824879116641988,18.106688670805475,3.4628784925638554,100.03079627695067
5600,0.13630781403296477,0.10413598912414908,1.1990606761990192,0.5758763231424795,2.843640687692552,-15.243674342302524,100.0380676798442
5620,0.06484873509899661,0.07009602029542507,1.195951536255437,1.0458483159845846,-3.693249946561873,15.719469817485608,99.98977230785071
5640,0.1573391907121805,-0.06647174402135331,1.1490495937874254,-17.012315240024954,-1.4948637493196237,-2.5053376662155165,99.98016680101827
5660,0.10770565244925669,-0.03607726514470773,1.2224439603148407,11.45486017453294,-16.67040478942522,0.6414382150438764,100.02804685686418
5680,0.23265360013661457,-0.013707105964009503,1.1796403014265724,-2.0135338696616722,-20.092828323620893,13.173573292488484,100.00722699173205
5700,0.15766544413205813,-0.03158133664847145,1.1601846020920932,-0.6651188359774601,18.287911325567617,4.098492381061599,99.96616644538338
5720,0.1760951827963468,-0.03780479558187487,1.1022699827468452,6.624277846427058,9.197351378517462,7.276016715150726,100.00766542019049
5740,0.23022118554006477,-0.03569082559723932,1.168076063676029,2.9586390160170106,-14.090160346516939,-5.028135843471146,99.97874835250961
5760,0.13960744201566933,0.01998618032997139,1.0172931367734985,-17.010732257860823,2.380781815062245,6.30047264453148,100.01181323959153
5780,0.11183719624550403,-0.04983363155033838,1.0613270621840005,3.3502750536858916,-32.465734140521306,5.03527870862087,100.0223969176226
5800,0.03108002026518987,-0.058091447088267,0.9838627157661911,-17.988395574709628,-5.974064539307356,-17.56681688085438,99.98881756636361
5820,0.08619878900611554,0.09923307692494929,0.8774011149262319,3.5129423785693885,-27.62852408209683,1.4892275888593263,99.99270443868957
5840,0.028407282276247586,-0.07035131059932336,0.8892484344763255,-4.049497391673898,-17.509044716797334,4.795219137710388,99.99888813565603
5860,-0.05500879610690673,0.00176876587082851,0.7932689295450274,11.8831036140713,0.5929871718801245,6.2654909510186885,100.0004705759274
5880,-0.0706635960454248,0.04040470003647809,0.8317585887703605,25.958103257010023,-5.669056746610359,2.137035673110194,99.97673075617621
5900,-0.06829906493345261,0.05671510135025745,0.8759693036108833,-1.0238259228257685,-11.990819780020304,5.792245143442297,100.01217242339234
5920,-0.04812486701957519,-0.030677683470703623,0.7251612165070866,12.850500824213569,15.353213271694798,-19.46693034843333,100.02484409109356
5940,-0.2271482289818316,0.04256531864070667,0.8332026325218949,1.5305024417190887,26.503734390253342,15.145770755763088,100.0257690394865
5960,-0.22830986588117824,0.050243526657421295,0.8552341093616078,10.960885339905433,1.462204561312621,17.51730912315575,99.9863176854079
5980,-0.2799294287845801,0.05330011698838702,0.885988770654209,-0.9635140778009135,12.013650829456761,14.934271567839161,99.97177240704922
6000,-0.1377175543631333,0.01917090888871508,0.8642876512989728,-6.503731033009155,15.973783006256426,10.054108595784108,100.0054561621709
6020,-0.18147433713824107,0.043495415062594724,0.8784662874868503,5.583458889850299,-8.4566890980054,20.861462364076942,100.02487233593496
6040,-0.20340287896499626,-0.03306716050450389,0.8400936778375337,-11.313819357863814,15.855317113392548,-0.5905616582317755,100.00520321342728
6060,-0.12725475505066522,-0.010473686597908836,1.0509378409738726,-1.328226563361239,-0.3278829128992923,13.626299024493242,99.9847688639348
6080,-0.08515494666217714,0.03683558048739447,1.0560030982576973,9.789063279361832,-7.532034990883735,8.826987922181338,100.02638366952313
6100,-0.012212420339551385,0.017165422768607146,1.0541863440629178,3.192226108909355,8.626668854904443,11.255815215553792,99.99041264778485
6120,-0.04847791456227524,0.004761192843461644,1.171826310700131,-9.912415261229434,4.153941168184567,9.814985070108108,99.99910406945077
6140,0.04537749849554104,0.00364617358118241,1.0986397729762079,-1.767468321505944,-15.12186504988966,0.21716140005639287,100.00876059535629
6160,0.08763650784062071,-0.05307008947787768,1.1519310764193855,-0.7650943317597776,-10.068840418603124,-15.894337025516599,99.9901391789068
6180,0.11270839432182798,0.039475547092731315,1.1554102709912093,-5.614804588829434,-7.367779022273984,-15.478060104331739,99.99197417390917
6200,0.153069797250055,-0.020577784641886573,1.162830468280987,17.265034126196966,-10.801021638994861,-3.98543563231045,99.99031348804418
6220,0.18222556513051183,0.03553072847041666,1.0842935786219126,0.8183750543687249,-2.233810539534537,-8.667335633856712,99.97831271729268
6240,0.18916609373653048,-0.07595866036783645,1.1848075833210872,-7.7804116212786685,10.685107323405436,-2.437547241747281,99.98618697064823
6260,0.16823010951182027,-0.030738595834857274,1.1270608121281294,4.604068370815371,7.8216568510502675,-14.294077311767245,100.022319450061
6280,0.18688950090874717,-0.019401717047515966,1.1264799998096737,9.029146128817192,13.643236495772953,26.989264787807073,99.99090653548187
6300,0.08826775011376273,0.07086553295206223,1.137902325082401,-2.821902979171624,11.924333755653127,-0.12272895193813399,100.04335774098514
6320,0.1554498644950481,0.0063291663522282845,1.121936313685493,16.02880400169237,-4.577845437889933,-7.962180158783852,100.02811577619498
6340,0.12961200603469422,0.06464637895282685,0.9704932688828369,-5.745685584614239,7.066433433676134,-6.142160145000986,100.00661640040184
6360,0.08721087471119458,0.097010568107889,0.9810184960838985,5.870001203563814,-6.4172201192735585,-9.898656802836207,99.98720123532632
6380,0.050822740409075445,0.07934906482494875,0.93035879051937,-13.565346338893502,-14.743985280105711,-6.967546025123447,100.016442503218
6400,0.021636151788477984,0.09222284404845627,0.8601914337114444,2.664759577098223,15.256763761956396,-5.077110215474642,99.9715632645476
6420,-0.16160101793829945,0.010370911021011855,0.824850830514936,-2.704355622805131,-0.6175797485323531,16.387300312697427,99.99655564696153
6440,-0.10119170004979057,0.020090470036059387,0.8799550540329569,-12.53460414164142,6.754185896788266,3.9262655355248235,99.99034434919008
6460,-0.1902085505867897,-0.029113630234501548,0.8943594095505166,2.9176789601020823,-9.09857326304564,18.11664735891263,100.00261735555834
6480,-0.12979957901413608,0.045304675792944386,0.833337766841524,13.729660573052413,7.594231429190497,-18.02989863864155,100.00416940387221
6500,-0.257084692487597,0.052813610767488396,0.9154975008754019,15.045405786669068,-6.2880802330548775,10.708669053970063,99.98756533313646
6520,-0.22918453227483593,0.07300806044148021,0.8454753754350939,-13.71057496437587,-12.405845117060013,-1.7001525107665079,99.98299001436575
6540,-0.2040419418579975,-0.033734155368779155,0.9294376651901048,2.515339671227241,4.092403862542043,-9.660459200072605,99.99714749398231
6560,-0.1574596882047854,0.005735821707017152,0.8617621533014931,10.841965329290256,-1.1698015384470508,12.045526895855978,100.00502591125246
6580,-0.14350051793142146,-0.05701484659598874,0.8242193991845194,24.748628370730557,9.268129155066253,-6.685342965984464,99.97935985692543
6600,-0.15753486024602212,-0.036461807781233806,1.0175130742218914,7.472580483272117,-10.920142121065881,13.276376544781545,99.99926660894538
6620,-0.04147050134723125,0.04767119254205256,0.9422789369438517,-20.03523298001222,-16.12859636284822,-6.725836091274277,100.01243110317876
6640,-0.10882704410584279,0.013347969218947984,1.0501887877125855,18.49024661945046,5.754788431288098,2.644939250138541,100.03322161917181
6660,0.07211006921622348,0.018664055998176516,1.000226888439656,-11.209676141278331,4.442961651609769,14.232506336081089,99.99986103138446
6680,0.08097936114156931,-0.022643984209723213,1.0458673035516584,18.860710651431166,8.260058487032712,3.60059840644305,100.0024379542709
6700,0.12115489753509037,-0.0058325689002486514,1.158532804311486,21.872398769833644,18.299414795926133,6.5328725237854215,100.03551530332471
6720,0.21157013050241802,0.07409530181840389,1.200920480115268,-8.818191069938155,0.7488290299149392,-7.958552247621688,99.97263603113886
6740,0.1749042517324464,0.008464506662063217,1.1572559153106003,21.364232130256745,-13.709062403745232,-2.1321484637665824,100.00032650978957
6760,0.2455263979691276,0.011652727121776668,1.124854340123176,10.888224408624815,2.347951919739906,0.7422935655848364,100.02484610635081
6780,0.20306711335703861,0.0002469796411209198,1.2621405446501621,-12.718642822348038,11.268770523466731,12.268897812589726,99.99727482519401
6800,0.11081247025061908,0.03945714931527668,1.1834176747606306,7.0316187229008555,13.389947071097392,8.266221462258727,99.99628663928199
6820,0.2164704474162811,-0.0775741265812106,1.1883603699852228,-8.913984887816717,-3.5280876043324243,3.5251493221789527,100.02032340615595
6840,0.14955713899287543,-0.07397648313935322,1.15217591072665,-4.016914377759507,-3.1986843047532076,-2.3826618012665564,99.99020648300204
6860,0.14433175244229843,0.04013234910028801,1.1514459779003563,-14.757383860117677,-0.6745685207187586,11.702623867696532,100.0030186924291
6880,0.0373519358247935,0.03801414712413676,1.090269251906551,0.4327877107706781,-17.977104919408795,3.169164055235113,100.01891250679452
6900,0.052487498482772496,0.06385609977207585,0.9301407007518763,2.1251470652690583,-5.8542704463990844,2.146256183375845,99.97407029381385
6920,0.1268816725036036,-0.0853749927814437,1.001032283951078,-1.992611300798655,-19.49561639005726,0.5498348154606159,99.99350144271575
6940,0.0431882540866037,-0.019119543704844415,0.9317355142421934,-5.391958486791984,9.281185014302173,-22.52952817714476,99.97171187823919
6960,-0.07811687802133438,-0.005851719312859095,0.91249000742243,-13.782123768135836,-8.472432275916269,-12.956594995386403,99.9715731163014
6980,-0.10829372286508071,-0.012825367255708998,0.9057200414598451,13.572476121020713,9.210023673318446,2.314555765683916,100.01850740389904
7000,-0.06792778075553357,-0.0708220546609632,0.8781316336325448,-9.38089953551226,17.991201899929113,0.3316680155679108,99.99607500874276
7020,-0.15447390623923873,-0.038499375644593214,0.8548963619366061,4.143387484306866,16.990620693843432,5.919091339404126,99.9852930389189
7040,-0.16242303540190736,0.0010412970090842874,0.8330759814280455,-10.298080319854408,2.887289084633627,0.333567114876931,100.01177809274385
7060,-0.1682290763475426,-0.014790533411100634,0.8814092477775766,5.288163127721721,14.893174188375287,11.908275952569435,99.97425412718131
7080,-0.2243809416194728,0.06820537577477996,0.8081975799101458,-11.431064178150136,16.01786561765973,-5.326741051589861,99.99533742837528
7100,-0.20346504596763285,-0.008690342512473253,0.9097528553164045,-23.41243005895279,-6.447601419616705,6.156707701886166,99.97741676953126
7120,-0.13206881961423472,0.0913378387828815,0.928415781694678,-2.1516192377043994,-7.225291327888776,21.597030578562,99.990915596049
7140,-0.16207051710732365,0.08390780895932556,0.9379024446009956,7.905097101698582,8.342633814606463,7.0553291565860885,100.00489467012967
7160,-0.11759173658688057,0.01489817647307889,0.979295943240224,5.84010850282173,13.270200484056726,43.06420953797132,100.00186794428926
7180,-0.08381664336484573,0.02656687470912284,0.930660484275436,9.005247971593546,-3.0395832241284975,-13.059090933842512,100.03386858579465
7200,0.04533769715920612,-0.03204706329062575,1.0422212834839477,-15.21082855900249,-2.907410112127825,1.5374004626005573,99.98326084198169
7220,0.07293349977274034,0.01791935379970273,1.235641034111092,13.608445493506807,-8.282519567392022,-2.9343184616896965,100.00968955426914
7240,0.03287905761969736,-0.016821652339362583,1.1366589194132506,-17.802927174363504,8.005248777461198,-16.259994082383347,99.97243522846503
7260,0.12787086976766582,-0.004202814761927788,1.1541204240459177,-0.8979882545084754,-0.9818627037812893,-9.522500241989455,100.0240861216184
7280,0.14589753379065645,0.0022510616023224796,1.2591761902867238,-11.653123634739968,10.273810688311753,15.543703764212555,100.01242362321085
7300,0.18657539663332226,0.02955273520243636,1.1741867556174586,2.787109844208424,19.163965451501742,10.643835341072531,100.01832853118135
7320,0.1779241279298639,-0.056660995162321016,1.106425076953992,-7.9435126347907055,-6.123766762324714,-7.564016340606035,99.9978541732282
7340,0.19927714739629454,-0.0467377933306674,1.1789789200790786,-6.722957182120893,-15.477294680501906,1.2605833992283917,100.00799043590067
7360,0.17316961389597088,-0.07935954314206396,1.1762609443017493,7.3061383695080915,-7.667077549423022,-4.5661616433374,99.9965425786803
7380,0.2351758478140065,-0.0431071982611849,0.9919413289338571,4.298894378106695,1.067319708226778,1.322844621572841,99.98854011159384
7400,0.16826918263494844,-0.07049253117612633,1.0257745271884722,1.530496429098465,3.350067108842973,-0.4059866667114933,99.97708684957934
7420,0.09570395431886602,0.014004098982247276,1.0078233816307034,-12.412422194908821,-0.11746682683106953,-6.9686430473846706,99.97839146195778
7440,0.08448125413915747,0.08678443174653112,1.0508592849856062,-26.561795087919783,-8.533259626140177,-0.42039735404725564,100.00483694185972
7460,-0.0228021400235328,-0.01184184064026364,0.9372166551846014,-12.27326030432732,9.156402510381396,9.235476872857038,100.01463904129746
7480,0.043948672317907375,0.014502511790629164,0.9017238971700665,-9.403978663366305,-10.129868081719733,-3.498870015246067,100.03151467111245
7500,0.10651537222953765,0.060117981659111176,0.9147665981788494,-21.996921841236404,-7.130576078639745,-3.6564799538409805,99.99003199635956
7520,-0.07620840259745806,-0.02985283880307072,0.821181493084255,-6.149202096710244,6.187764448212738,12.379252101334416,100.01988248957475
7540,-0.11083393300790027,0.01710208273478157,0.7999757946185714,-1.9514008563089944,-8.441193826674523,-6.600348460896132,99.97937361931534
7560,-0.060490289255388005,0.05855302485959466,0.8868410555395936,6.510029630714923,-5.759027585985573,-6.462547706737337,100.02921392015992
7580,-0.122598856510402,0.0567141620331303,0.8294069040221708,6.9428291882406485,-4.238297521473944,4.9474177627303035,99.99630951914534
7600,-0.1678665044164125,-0.0006996257026263008,0.8446113277735803,-24.64747568982006,-3.2566053679949336,9.93045242368219,99.98988649703591
7620,-0.19076116244327387,0.011721804909934526,0.8248715765008673,0.50367780991123,4.436889419559417,2.7148319902345603,100.03855344206882
7640,-0.1319720304111938,-0.006404942307399034,0.8597286784187496,13.255712679845306,12.567239327191317,-0.010557119748107354,100.01235850114024
7660,-0.2892834608119552,-0.02516546499535103,0.9235604623914095,4.964969149204052,-4.506723316066754,-26.46524267355042,100.00327702625981
7680,-0.14865902980298082,0.073053878889807,0.9020738191690425,7.595137006512195,-1.8654221586525752,8.382903586488531,100.0177270546491
7700,-0.04822492429922162,0.06293261931037615,0.9785847929854328,4.087472485763216,17.356170589781442,-30.471239941752856,99.99313156772014
7720,-0.15939063094637446,-0.025061567083666164,1.0412457041515626,-12.598501600959427,-6.035674673047382,12.652185723124738,99.9981019988351
7740,-0.14414177465903472,-0.005063799221121533,0.9873499471174559,-6.799596983672633,2.2142939082245663,-0.1450100254238203,100.0076451643979
7760,-0.11885757898385474,-0.019904421165496393,0.9861897288339473,-15.2814695327568,-5.608302829845938,12.077203652311173,100.03998118456613
7780,-0.07034627462952549,-0.06546343067427633,1.1160347867777791,-10.094568859321395,-0.7584741873405505,6.726677387239663,100.02202863640034
7800,0.08662795160876435,0.0023547246988407673,1.059463793114714,2.5400355889160044,4.495115328654496,-2.025162432826486,100.00466780329837
7820,0.1492894849982885,-0.05968168661191675,1.183247130387508,11.15620724758502,-3.1370943589103426,-6.386001522108652,99.99728899637464
7840,0.1337795552405801,-0.002621160288483857,1.0177976148556205,-2.11638794929964,-13.465318900445364,0.36208956847625234,100.01181813126087
7860,0.14068784011338517,0.005347680492680505,1.1289370511424357,-7.666656392014257,-2.80136639584625,11.585627672339143,99.99843780518204
7880,0.15993986750832087,-0.06906313260330176,1.1676343379552654,-7.140436847269185,7.54032764346586,-10.777954111051361,99.99575166917575
7900,0.1450128814792661,0.10471148314188035,1.1761837657148309,-4.385773184091995,5.249270647316932,-21.12544911173589,99.9833058535149
7920,0.204678054240834,-0.06251682497400904,1.1432629389045494,8.55535099580639,14.523738161038697,9.185453040354195,100.01218680659507
7940,0.19989688647858966,-0.06650707410456454,1.0459197007413323,-11.625228679967094,2.791649788647293,3.468576585524454,99.98426596565587
7960,0.07184768782918219,0.08488398362288271,1.1587020149027039,-2.3873699370544235,-7.041294234619337,22.902328683230998,99.99303816421472
7980,0.17315847854407643,-0.008791002166900467,1.0708102787630274,-1.783734930688944,-10.364471299499991,3.9247286424399075,100.01742611332823
