timestamp_ms,acc_x,acc_y,acc_z,gyro_x,gyro_y,gyro_z,baro_m
0,0.02305993576201565,-0.05198427903399642,1.0999056517359314,-4.871362565426736,-1.4987650557217223,19.181859317128087,99.9533564482187
20,0.1024740120144676,-0.02751785593413668,1.092292128374353,-28.40934098491957,-30.55179742079013,6.430637079852325,99.99890685133873
40,0.0858071392220892,-0.023887482742618663,1.1555638404322204,-18.870093289312045,0.4248753260163226,23.705637535115258,99.98499283325168
60,0.09564580284382919,-0.08998958905672783,1.1628101773758206,-11.933801900674966,30.31242869584989,-16.188034834519733,100.0059558256023
80,0.0969861203427713,-0.005414103906492307,1.1212796617911478,7.768267881971352,-2.997458260900137,1.5412775435792285,100.00532432235312
100,0.19463306032857766,0.09427236666960992,1.0667043051084684,-13.730376125360944,13.426747071177957,-18.713939827726694,99.98758782796068
120,0.2593734763177216,0.01967009650341783,1.1423654624610777,-1.6523020024422999,-9.815743834404953,13.001346484592498,99.98436412388173
140,0.23842508841536783,-0.07411802502745074,1.1753955112421983,-14.018564140858357,3.498864692505102,-10.306943853082554,100.0246253462384
160,0.19486911615219873,0.038506138226224396,1.0899676853915816,9.582130110305545,-6.089584387309818,22.12426967635003,100.00883199597834
180,0.25275572056001544,0.03523360040516823,1.0620701233262395,-4.0727942509284905,-4.43731219586984,31.875603226758834,99.96981775292434
200,0.11784334427348128,0.06045932553873743,1.0597807138528554,10.314016679380455,1.5707890695512257,-4.16532942737409,100.00004140869142
220,0.07429626179806446,-0.0024260322900324666,1.0117963542159494,0.35504767287924655,-5.790867529060116,-10.480321699525339,99.99372342079536
240,0.13194861150375692,-0.052067598714982156,0.9991868664025813,-4.9491145268481755,-15.055454468801283,-0.4941878537299127,99.97342541064697
260,0.12147220759070698,0.01918486798106467,1.036434328891832,-6.383664740130553,0.31517563370581503,-1.346305049568362,100.01421545910918
280,-0.022517309987460852,-0.0637441631767474,0.7834664840373873,5.891684137585093,8.070709603298065,-3.9858849617729044,100.00938040848388
300,-0.07610075953352632,0.0568624516376858,0.9207326053339899,4.543764330186887,-15.314802821080455,-30.029524917222318,100.0277745169373
320,-0.060436873763799234,-0.04555217381761254,0.8908890877971711,-7.936414869654028,-11.26588692094278,-4.543702237885081,99.95643264685197
340,-0.045859207527298704,-0.005346537419006043,0.8659766688954958,-5.91062467540674,-19.72765550827134,-5.373876415914108,99.9941256637289
360,-0.15681626914319172,-0.06622222332871634,0.9066037467528415,9.192508568690087,-14.90363491080084,-1.0432093305140309,99.98885969465844
380,-0.23973420904946158,-0.02612423752514036,0.9156832801486747,-9.452119507717471,-6.525835351650029,15.645888831093377,99.99825853595006
400,-0.19177960282851025,0.06305474825782922,0.8090372372305881,5.327996411129995,-0.5841701557384458,-15.874628400475991,100.00432394725803
420,-0.19717729558072902,-0.011700227622286887,0.8261400124108956,-15.873638973408825,5.714770478861319,3.757750600133334,100.01226134996674
440,-0.17318298679547922,-0.06369959408859831,0.8684376912180418,-4.002779851826947,-8.420384295433546,0.16475156624942744,99.99454346252664
460,-0.15531198339862834,0.06135637843510422,0.8701462442480943,12.20583718470252,7.169176831844174,10.819541030006613,99.9877314370133
480,-0.14822744243433608,0.01536515620498441,0.9037492827614545,-4.663766282566735,6.368587911065237,-6.371692884166762,99.99957772776888
500,0.037859736271733724,0.05103699926971338,0.9598478255674592,-17.552161077891117,-7.786106775295492,-4.236256031618604,99.99709709567594
520,-0.0896845261039177,0.002813825331483073,1.0308914464745096,-12.363430045142175,4.28527336237212,-1.0131877753878418,100.00686202643635
540,-0.007806292223157221,-0.07368476375407829,1.071374053977385,-4.99450727855121,-0.5830085625910255,-12.705815552288415,100.00071433990782
560,-0.06357860470417215,-0.03308656595924719,1.0747537551679502,-19.11008303356553,10.323367835084325,-3.173625760544316,100.0202197555487
580,-0.01891135564040343,0.01883053099000634,1.0763775595107408,4.072826371233925,4.653572161797065,21.312850814781722,100.0372732865664
600,0.09933042918087756,0.034153329481295194,1.1125272471661405,1.4376772256427697,19.865011961573284,9.500540545596248,99.9851625006184
620,0.13621380655005527,0.010087403667822799,1.1991306747640689,0.8865318017758528,13.09595183020741,5.396679126301233,99.95619671832338
640,0.19023182013093395,-0.06738512106649737,1.1438626621141124,13.169176430950763,8.677942486778122,0.26802242437464024,99.98410177804278
660,0.16005855326724297,-0.04583584416016659,1.1295898529007076,2.102357154377054,8.987177620408202,5.455763740466862,100.01511139563279
680,0.14995178806017767,-0.018669922663818835,1.1528382659642107,-2.1382181578702077,-12.932165533886177,2.2613276938545144,100.00388151929559
700,0.2499798468880178,0.06012767448866532,1.145931290029167,-1.5191667368174926,4.927696221266198,-14.721685680825594,100.02402664481613
720,0.19947619742354547,-0.018840009648679972,1.0814917034433609,-2.700961754323391,-4.388231418537903,18.93877548710623,100.00566795408936
740,0.1697733656854722,0.0820313986559978,1.1794372855390138,-11.153467333320625,4.879753295504104,13.10837262760315,100.01596308438391
760,0.1694803734514912,0.040358267385773666,1.0333000923550555,33.55860418427258,-22.98905545854293,3.456378821663118,100.00075815407685
780,0.1409390574645764,0.024360171306703687,1.01349741695705,1.2389360498489057,11.549255985886703,29.09897980607701,100.01468195016349
800,0.023602082325708748,0.02957030971868237,0.9695316903927808,20.51967742480823,-2.057852879730837,16.49083575344916,99.98607573642443
820,-0.03286603209141347,0.002958675985058727,0.8344296316287473,3.8821269878539075,17.075298289593444,2.872759953837117,99.99974141778075
840,0.019642385431418108,0.01811549585931305,0.822135649287445,-23.20139332386255,-8.449047817628962,4.546418371876495,100.00982779505985
860,-0.010464867654390649,-0.06256340495958607,0.8699379264654208,3.0224083521078313,-22.30174154006626,0.3431466501917208,99.99434900944277
880,-0.011071064379760881,0.061627786861296954,0.8319946710235264,13.425872467486936,-15.64438127331933,-8.0516149220057,100.01119211881894
900,-0.19418154063495127,0.05503469147964494,0.8941211672494841,12.855871470085606,3.870857929932434,10.802233808145155,99.98399812777492
920,-0.18577114478488774,0.011996661732060553,0.7893075544786443,-14.705934375559465,-2.53155446494479,0.4163889717097423,99.96979590327336
940,-0.11669426117417343,0.055109670390167835,0.8729978758357846,-3.686754617654628,17.661517830367256,-10.990787822788564,99.98982792194597
960,-0.14635801852506303,-0.06900122639086394,0.861041789986744,23.954079594612224,-11.793741475793093,-22.582510472274624,99.98857250880357
980,-0.14070878278631613,-0.06403241545232323,0.9495427208619929,-7.408224667804305,-14.200789276267322,0.4176725155017229,100.041438492162
1000,-0.14640693458904416,-0.026017608740965193,0.9493873585643446,-15.58881467030401,-12.084914186188605,-5.304480396237404,100.00354225807999
1020,-0.15330636720928217,0.03961086524629129,0.9445461008540037,-4.505428842299793,-18.616251551297125,0.3669326275200333,99.99453481949588
1040,-0.11463568555928402,-0.02119097779222229,0.9290835442049242,4.759217358372104,5.476785712555854,13.857011471323094,99.96419845624624
1060,-0.16987447826935026,0.02841639529785695,0.9378488079234489,18.17401045398523,2.5158203223748097,-3.149027707031754,100.0073810758189
1080,-0.18997875480865817,0.04894776379184265,1.015961034292561,19.195480709343236,-1.0732197625435478,-2.2380416787720065,100.02624951530761
1100,-0.12210321278977021,0.03168659010899951,1.0933251438259295,-17.40908557262144,-7.880006647171966,-4.502124759284142,99.97022042632612
1120,0.09133922979233364,-0.01899906005395325,1.0985895570559765,-36.34800022208693,13.567946809116847,-10.413997001408706,99.97822400541821
1140,0.06429120527238373,-0.011416957610144761,1.13084800654063,-0.17085370521670246,-8.9944386238403,-12.131917686415289,99.98728614328354
1160,0.10270413476564336,0.018370304381893642,1.239938110185231,6.655705390256239,-7.518143265378545,-5.205408024350295,100.01772918240964
1180,0.07067057585650979,0.007937829673821069,1.1744404243117201,-20.58919071720168,-5.702130012687386,1.2803315692280728,99.98757489451391
1200,0.08134298378776923,-0.04175036638483559,1.1690426058043093,0.6510462756059043,12.776155337937823,19.831626175752106,100.01603498236348
1220,0.18169633516037603,0.01215293288487189,1.152505442866422,3.008154281045761,13.268322437954959,-0.7381290887013385,99.96833363657386
1240,0.18090434886604426,-0.002101638921319452,1.1013618364450306,-7.02793298787045,10.151943168888065,13.918144536440515,100.03109543076671
1260,0.20693506618634933,0.06715955154296419,1.0938230971697425,9.395682725028756,13.360025694478288,27.386481713680777,100.00865451051604
1280,0.13110639948482253,-0.06325711629891054,1.0218625686516942,-17.956165944097968,5.289927537851029,5.655748295650881,100.04498679498062
1300,0.21728894671546434,0.04010824331849982,1.123229296216824,15.994118071481498,8.539748386700536,3.8184310428102988,100.00448307969052
1320,0.13790099032514672,0.06998832894026046,1.0521831719944932,4.60260502822834,19.785232480918218,-11.412772245235812,99.9955228686818
1340,0.07305678997011762,-0.024069766609725835,1.0943987468404597,-0.8651571664310033,10.194679272438144,-3.714334725964591,99.99900980672378
1360,0.11086573991251723,0.06674775693248583,0.9375451158406081,-11.383975450374233,6.290931333970775,0.19544683978504407,100.01426821995862
1380,0.06873001797438752,-0.0037194822134508036,0.9498690061361225,2.157366525429394,-2.387128905524871,-12.59183324796371,100.01966855776976
1400,-0.022836386762291758,-0.029063498151475454,0.8610842943044024,-2.4987912953425613,12.436419309934674,-9.246810014747297,99.98764276205647
1420,-0.06803028685821275,-0.012028408094266618,0.8881410320157622,14.015648449094469,-16.323442611383253,4.111669460377817,100.04005125206588
1440,-0.1547789152454915,-0.028665888571217768,0.9217221865564678,0.47750123460817784,15.11150538047304,-11.192205617280909,99.97342854091298
1460,-0.2077879197692481,-0.021651496585677752,0.8998772429991517,23.552999590332384,-1.2431750671391453,17.110254218445256,100.017612054619
1480,-0.1874639641883917,0.04288406788847401,0.8788681783098904,39.77482526258656,5.698941424813555,5.00819049466858,99.97730250033418
1500,-0.18710032494516915,-0.001475893167857252,0.9115452044667494,-3.275996294979273,9.2298548105764,24.124900120897003,99.97091023605745
1520,-0.24545621774702858,0.02229952348860561,0.9244982976058057,17.06720839606551,0.8963985677494806,3.072502458762316,99.98674509401016
1540,-0.2124241542622344,0.003645133722021517,0.9405182771989566,9.99861789504373,2.4618212281603054,-15.728587307862927,99.98231074366623
1560,-0.11261147748154982,-0.054437563013491855,0.8679493527581127,-9.100928429982975,1.2311838912914295,24.33419457083864,100.014030523993
1580,-0.1432584218723269,-0.04270278618976719,0.9008055251008424,8.43328447070511,3.123741664052842,2.7387944874809174,99.99393407367086
1600,-0.1261685842993271,-0.051450097561470176,0.9546541463821823,0.6779405006512113,-5.846843856335193,-7.768403335798633,99.98949282590839
1620,-0.05227520524046811,0.1274663802564789,1.0194670752108832,-30.67416978048073,-1.1813957627674334,-7.319989553077059,99.97741151749487
1640,-0.020038849299510997,0.039233637083891854,1.0736176727230158,-7.2358690427661,-3.9747888420524564,3.417272860697496,99.99687139785713
1660,-0.011329506944686046,0.031431201232580266,1.058827335525749,-31.346960099086715,3.8477386193499177,1.625219836873352,100.03278275888445
1680,-0.010263420959026048,-0.07622951378924743,1.0802135459767348,-17.361349102535044,11.266193910286379,-5.4394216080524265,100.02799871673562
1700,0.15925116464844447,-0.029542376237154496,1.0802940571682471,-0.3408188051609563,-21.972677263082563,2.316382142702847,100.00465740778253
1720,0.178604863527658,0.04256187744745111,1.0685726610840862,-4.714504917189831,0.38651538089549164,9.869790695086966,100.001449933501
1740,0.08199740375931124,-0.03333014627455137,1.1377196318978802,9.750017945314788,2.6404585258591595,13.715849252386082,99.99418506757638
1760,0.1797594677777406,-0.001116403839527614,1.1600251279145184,-4.410872126342169,-14.799379983296161,-15.753553334377727,99.96665180978296
1780,0.18049771881207285,-0.0037517133038244654,1.1118519808907614,-1.227481069580108,9.833242318767727,7.287890793944301,100.01289247878766
1800,0.22693875342650455,-0.035641419898147446,1.2151513567205383,5.260289341759954,-6.707896025027666,7.6302799916417445,99.99430622941732
1820,0.13407526240244172,0.08719442983908406,1.1201736052948583,-0.563662293006754,9.469737252413339,8.81723375036257,100.03298333794152
1840,0.29292334554408467,-0.009477608987560199,1.1497328438064105,-22.10918202000945,-5.810326530747317,-8.708591500440502,100.02237939585685
1860,0.22295816422207343,0.07631151581986195,1.1171564017826499,20.216889821431725,-0.4559339681485277,4.329788572791647,100.01864757931992
1880,0.09464862343778727,-0.12441727865766246,1.0565490463872516,2.6088749728728455,-14.252133139116765,-16.152515012147727,100.01507303940019
1900,-0.004983546193493588,0.05313045329915379,1.0337053076740441,-7.471386077906898,-12.627769297778968,-14.690890692688257,100.00250190555026
1920,-0.05961063026946102,0.09240150534329283,0.9867800440585304,-6.01744192251844,-11.145005325531942,2.9674348657978773,99.96697343547872
1940,0.0038780865284461265,-0.03797818348036922,0.9942422758544309,1.5568909520623166,-8.67058705399956,29.041672618317172,99.98767614446787
1960,-0.15386365979373176,0.008496240028250527,0.9182506941752436,25.004021145552798,7.199798766898663,3.2806909534427087,100.03367224602466
1980,-0.10578779162384422,0.009571462343700944,0.8076604710599047,-0.9831375732672865,-13.580449969532204,-10.295826232458214,100.022872423848
2000,-0.1253575022694418,-0.011540527978881443,0.8423218131958088,-12.52507297957991,4.156084054056088,0.36111509581724294,100.0008308498474
2020,-0.13169226762566763,-0.025514385737209384,0.7698378107720208,2.7381968973264668,4.894868994426619,-16.75286669865052,100.01465572860779
2040,-0.2102234638971287,0.05039291155656759,0.6937505547077443,6.749009416967976,4.303524327381075,2.5125992954748733,100.00465827121275
2060,-0.23662569023743493,-0.018563680438677926,0.7704418038784848,-24.778528296680815,-2.0047228235889913,-6.7359218299988255,99.98193393535405
2080,-0.2993104251049547,0.024636495811676175,0.9577550075681229,-12.139912454116246,-0.835445347112147,-8.195859196072298,99.97212288202483
2100,-0.26087741731135117,0.0297242876296958,0.8433872603953233,-7.2522974711683466,-6.491656597457391,-11.259206005988105,100.00928545951595
2120,-0.27901039471217404,-0.06512302522937564,0.8785858639994368,26.70257584389603,-0.25223048648866814,17.944569555426963,100.02952758471244
2140,-0.16053735751389633,0.0017133363624019416,0.8774156475257646,-0.9513024066992786,-3.336057820268503,-1.9488400149673442,100.00362456757625
2160,-0.05809627426354186,0.06373713464275106,0.972622948292453,-2.43489764381217,-9.361622619958549,-7.991697080219275,100.02654618647107
2180,-0.16272473866533727,-0.05862405843784401,1.0270703221537092,-7.654840118003637,10.810782942331725,11.613904520379666,100.01355990708547
2200,-0.11320513667416347,-0.03408220249764526,0.9963836786360085,3.251269474231629,12.636572605435978,-14.680558012392195,100.0085799614047
2220,-0.016979699821790546,-0.022614592423699433,1.054553982922676,9.75966938227725,34.86983289554931,-0.42067968960623064,100.02412248906558
2240,0.02560094859692616,-0.014384890861980354,1.193322981919348,9.10054060918763,9.85782006236988,-21.535750434254428,99.97925759876463
2260,0.18516100408702812,-0.004018322252261961,1.1055356766707023,2.7469846559179354,-12.32467239619097,-6.864910372751014,99.99347131185407
2280,0.19400626937097504,-0.007635277827362912,1.0880210221245055,14.709301182337214,-5.920773777769698,-3.222314843238612,99.9900125424702
2300,0.17496487936269342,-0.08140339590562898,1.060368534003162,9.780117180692308,-7.675221175182621,3.277938685030626,99.96915211065883
2320,0.14389214043703039,-0.009272333451427372,1.1363754953752718,0.11936158762953697,-14.65424744704087,3.644207973294343,100.04274217911187
2340,0.2957180411933879,-0.0603924177459521,1.2128706024407498,-14.07561444934163,17.801275674772967,-9.215572651727516,99.9891960568766
2360,0.20316618348356053,0.010534860868650502,1.0381962731359862,0.03641379050420959,-11.28715846797227,-12.957934253996704,99.96238407184644
2380,0.19642315504484922,0.020887007934144764,1.123226537319756,-0.1620070148611246,1.9331730235904687,-5.42586360581681,100.03379306704572
2400,0.21121594852071826,-0.08073984783853227,1.039446318876448,11.481570366133987,-16.64250369109107,-8.000937616956524,100.00019871384892
2420,0.1494920356864789,-0.031630200539376506,1.057606132992976,19.071136058646374,3.641771332382266,-11.809375090205242,100.01775048839265
2440,0.042799131419292535,0.007163710720147112,1.0596789875930521,-0.15174573223485605,9.302195504389141,-13.129597193904424,99.9969580424169
2460,0.14877501564350604,0.03894914141091236,0.9516710777622928,14.830211244420973,0.7104088095234959,5.186580754553832,99.96592608440301
2480,0.014291168912873381,-0.05886327423952592,0.9798859380220837,16.61598661253865,-0.4939336138036873,1.9413219756223712,100.00713449910609
2500,-0.022968035118638677,-0.009429796670044274,0.9010346205892462,10.49109054271457,-7.8946409640291595,16.0598662052315,100.00220245800979
2520,-0.02335302564620875,0.10967613413462084,0.8437597697539,-16.156406280146825,-7.5267276425305845,10.757537566266206,99.9865297724779
2540,-0.008680160847533841,0.04863439181925491,0.8744977350783046,12.533859119254112,0.9253179325815655,-9.934315124433471,100.01151898276031
2560,-0.17538533396693062,-0.05577753921865628,0.8947067977155476,-16.671177876716506,-6.428280184755087,-3.7442522258036344,100.05036351787749
2580,-0.1813146338637236,0.03477801187347818,0.8420552660097318,-11.870041908417157,3.8009803590755498,-6.537647767068048,99.96285867167504
2600,-0.1701520679807923,-0.056458643327270214,0.8698666056561889,-4.067605289120998,-2.2997236205912865,6.729814206162021,99.99426048638713
2620,-0.1951926957703296,-0.013251754917613438,0.8659043395788234,4.9867895730762495,-6.979623761509503,5.249774081451957,100.0314464825658
2640,-0.10850326996648851,0.026681541972036524,0.8648924163245896,0.9522664835998662,-22.738702846809407,-9.770785200115098,99.98159595612363
2660,-0.11153709357254102,-0.007649239348178666,0.8619936463339993,-32.288801280205725,-9.090104613017406,2.2648150672492617,100.04517609678405
2680,-0.15823619355206683,-0.03206284053231179,0.9555305699672658,12.842395249577699,6.327963358233669,12.583851867849006,100.05635544057354
2700,-0.08337861710271581,0.02241143180249224,0.9679551248853505,1.4950261368550144,-12.816274319412626,-3.148008393015764,100.02057125838992
2720,-0.15537571534553649,0.028592165035495727,0.9359645180003338,-7.6444237219677476,-1.8539774023328883,2.196042662994121,100.01730135139013
2740,-0.08553659059745794,-0.008443257852946395,0.9760095861291983,8.110161466850773,-32.43985911193451,9.94709059985196,99.9813679440096
2760,-0.04347354112097974,0.04325308382274548,1.0554889667204614,-7.5507527571244255,3.992687245631691,0.3890085006347138,99.99643775539728
2780,0.02005805758879018,0.019502581502040303,1.1713297504835185,-9.066997584278036,-3.6417729052617984,0.8777838797533435,100.01591767657256
2800,0.04420017926350261,0.009521165363230697,1.1780067768598936,-6.697027964666051,1.6179142595019242,-7.938709528594078,100.01023843723364
2820,0.036323121652037674,0.07007116440275396,1.0817013988746855,-10.088765716773743,11.512698590123698,4.180032901312125,100.00002629956376
2840,0.15353060322557185,0.03855635581544199,1.1442587456030835,-14.18872569455521,-2.621216630582156,-22.3568571714512,99.98653098922287
2860,0.19406014297873608,0.05635110299430708,1.1439993787736884,3.2395645952361214,2.292937779668545,-6.449977950997967,99.96414243063809
2880,0.15623645725960758,0.019823644625661323,1.0824050378140746,-14.311051655953506,-13.767963441663454,-24.63457397536422,100.01197743493528
2900,0.18365484913110194,-0.04934557035065451,1.1439075501919886,-2.9813428866634135,-2.3381890795184788,8.795107735564319,99.99429481134418
2920,0.2203365058146183,0.0020670162033074903,1.181516991614843,-1.5699263662698013,1.6655884016494529,9.81076259664365,100.00597104798761
2940,0.18206386052371598,-0.016969200800252913,1.099759789678916,-5.9058849409589165,1.01438174190049,-4.33117465938492,99.97332857223884
2960,0.15275371775655003,0.029315751391758668,1.0360608944769916,7.820735213370967,-12.137824405466471,7.111953701506193,99.99067738857913
2980,0.1334844410678758,0.03603199369970419,0.995613756406975,-9.358992678297135,8.325099919188133,-4.9025067736846815,99.99082426107906
3000,0.08431096335000209,0.012984309429245383,0.9901455359526561,1.1053308736565959,0.6929503689802707,-11.896474833432723,100.02102715705509
3020,0.10337726788830995,-0.017541679532964163,1.0349328737027979,9.782818979064778,2.4738584759651547,20.50547222140755,99.97021065688175
3040,-0.054588233080861005,-0.10412854638213825,0.8992914835756834,29.5354324302157,-8.432768546662754,-33.61822088124542,99.98912996180911
3060,-0.0552602803129928,0.03685566258276788,0.9633316607730105,-0.8672097543556732,3.615801223084735,19.699828793032104,100.02117556515822
3080,-0.001724343339935562,0.011518864967731222,0.8668322201073266,-10.055502713879115,5.652896336085889,1.645287095116824,100.0163846254537
3100,-0.05247948975951428,0.031679936900736616,0.8035537596753946,-4.560657279077541,17.796989296881218,8.816777985775337,100.00963228608848
3120,-0.25194509013933675,-0.07383246680377552,0.8702747304428895,-6.10179782332402,-13.124543534799209,-5.549232888272387,100.03110095367454
3140,-0.1462752053487045,0.024957445712921977,0.8425169184920884,-0.5210480680447451,-7.941357096006621,2.48735462727751,99.99955507412501
3160,-0.21643903759322064,-0.005825328359942785,0.8961818928875236,12.181858625106845,10.910913775879205,-2.867405888433079,99.9893667317804
3180,-0.1849096420600905,0.0037246882030974684,0.7803689774513136,-1.0856059332086958,0.42122716877892663,8.545340705911816,99.97504465466463
3200,-0.20891959361812343,0.005378665935492783,0.9606390293827689,-11.754802827625744,-2.9700814551779504,-2.1083949763478245,99.99144492419455
3220,-0.2606881407451138,0.07221552539706895,0.9339500939403464,-1.7023398082787127,-13.142098792114275,3.906049602464187,99.99832213447851
3240,-0.13511562849056788,0.04896929652715973,0.8748188401217909,7.532082405290277,2.737668775539477,34.93687053366172,100.0324589582198
3260,-0.12882424260346545,-0.03897119488778589,0.9790288495769227,-16.6494861816483,-3.220963105377865,12.67797302016503,99.99484161123627
3280,-0.14882070950878945,-0.045924348256507354,0.9625597962569876,3.2100838461414773,-12.532848890908515,-9.002812430106214,100.05343825938274
3300,-0.17326072236936957,0.013646764713534092,1.0178629610014172,9.702945533379593,10.31166840031138,8.377223600089795,99.98884941217132
3320,-0.0048670399160726414,-0.043995139179830584,0.9761315190203113,4.318777475611306,3.4214623209936845,-6.283082052201376,99.99050190455884
3340,0.049745314194056395,-0.060718410561762505,1.1111620852336095,-6.8777341970234716,3.1496327980847583,-3.638873929809195,100.01466504521427
3360,0.025258769255575728,-0.02526686550816129,1.0703123239088324,1.1606078195428577,16.309139167291647,-17.395078265443644,100.0017469402686
3380,0.07661618912187011,0.06706583769801572,1.1912174378769074,-6.397292572464012,10.050701224295478,-17.422243787151945,99.97402874415434
3400,0.23579076070786303,-0.02130992116010689,1.1260875731601883,-9.830684955624315,9.308225442146437,-14.248244991541625,99.97772970785448
3420,0.10999564510390375,0.022933128269270263,1.1802437862848842,-5.30905049502443,5.085003083429004,0.4409445650598783,100.02181665395601
3440,0.17191948574580265,-0.05728083529305472,1.1963570580087632,25.35736071567015,9.362255634765042,4.854487061408967,100.0084251265227
3460,0.21530297487113992,-0.06991809711025858,1.1844317754004379,-6.429592798112811,-5.435360914995254,0.24701797655280244,99.986466638276
3480,0.15643059338097423,-0.04173756978913834,1.14827988166659,-10.278014767549902,-7.399643452467579,-5.815060884217784,99.98081387463112
3500,0.1973157444144992,-0.017095109618850326,1.1029599163605737,9.90014662091864,10.677439262187866,2.6803913083335784,100.04451593239514
3520,0.26142271687920415,0.01239951714355613,1.1402980446518944,-5.924928545328046,6.990359125295644,3.0614481028684946,100.00904574324485
3540,0.15581136866574224,-0.008343819015746995,0.9932775993874348,-2.91105798231673,-18.45730761254865,-3.093932006762312,99.97708407662158
3560,0.12073869589200409,0.014839578074685097,1.0247603297323244,4.578414755420309,-22.44304130313944,7.233527326125724,99.9920595879315
3580,0.07715422228802087,0.0653420913089028,0.9026072324662275,4.836964273502859,14.136905680969047,1.4999353583623618,100.00557439776861
3600,0.06504797422115646,0.02796650674338727,0.929987540968217,17.51053133581313,16.290724030461696,3.38805481047925,100.00803983313314
3620,-0.033179491352121455,-0.003928379052317314,0.9448413873546404,14.150949487558204,-4.57827309663616,-14.460454427157757,100.01481821747167
3640,-0.08784411263783397,0.03202589738961324,0.8083105726064832,14.243345606316213,-12.211419951430429,-2.005291498097253,100.01609389261648
3660,-0.0978519718737739,-0.031373968101998176,0.8063766126379683,-8.342294937956794,16.08903668491753,14.106095351052163,100.0199072500785
3680,-0.09680813066790497,-0.05666025359764259,0.7880748640853584,-5.289216506652911,1.9053611615383717,2.8035446230686407,99.99911595645116
3700,-0.20677260723595173,0.0898332918575683,0.9178064540971727,-4.804080303161157,0.5276629342311125,-7.51089600320565,100.00097582609851
3720,-0.18675338277068154,0.0540222219670122,0.8583530051491075,-12.64492739838666,6.183564273653815,9.517731273855283,99.98554071460974
3740,-0.18017899335726156,0.0324717258790042,0.8760192492350114,2.059492161503047,12.553651905227767,-2.875743184578683,99.99924508700848
3760,-0.2984771983375822,-0.0303816946032193,0.826130425430803,-16.761942804110603,-0.013308262618302456,2.6420098524015847,100.00395071706573
3780,-0.2544321068319364,-0.00775733138497992,0.8916553244947942,-11.414372043147765,9.576806714404258,5.341871181705408,99.97703764778925
3800,-0.2566768457154421,-0.017728777569704972,0.9618000350434815,10.765673764153389,-27.300281974314025,13.418212854393008,99.99752574242483
3820,-0.06091157955723091,0.008928867080729158,1.038125403168337,-7.033600744464557,4.594221369321147,13.139225408146693,100.01791531078602
3840,-0.09600083748387342,0.03548627591585867,0.9803156027002936,3.094006143651791,17.71529807173392,7.619242639407695,99.97776291785672
3860,-0.11344758012723315,0.0030917949686008177,0.9411667047189276,-3.471700893754583,-12.912799163405769,4.865582427874764,99.99253992496642
3880,-0.004305664593288783,-0.02840209505459182,1.004089838261855,3.4293927342196326,-8.85464020285815,-6.289376367299424,99.99957739403962
3900,0.029059160411082124,-0.035941506385693815,1.1141295543347272,2.826677652066241,5.23703117374017,2.272126861725928,100.00656737863052
3920,0.16511412200946457,0.010090788087734351,1.1780628198339154,2.4421508809233834,19.620714494280108,-9.79971056326286,99.98023334276023
3940,0.1008184927584321,-0.0011498095385844376,1.1327626467424168,-0.17254669285961655,13.82864111131694,-11.679552330701085,100.01759352944198
3960,0.1285626658795589,0.07636902565112831,1.2030808934426167,-6.21086671137175,15.126883809484134,17.464845658033518,99.99956402341219
3980,0.14749564121747177,0.010744503133204401,1.1851909965025567,-8.218243847255781,-2.336687417824318,-11.82590913745517,100.02511169652323
4000,0.23427391090960345,0.062296210246372656,1.1063883845480056,-4.001270531273075,-3.310389168948229,3.232063527901884,99.98079293854407
4019,0.1493486223431742,-0.04389726286249331,1.1241669573478168,-5.66705411056275,-9.016576415618474,5.5715193898444,99.99293763605007
4040,0.23780039790231647,0.06427727965367074,1.134558794334025,11.68766560354001,-3.8632270425995863,2.9639550528850576,100.03133845970649
4059,0.2284924406690855,0.08896990665689876,1.1561378065355234,-10.322466515343317,-4.7518659697775645,-12.061291258757619,99.98310837033087
4080,0.052115685289061936,0.10537277740929887,1.0916208192931462,2.777389021095825,-12.727027500218185,-2.4549526512291475,100.00014061180393
4100,0.06778124365693196,-0.023665422783959878,1.03230877591521,-3.9267409644420757,-5.865983069290601,-15.813092179294944,100.02710521913718
4120,0.08815131076510345,0.04166997071669745,1.0038304734710832,16.15078418860151,2.215069994427159,-11.681479017949583,99.97688620871567
4140,-0.03194768073699654,-0.05047607745291306,1.0002744733145303,30.30781247443298,-2.3157262145310478,17.569625284233567,99.99651360070544
4160,0.14198889855702923,0.07797048881590393,0.8973830245857694,9.7113980005178,-4.156752622599212,14.47617430094477,100.00125065557916
4180,0.011787803234821488,-0.03595379437872894,0.8700882151504941,-1.5093120421374588,-10.709754682226201,5.401098658998876,99.97536162050585
4200,-0.11341692143894945,-0.012707953057476901,0.9658059300380686,-5.421104095164067,-12.938744865090854,3.4926454106392133,100.01674721437969
4220,-0.14353067586568918,-0.06555442443206665,0.865409009975299,-13.013240135596224,-2.7425760904401226,-10.190454479950745,100.00139898507635
4240,-0.17889062829601465,-0.09325140621847515,0.9388886177723634,18.94757000879643,22.908495537025185,-6.476917961144959,99.9925843832824
4260,-0.12873721178432346,-0.08008058878709375,0.787892655074446,11.385339963894658,-22.26077658496765,0.8148117629493739,100.02514537397994
4280,-0.15664416911165527,0.03405877389958278,0.8376100127861988,16.62974417339511,-13.738178460083681,2.1342231895981447,99.98279413328065
4300,-0.2983191835347272,-0.06199862927965203,0.8949799239018553,-1.8315081724549898,-10.649649742741524,6.5989023218659675,99.99972947367989
4320,-0.17575878160405528,0.007224704156818704,0.8750391371724452,-10.857355035708206,-7.216518150074872,-8.635968301330564,99.97885868575207
4340,-0.18218174280897623,0.0004959421402769644,0.8613782304864821,-8.40469170063015,3.1413286989243225,12.554038764502444,99.94260396471061
4360,-0.28622195896620534,0.043038444446661744,0.992977081188834,14.244733998685188,9.551936013177478,-5.697866057420186,100.02622091913582
4380,-0.16993806271949022,0.03054307444841763,0.932039285116656,-8.073723424445367,4.8978844163072175,1.0526202857798659,100.0083288535709
4400,-0.1583427412632985,0.07552313072198347,1.0579593797759872,2.7478704905495275,-11.65820329861804,13.581020324763362,99.98068295184397
4420,-0.008184294007509647,0.008528563102876517,1.1209678007888946,9.90158448521222,-13.268623379860518,9.801766135232864,99.97528094311822
4440,-0.06259921376289003,-0.024206787128683016,1.0164565544210897,0.46473670928939637,-7.490436891670365,18.2716097988273,100.00848435015376
4460,-0.0075202263212140324,-0.11935471002486892,1.1513930356254771,2.00056645277902,7.604781364882819,1.6427956221635769,100.00308969623565
4480,0.02991932570827035,-0.012841549390757802,1.1774632588565062,1.3990951115452739,7.621005634256172,-12.101362254488008,99.99919542204235
4500,0.05679863654854557,-0.08379536098047072,1.1103922000647108,-13.6599755016765,9.077406139487065,-4.3732888483325185,99.96565619433795
4520,0.17222779905355765,0.009863318375903011,1.1085083367384723,-22.875441376150626,12.685247099707652,14.251208171577964,99.97801633441436
4540,0.14626690510300522,0.03057087112076883,1.1148115535775398,8.576469523716803,5.8195313418853996,-5.1789124297282925,100.00493192742618
4560,0.24671113707226483,-0.053385365854326676,1.1902435973530137,14.469801162727883,11.193288823221183,7.934936671580021,100.01575828670887
4580,0.23646097041138578,0.027389281787505326,1.0879643096981986,11.600312967364589,10.95219001178957,1.2876764957311186,100.01864214413145
4600,0.20772060410457738,-0.09359910631026544,1.1348332687706557,17.58145147252076,2.5807088830485014,-17.431459225574233,100.01392951557429
4620,0.09536597798201218,-0.04345730932345606,1.0071462605412913,-8.97602812649256,-3.440533427594432,8.423798739708475,100.0225223997624
4640,0.15225315626010183,0.05067139334825557,1.084965380305587,-13.467142428107838,15.8918872365311,17.838749422585742,100.00644480356553
4660,0.09146273673431794,-0.025599094614735463,1.0666265370367105,-4.088783965598338,-5.560358748667089,11.89659251555248,99.9793362893831
4680,0.05870655332826176,0.01004220822898735,1.102309725362908,-16.523471511380496,-1.9890588152370055,4.56232269165848,100.01219013215574
4700,0.08685391643907453,0.023247818881001553,0.9493441539663119,-5.57081010048391,6.599020414001252,-6.760725498581887,99.99445280746782
4720,0.02994760407539112,0.08018685991561703,0.9633101634050522,-3.942459326269512,-1.9235388673355391,-12.151205436796852,100.01628084776607
4740,-0.06779652710610246,-0.04775776948596052,0.8419086290642763,-12.380564271980283,-16.169226265571076,-10.43729316311331,99.98735711968915
4760,-0.0968020716814807,-0.020195154551732136,0.8299423894112201,4.711019883273339,-5.908745638911632,-15.132852613780138,100.04010360751127
4780,-0.11499214922325601,0.03813347266659388,0.8718139945495613,13.817051601861944,-9.536386500825348,-13.695696478619,99.9723550526019
4800,-0.18543173485615397,-0.02910277816206291,0.7976039059686966,-4.137164980949074,-6.447687344913098,-6.256827487065092,99.98284060928782
4820,-0.15186755585901618,0.0269448434125067,0.7949167692046568,-14.88118268388158,13.06439642752494,-7.725695454117639,99.9990511178232
4840,-0.257062918186101,0.12345521010333421,0.7414159208890151,11.35544796055451,-13.066587751925015,4.7935016449178285,99.9884540471599
4860,-0.22238868985266377,-0.02264944095462454,0.8491936959332195,2.3232717574074266,6.724520822764411,0.9972466823970356,99.9985852211874
4880,-0.14581154806044763,-0.04521743973553661,0.8446156295817504,-2.037629023748957,6.159061567261057,-10.58430512729738,100.00072061132244
4900,-0.23733400259441922,-0.07463264547961576,0.9043457747657981,11.819773724832846,0.8927429982690586,-4.737524302814932,100.01959581930726
4920,-0.13530442279628369,0.05614127618236841,0.9330058251396322,7.208676012956765,-14.182719386870602,7.635151191264699,99.99872094788154
4940,-0.09007484246712906,0.025517892555692152,0.9755337344640679,2.6838483956584263,-1.1845323353698245,6.684569854456914,99.96660208060271
4960,-0.01039264766803183,-0.04168704389750744,1.0070346031691748,-7.038738164765273,5.908720547034301,10.931468068219509,100.02587602507695
4980,-0.06131924634645812,0.045098688701712006,1.1324163691618971,1.9004527416997177,-16.95805888346823,1.7857880037901426,100.0183642082817
5000,-0.020029797929460035,-0.014194026499549733,0.9972614270933347,-15.875574813223555,-13.601125202886326,-4.388897625537708,100.03855626854536
5020,0.0036943697920749016,-0.051759681345201314,0.9949422939120425,2.411708958066461,10.145920722582645,4.447408514424165,99.96688574948455
5040,0.12654402241840837,-0.05147932702028303,1.1648675096139427,-8.420023250032258,-6.946174907935386,-2.142833638319886,99.98255047738742
5060,0.1246609509014469,0.09047013796623961,1.0801750845876383,17.971234768073884,4.963517608160498,7.1862984720378655,100.01640793288674
5080,0.07978625459978203,-0.07990451740924609,1.1355959041249397,-8.177945502010761,11.261410628526892,19.528308351852637,100.00737174677465
5100,0.19443249436868337,0.04750824126111177,1.1551057612600233,15.080823695323769,-15.584243680012712,-9.170813563033635,99.99759359455864
5120,0.16138366192342807,0.0075780406341341925,1.141154782280765,2.7354441602226705,1.2018797567911137,22.389674916255714,99.99189776423053
5140,0.15332704693332427,-0.005732109943483833,1.0730623629978793,-8.58068676354977,16.47054668944096,-8.720633528874801,100.01303605069359
5160,0.2883006486318516,-0.02582045255770047,1.0959087221954193,-1.4420639269925901,-1.9152326812967373,6.191505483441335,99.99513207084345
5180,0.06763541430889373,-0.030183440001110392,0.9880960428397659,11.578786970640088,14.92254142457301,10.565091932264497,100.01929250993412
5200,0.11771721681353006,0.03171034746613428,1.0351952368181472,6.173546290110714,-7.134872881867414,-14.445332115999413,100.02574590919032
5220,0.06861646484794762,0.03002692052015662,1.0337094249431016,10.857249357116322,10.21289864468605,-0.47266009975137646,100.00148908751541
5240,0.0552760085537177,0.007627763505314234,1.046369968098874,-3.8931526250866346,7.954324364279913,-6.271056925098733,100.05001952238202
5260,0.04363838484910066,0.019813421108264968,0.9556124882769952,-2.533855301795222,11.959322908634315,16.012800824793423,99.99901835749908
5280,0.019401651007140603,-0.04389973569066473,0.8853354025305818,7.682657317939247,14.073702178648858,-8.183235881519245,100.03436737256929
5300,-0.0927598567306662,-0.08068360021435922,0.8742912175270062,0.44450169300108383,-25.13854597961763,9.283361051558915,99.99455886747052
5320,-0.08969543046565803,0.005042168078814618,0.8960499358929503,0.23016878676188268,-36.81727046764031,5.06133374159205,99.99471564565908
5340,-0.1774489238787938,0.028776179897769344,0.8943859780849668,10.158868034873315,-8.78599767806994,-20.633042079923545,100.020492020273
5360,-0.17366051405661342,-0.0017238414819494199,0.7587141963718074,3.4986875594042433,14.926192289354706,0.034613085605021666,99.99140373167525
5380,-0.09510796722927174,0.05142398004116662,0.7729456334962846,1.8517660045171662,-6.343082349659843,-13.73084589531937,100.00208675859193
5400,-0.20517888997190645,0.03451981255376617,0.8688351719999063,4.67279581042355,2.5876156135468236,7.058548825440646,100.0160319166272
5420,-0.11385584269384957,-0.0483255265992641,0.868732653484062,12.12496261667306,27.125925420412027,2.9658614883715213,99.95666857647602
5440,-0.09065697333550941,-0.02959982251378497,1.0056833066822315,0.7510858101018278,-2.5384938560732357,-7.785658113800297,100.0169528454142
5460,-0.11255357153152377,0.05564434542647774,0.9675521579171831,4.286391003411178,9.653891168431828,-10.512548417860662,99.97877336297216
5480,-0.14994155236321924,0.004121038464057492,1.0236322057257792,-3.623289706402801,0.8073259537582658,-6.478725263236477,99.98427093898961
5500,-0.0816934063292761,-0.0621820513353247,1.0423456558652706,7.687234030897377,-7.07244461878287,-0.9128936840064441,99.99806007546401
5520,-0.04700077691246263,-0.05200043344255907,0.9691644826724992,15.276381325825904,-6.544810844789012,2.6020731559912997,100.0265718441604
5540,0.009026383701874835,-0.02959643372580814,1.0749270219814617,2.5717071996200325,10.008885428661493,1.2937162532448767,99.98612267012884
5560,0.06814769115467571,0.07546738130841572,1.0765646821271952,-8.73700359001471,8.17980790664058,-0.7718651886708969,99.99215031029264
5580,-0.008447408244061358,0.02693985836601754,1.0756368642308898,-22.496272967879865,3.4187052477586963,-9.801457630756149,100.0135679524581
5600,0.13353520981997263,0.014626832831028997,1.1931756877794433,19.642602952411817,17.803259560900816,3.202976417941124,100.01226826230466
5620,0.1600847465471408,0.032452287182416245,1.158090973244184,-6.0339326778412214,-17.43825029718408,-8.595361071845534,99.98367344868541
5640,0.16686867765270175,-0.013938929305541876,1.1992586714160476,6.928422949331107,-3.6507149737728093,-3.109778134857077,100.00804093328934
5660,0.15521008015617457,-0.03271766142777008,1.1181934974367163,2.1362801152763504,-5.542363327799344,7.005519270686856,100.00664693416371
5680,0.2315150264449733,-0.028712617823057653,1.1010729476849863,13.145203018608418,9.94704581576498,22.523712206970902,99.95072368878081
5700,0.12500072340483676,0.06468763331118732,1.156206459906722,8.794917536644215,2.4805618185159046,0.6076458949504479,100.0312564349197
5720,0.25957257664808653,-0.02024199185733366,1.0818758647726638,11.469882078245131,-5.48510910322704,-25.503030640285687,99.99364926253536
5740,0.18335542204932406,-0.018568914229355634,1.0090671817566617,-7.503190846139182,5.779572714438448,8.233454318706945,100.01367171381892
5760,0.1331064566126456,0.04206875411037869,0.9547338424735845,-8.24847396301372,-1.0049995287210043,-3.8910763162618647,100.01953247160627
5780,0.08993561911093623,0.01675278230072764,1.0388127884927933,12.616044540788053,14.198886067947374,-18.22614034597681,100.00069923683225
5800,0.07877126872587228,-0.05588496648760924,0.9605821497831568,-19.571042535840125,14.43425650119404,-26.597039262929833,99.98702604550121
5820,0.05689896337826431,0.03551533667458889,0.8903447263531552,6.149505363038551,-3.762890033446812,-1.4970020581644727,99.97533651393428
5840,-0.032152872951964714,0.0425575573471998,0.9545518708028716,-1.5208915736706299,7.2395199139904225,9.855455783191221,100.00064895537697
5860,-0.1059221070363845,0.08864454119104442,0.9288899620967684,-9.729220614537152,-1.7553751376486522,-16.79351720892049,99.98222325752482
5880,-0.19240216971568871,-0.016271885077729902,0.8530647850214145,0.5595619303857884,-8.356786689598142,-0.1294464410188877,99.98848592472245
5900,-0.1453023473603475,-0.010934869504042578,0.8979275660882646,5.871531030676315,-0.4104355344374055,-0.6600837612173964,100.00104321847962
5920,-0.20747171374119597,0.07193054169888168,0.9731531123330558,-13.462768704720254,0.3551077097961505,-2.2911611089612154,99.98320188460906
5940,-0.30174998623025856,-0.02339542978076095,0.7765658779236366,1.1385466241833515,-19.76394751795149,-4.363317570545863,100.00617636747036
5960,-0.19652310482712124,-0.18366273973115302,0.8505968632116011,4.303984552437667,4.44816405005202,9.302150890778009,100.02090179134632
5980,-0.1914494986832048,0.03217118356135222,0.9475607891252856,-4.858830762670818,-24.079125926217156,-1.9124913120913034,99.98777224504367
6000,-0.14829553811175503,0.03810094774904683,0.9022536720535018,-2.881189759501659,7.378586538519679,-38.05287005414556,100.01648856008943
6020,-0.18000322300819027,-0.0033338558787841797,0.8930346033404789,-7.311193320150744,20.694903166402135,-20.899529522943034,100.01013109320857
6040,-0.1344423790706358,0.05393868476598768,0.9894846769625564,2.395711671309751,-6.841461712293951,15.160637215671468,100.00887363361107
6060,-0.11233488801597208,-0.015577880643992625,1.0237967048410137,8.241225854894676,-9.647699190302692,5.769072926622374,99.9969096851351
6080,0.021344945909551313,-0.024699840004181853,0.988680524891187,11.267453098150426,-1.6085015395773494,1.9628314570659642,99.99211337805738
6100,-0.030492410812967018,0.026497210960943113,1.098126942444147,48.804380288098116,-6.5843232577093325,4.754456796368724,99.99037325873698
6120,0.057940787911888655,0.024365966248427434,1.1767362784785216,25.645780092845474,5.479745833346405,22.67913784361868,99.99979878522059
6140,0.05268469710573182,0.043803579570540506,1.1293459886246344,-4.758890120958956,23.60438334594175,8.91235217324629,100.01175941186418
6160,0.06330484600583654,-0.0976249888291186,1.0831324481115578,5.374074085234911,-16.772075392743798,8.841116594216377,100.00119409950489
6180,0.08900913228315024,0.013758367689189956,1.1189044582709171,6.457054606587715,12.812826196937465,9.601540732933785,100.005574462011
6200,0.11432436629381051,0.05662577892284984,1.1609081870781615,3.5239462794095733,-5.16049033690266,6.464504968704254,100.00580346530178
6220,0.3227801932154324,-0.028382496164633786,1.2272524957079014,-2.772939434696824,4.417363292321259,-4.102122306968919,100.01127794354831
6240,0.128921870637533,0.01938720613438243,1.1262165772531838,7.343641650689788,9.388104350405063,7.672640873615707,99.99720098895696
6260,0.2197354485731522,0.007501379645722545,1.0656739058243359,-7.929289933630324,-7.110446728911245,3.7182428570615436,100.0291330391015
6280,0.21831031340158796,0.02133588137460277,1.0420835010495977,6.067681460643332,-5.218141419735239,-0.8309075780137896,100.00494353459622
6300,0.12873511336605065,-0.04156426325055618,1.0787263668045077,-27.390956037857517,10.74406263171573,-0.5342476312490271,99.9773733467786
6320,0.18345798303366695,0.026507854870252697,1.0672333559623945,7.21340854954296,5.715032899299681,18.46019258409854,100.02843452973471
6340,0.12469640585162708,0.05292082736377185,1.0239976122087129,0.24339240417078473,2.8343386610321795,3.116134665750616,99.99436546868321
6360,0.025702228084017918,-0.0631688452519166,1.0113665759116632,5.21803212629167,-33.66042001833799,14.68933890741182,100.00864976546013
6380,0.005004466336087449,0.017639344658309172,0.8844238204778574,-11.61230279547673,-4.456763885769503,13.917944871237715,100.01672245981327
6400,-0.04569446397288386,0.04446703137458852,0.9584477001791283,-20.869095891075343,-3.842150172813653,22.580475598245418,100.00710109613424
6420,-0.05778983405617278,0.03948601841525241,0.9103916119562089,-12.273237082357028,-3.122385025256905,-0.4209811416911313,100.003079926275
6440,-0.16539941013111012,0.07822715088395588,0.8569199710647671,2.790024480350489,2.6306670642758085,6.984862935014028,100.00780309742267
6460,-0.1743843575244392,-0.04468691743881477,0.872362369291209,10.45929482005484,8.780348471579936,-1.6404217848620717,99.99141453919297
6480,-0.19034663871193414,0.03863942034869593,0.802096132386279,18.993710025711895,13.902396492183817,-25.584030444602025,100.03026619371893
6500,-0.21527350255310573,0.06054532502704089,0.9201093725143874,16.265685136904107,-3.5944689006767345,-16.816051008421013,99.98610754948933
6520,-0.18385920922042623,-0.014074102989225921,0.8531200809081984,-7.2053780494705055,4.1335386535741385,11.958482957936527,100.02050242232465
6540,-0.21919827113836815,0.0520434128321878,0.8356897077574948,-10.8152677760259,5.600599717398499,-7.513520633387616,100.0107859909075
6560,-0.2108448941038719,0.019312466840036263,0.9360202846059007,-16.927939855658767,1.781052815902397,24.446964252987506,99.99669364053007
6580,-0.2203718167377331,0.02953196536062119,0.9452972884615897,16.528919894872985,20.23502733221467,9.322909462270694,100.015936878662
6600,-0.16731627957865924,0.015238655162808704,0.9790252900157963,-5.15636576840491,6.201199681831307,-24.806501232864022,100.00331725293869
6620,0.03544222929049018,0.10546262232563518,0.9030928707967488,29.683090095123475,10.546633815926109,15.792817992777476,99.99440643111913
6640,-0.09159240212020517,-0.02431943408309448,0.9371829951905029,-9.875955418819466,-14.704326095544431,5.98003376767452,99.98297378150085
6660,0.04249334478020948,-0.053141196035073904,1.0288448970657533,-37.038157661457305,-5.06286384702304,-12.828165295741773,100.00276522948988
6680,0.023180736786305188,-0.10345078416610323,1.1301926515700025,1.7389157871574499,18.152379692949904,-16.759432894981792,99.95518478672346
6700,0.07270028805833188,0.021026790265872355,1.1472277499313008,10.82661453341435,-11.147543877476759,21.289142153021462,99.97966566005994
6720,0.01352275795288825,0.03581997241040195,1.0354440738693678,-10.160316700029117,-14.08704048629686,0.2034399806888295,100.01767943397421
6740,0.22056007020032992,-0.03740597337986379,1.1383280798484652,13.875432813178502,-10.313349991489854,-30.934964477088446,99.96496388200282
6760,0.15887128453410326,-0.06783289717931511,1.1171055822107467,-19.818647122250134,15.450177109660954,22.802961411454213,100.00653551369655
6780,0.255983931185482,-0.051188220810902754,1.0827433188241478,-3.7521936356953134,1.7296542684580034,1.1019790359393349,100.02075780147815
6800,0.2380134744306747,-0.09882691693630302,1.1415228601802274,1.8909515889053954,-4.200916803101551,-2.622224157276833,99.97610854497577
6820,0.2011403505160643,0.034201194466626714,1.1624892463688201,-23.82582093493831,0.3971387572330566,11.350225957907229,99.98172042729499
6840,0.15938678584367819,0.05928082030043433,1.0972731274216767,-8.226615642813416,-34.98663401122117,24.860233501789565,99.98940828336144
6860,0.1480216045766464,0.0021571765138641624,1.143798978946313,0.8118096047862473,15.208200738058672,-8.60957679592012,99.98351958895022
6880,0.07671575031105382,0.0044840702146435015,1.0117985560313962,-10.125198589656549,-7.210014419943229,34.450375912441544,99.99598693656091
6900,-0.03410849071463819,0.035793161514871684,0.9895477810262402,-4.6771454184634065,5.642818504629366,11.108869913253876,99.98252758790017
6920,0.06753703673132788,0.06559796905312584,0.9322597109722944,-11.292472902460691,-5.740491232626672,0.3201811212494673,99.98428755028976
6940,0.08281094192032476,-0.0312868329507161,0.8785524405631877,-19.796159763979958,13.844478804743801,-4.70940568057228,99.99091745214326
6960,0.052734930724773,-0.04098104254600464,0.8960312898030328,14.720521580438955,-2.183206672606765,17.90716045594648,100.00034053354014
6980,-0.10908448411489813,0.030666863230797155,0.8408499059701325,4.2657123908359695,-18.582360143072695,7.093910468081246,99.99852476168167
7000,-0.14224558508818114,0.012872068295177362,0.8481342168450782,13.45252803406581,3.4050296366551436,-12.598529991493903,99.97567518739078
7020,-0.130442287470688,-0.07717246072857616,0.844227581308755,7.3512299697979575,5.971065724935799,-7.2494343191796755,100.02911720994248
7040,-0.2235384806131143,-0.003688505488403266,0.7755255449926444,1.4240902347138884,1.6526139000451923,-16.781790077181835,99.98867095030683
7060,-0.1673963400331539,0.00883786314120547,0.8145595618230549,14.308612010078104,28.787124079507613,3.0805417088206597,99.97948640223812
7080,-0.17231424722669614,0.008435268450354234,0.8913861084544905,9.81157294614475,-15.67875746477171,5.831283530226052,99.99427984156502
7100,-0.2628455974771576,-0.08323424396993107,0.9259090282040023,1.043571719318436,8.813585235349752,-10.450771075018334,100.03542372527879
7120,-0.16497678212977473,-0.009351573026638292,0.9226989726720203,12.814379028781357,8.312144345897346,-1.8601439541638793,100.01368729029107
7140,-0.21348478631964884,-0.015622014321505853,0.8843640502389439,-10.02172730169666,-14.186155110102598,-4.048352749348455,99.97582274466116
7160,-0.10416093521835963,-0.0046035169634234,0.8674909725213207,1.4155542574414688,-19.60355159622567,-17.973480627315713,100.00022587247786
7180,-0.12315041348559355,0.018286304882022278,1.0495512344006759,8.2706563987991,8.78604490365283,-14.686789095794952,100.0319136204689
7200,-0.10909472242192142,-0.010124439121383418,1.0942525737107187,-0.07579583390977009,-2.72112876241161,8.178572298578494,100.00812103701035
7220,0.10293160071525041,-0.10608690640463062,1.1427999426429016,-16.094485589050212,-1.8278170883643554,-1.8910868696458807,100.01501894757604
7240,0.018162967749144866,-0.08411818948912425,1.1178685955666439,-2.442185449631716,7.416635948700639,0.17350828530334547,99.99553408392224
7260,0.13515049743191468,0.01228609583484393,1.1610647454658474,-19.072077602029545,2.571226617605249,14.602224225938343,99.97825501416436
7280,0.21116415307103426,-0.13678039432626712,1.10822163544987,-16.136347035764068,5.732594353274331,16.96122792078396,100.01790110069172
7300,0.10422698333001268,0.04384365311944725,1.2311210049920145,6.190298136126103,-2.748264077124481,11.101403148450352,100.0129521746963
7320,0.09887547051992493,0.0017002968282766057,1.1115374365845367,6.423316664188784,-27.314461139579056,-10.849511176811317,99.99249335212318
7340,0.19189181727949145,0.03950784768779267,1.0902070685443794,-15.09197952091963,-3.6370689676833967,10.961146781316943,99.96262442002738
7360,0.2334222917177659,0.01659154581800774,1.088889552849929,-7.9550383282030905,-18.188257135023385,-2.8949443326090556,100.02447347696094
7380,0.18371389720298067,-0.035305947720953614,1.1332210631898445,8.190920949073458,4.280779895636779,10.169932843059474,99.97908097703622
7400,0.18657352567012692,0.07279559930642102,1.0681018256838803,-12.025353567083801,-12.168320800884615,0.37529131008794636,100.01548538723856
7420,0.25397852019455,0.0732897628073476,1.0650484828026494,-1.0225112683632573,-1.9051147962250672,4.476756846385891,100.00563944933637
7440,0.13489102453065457,0.05102435503194541,0.9575704505222224,15.758768567651881,0.9934948232676712,-16.404739404898777,100.0440949542517
7460,0.0702689773394537,-0.05519814399486614,1.0572454009982288,-0.1649710379209795,4.33741560218272,-4.330958748717102,100.00016204222204
7480,-0.003999852269514555,-0.03911742564969124,0.9322695774666016,17.50849280252327,-6.422422301120624,0.16791309548640138,100.01712747924844
7500,0.04052123787929148,0.0377934325295161,0.9359968164980315,-14.889276628519532,-4.184417283272948,12.01883157005999,99.99761306231545
7520,0.03070265004992885,0.032937789017123346,0.8859136512405429,-10.948077139612733,17.160680741335945,4.271048048857142,99.99614362185463
7540,-0.13158102493240717,0.06757401206937079,0.926973660809629,-0.8478857417525416,-17.255460759929104,-20.471879131093598,99.96348830121322
7560,-0.19181445267137823,0.008505743338735218,0.8702352154633544,-14.158993456205419,14.943393338970619,-5.939400701278048,99.9970468869565
7580,-0.200722283310809,-0.008061743218629671,0.8800163516956901,-5.740461084216358,-11.873426990382061,-23.731639404966153,99.990118760313
7600,-0.1986170796331099,-0.01920769861409477,0.8745015494540977,1.6076299087642183,0.7148390530537826,17.36938021484178,100.0446930967118
7620,-0.2154894350572122,0.0038398358423728136,0.917889428867608,-2.4746995954626256,20.248991617187823,17.85377785441154,99.98294224906903
7640,-0.19036963340669266,-0.024948586281959256,0.8469897116927785,-9.421570552555384,-6.101006217645203,-6.699809632561847,100.00454713679864
7660,-0.24047655568644288,0.04330123299590977,0.8021065968450561,13.918844935644987,7.921497591392655,0.48899064862029507,99.96072768276296
7680,-0.14690340789447928,-0.015078626656739556,0.9052662428297964,-20.10903528023739,1.1695347681458332,5.881031427194582,99.99010135367054
7700,-0.2029045102545196,-0.01654303890235169,0.9379146270293107,-27.223275759171834,8.207240770792364,9.62933822417877,99.99653311534558
7720,-0.07890627479765691,-0.029836305424358795,1.011365395344046,-22.52782554455025,6.073363905309413,1.058307024459684,99.99600149262945
7740,-0.019820113508297252,0.10022622135069657,1.0190375463145964,11.080698131071669,15.007058844234557,-1.1440814003633237,99.97729852112458
7760,-0.05108000169575021,-0.01929542795325031,1.0308199724455456,9.092744079727332,-3.9415766340820784,1.1821186082884754,99.99946382990034
7780,0.010130470557217268,-0.08689080295035781,1.0772444170032973,-15.577635479340561,6.575848982229983,-6.97098299880719,100.02747416190606
7800,0.10259551081237607,-0.018982582387234704,1.1640010488901054,-11.709010312332337,-16.121324161182173,2.467276709310708,99.99127543101629
7820,-0.005181169053430648,-0.03239944800363915,1.1033953722019987,-4.232774030233636,-24.58409834556801,-3.0447196330914554,100.01144079977028
7840,0.11120974586883939,-0.04131565830723394,1.1936793528843241,8.052298139934722,-3.2586218651344447,-12.575321302059265,99.99733230614586
7860,0.13770626875348407,-0.04745283686539709,1.074646622778034,-18.908609223464534,18.997222696608233,19.295560131782572,100.02244376824797
7880,0.24571688695380722,-0.05382245881865563,1.1433752566108,24.318254617896255,24.082861720322377,6.871131562458129,99.99592891251758
7900,0.1855523375499877,-0.022843201207995587,1.1580083939273684,9.633224419703954,-30.089909020793293,6.604062776303726,100.00402350602884
7920,0.21201247944990523,0.05984657388113793,1.0371474191804384,-23.82812204866862,21.896390879002855,-25.361004910890436,99.985984044863
7940,0.2133548232293264,-0.07691562082552678,1.1010130044935242,-3.9108553277878815,-26.804760044940423,-20.567439962588676,100.0037552362233
7960,0.17438139478254996,0.027952949814618763,1.103871796472937,2.5114679901783363,-17.150883758455375,0.6442015347776155,99.99081378523866
7980,0.16326347522899978,0.04263225534491817,1.1046048303494236,-0.27811731396224315,15.569524084669187,11.103996353400039,99.99991975290746
