timestamp_ms,acc_x,acc_y,acc_z,gyro_x,gyro_y,gyro_z,baro_m
0,-0.025362069518905895,0.07455300561307719,1.1328006760670495,-7.117998481243701,-8.956629100938457,3.612506403210327,99.97862425206455
20,0.08936944874264219,-0.011231858965212518,1.0385509854390496,-5.502141475790079,2.5725758940231422,-13.827243229608982,99.97173909593032
40,0.03852770245785199,0.04015699453040186,1.1554086558285506,18.14925527597226,2.6585347515856186,11.785687690577982,99.97692631818555
60,0.013263354606451977,0.04609103629070499,1.1555360268774424,-12.820643260313789,1.0324935362725987,12.286182245808071,100.04877582131853
80,0.14962538034365447,-0.012240680528159515,1.1924778471309034,14.171382141631064,-2.816759924633674,5.551562821052769,99.97039179474544
100,0.20903925342568674,0.027649132970627432,1.1635926004418586,-6.318815357308814,-5.264010591722612,-13.825177479306952,100.01578208372732
120,0.1976759011823069,0.004482902204485362,1.1717305120936627,3.2759191080722783,-9.180883462366676,-8.647726770928383,99.99508573508209
140,0.2823213038500194,0.02941892459862811,1.1845366676251534,7.399269294538875,-5.9605822389127985,5.795787347058312,100.01317368354661
160,0.1909927828519887,0.041751194828533754,1.1434745366011352,-19.038138649577256,4.354368642065755,13.778545963296784,99.96928462278467
180,0.2106102583379905,-0.03539432098460519,1.051653078815527,7.951082232512466,2.1841482892415343,4.71357373382648,100.00448947050499
200,0.22312934130591378,0.029452345628223728,0.9825701553910614,-22.27715954979923,-6.520610787992054,28.68434318393846,100.02970715068687
220,0.1238087412571793,0.006742455072217913,1.072534122347116,-24.89486617993569,7.855899995203349,16.833839166957347,100.01192483848425
240,0.04207457775172871,-0.0752539099692526,1.0189295145276707,-10.191827827667415,3.0328672309099325,10.092157874128594,99.97492149060089
260,0.01142482316114744,-0.01191831385684288,0.9458222964149736,-12.526179516863852,18.194148783862424,10.326986052630481,100.0140853416838
280,0.023988087794705036,0.0271095426492938,0.8369509813330427,-20.31507821232857,14.689672246541388,2.0191634151597038,100.00873536145521
300,-0.04815507318165572,0.00992761778085346,0.8737318083767901,2.0897404111906948,1.4835657960416484,-5.775815813432064,100.00541181654276
320,-0.07417263556008966,0.0019905086255205223,0.8581165400583762,23.306202615005493,-9.806100104399256,1.9250070208578023,99.98413287178948
340,-0.10508193079067545,-0.0025033596684144073,0.8397479267547459,20.013188961359525,8.376816662995076,15.079111126742587,100.00348541298807
360,-0.14426640479532607,0.014269334771008835,0.807579805256566,-18.8945011232179,-11.838158191194076,17.447141555140682,100.00005275563693
380,-0.12458252829647037,0.08003543642966071,0.9580217566655785,2.0290679498471684,-1.120898505346386,0.9514047911742851,99.9783564709383
400,-0.10382201801437077,-0.026718752782935493,0.8119535414168408,-24.447284536098483,8.031785443036686,2.253623834531604,99.98325107380894
420,-0.2679970320001932,-0.032075050800382414,0.827397191714228,15.037649263232026,-6.445613304251802,-3.1742140599753323,99.99028873322884
440,-0.18068910177345013,0.03739212628728581,0.8313116522332732,-6.441297637266629,2.7769486866399435,11.445600660646166,99.96474535021716
460,-0.16416922998031852,0.043184328342104485,0.914758226262517,13.29032713428969,6.69730768707336,-19.647511191488285,99.95722579315179
480,-0.20072125754685044,0.04033894009481658,1.0085569247133357,13.979670623429795,2.4636565865641487,-3.3591244161853147,99.97872777642552
500,-0.09744052494416267,0.013322198224055684,0.9560914758843874,-5.482136060840149,3.2629444322573455,-6.291991960246971,99.99410450608434
520,-0.15886235047060604,0.009680465738273747,0.8789022441336117,4.592799983602393,7.116198754089461,2.6044296912129457,100.02214157815216
540,-0.04742085398453737,0.0966487089898334,1.0058283112926847,4.5145395959530275,-5.5251195297291655,-24.766128312259216,100.02695441178784
560,0.0231075384229913,0.06100592418709266,1.0706587933447123,-14.377733397037467,-15.81324948710887,11.215640726892433,99.99697269908292
580,0.018899458505162878,-0.03708089616814155,1.0908059087818214,25.26436427472865,16.991510616922955,2.8374931977217637,100.02976713573683
600,0.21177213974195463,-0.04678012149673985,1.1626555189568708,-1.0519357604694288,9.95805513431065,-8.231962073941592,100.01095379304718
620,0.0708233226520241,-0.016293845929087364,1.1613601714258814,-18.241819766527758,-12.806339493170732,10.14321330100105,100.00770799809783
640,0.05333926492948429,-0.004966121793018212,1.22951483855134,2.299368753608488,-20.179849354975385,-1.675101879375805,99.98870900767677
660,0.29857865442262566,-0.023815876194856738,1.0954453299363516,10.68226915130539,-8.770969579708854,5.742982944065388,99.98903340980355
680,0.13481366547962773,0.07688795719445622,1.0425186333910919,14.992699240003986,-16.397185161234937,-2.868966690638417,99.99179146170633
700,0.32008808578009146,-0.021476590479515698,1.144353057681233,-3.2728315352007487,-11.194461466557676,7.860473292933012,99.99294773813283
720,0.17281174531069432,-0.031281392225905987,1.2075583203526683,-17.030367717694496,-31.694041154685795,-16.383881316331475,100.03950978527493
740,0.18956079454197233,-0.03529548020388677,1.1180227176343238,5.016767464871904,1.7199952366198041,-13.132319347869227,100.0330571476015
760,0.14854784001669064,-0.004203540505735899,1.0008013819863004,-7.996071610942895,-18.065854731956556,-8.639691703929657,100.01484244573986
780,0.16137470682383676,-0.12491068697265816,1.0240599547807518,11.887385171619542,7.492742104809538,-13.174510386883469,99.99907927482509
800,0.07663287125749327,-0.08008718525457201,0.9779799814025876,21.388941928773505,1.6241831498617647,0.5399367076657426,99.97755761718821
820,0.04328992471505155,0.008843487254628054,0.9088822187218993,-3.9725502802465034,-11.368805747951248,-17.92779344754691,100.0164250124189
840,-0.04280423460350157,0.03246872717290314,0.8597674347538649,-19.04617429455292,-7.31848708132258,4.300475042073711,100.01180798879258
860,-0.14089035785257634,-0.007291853946173725,0.8890516849777936,15.54562247964886,0.8418149980484244,8.921349373782501,100.00992651248727
880,-0.18313701702925583,0.03364249371692531,0.866354589861481,14.747415475069221,-18.998539715809784,-3.9315410106412134,100.01586723066906
900,-0.07497915898447342,-0.037028772313268836,0.8958303972367686,-8.836932473551158,-0.7068977274211209,6.246893156990638,99.99962135513819
920,-0.15683103410617416,-0.05239962211644899,0.8822762322983662,5.039950797402475,-6.123904834564064,-12.157769408437979,99.98375782836723
940,-0.3179158090817874,-0.07505931438579046,0.8102112221172957,1.0347788868387295,-18.002455172940785,3.330027587391006,99.99760135413506
960,-0.21401774919573638,0.0065606212762410205,0.8084097672915058,17.622400813773936,-22.303241227143666,-15.205717810976711,99.97743360222272
980,-0.13754027614510625,0.08604700223623156,0.897349264360906,-17.732231523707675,9.631059225064876,-1.7208166737566168,100.00506305372346
1000,-0.19984408840328483,-0.07657222099333123,0.9639006373834461,-6.171197060310106,-22.040414151950735,-1.757559822142286,100.01274829781622
1020,-0.15703928206002132,-0.022418729425956883,0.8695267357050551,-1.8576836964640764,-0.4680112917880615,-8.92882111236878,99.99760116576444
1040,-0.14281570080144448,-0.08868473252440406,0.9458047857344959,-8.440326839691904,-7.723455637620425,0.43360961898489414,99.96224718120942
1060,-0.0814677057941468,0.026885132660216873,0.9938185021149311,9.02072389863609,8.421505821201247,-0.648414692108114,100.03518565437862
1080,-0.07484933466871564,0.0014694482507800661,1.0409421333614408,7.982445326915352,9.087923375440335,20.565907874714156,100.02016174009442
1100,0.024315963022944448,0.011713800117129454,1.0225583885339347,-3.4819099867608454,-11.282886635473957,11.785139973918135,100.0112378849242
1120,0.06893245045354043,0.021343164205918624,1.0449083393369665,1.2792560433428046,11.142327090808138,-7.1294412629990696,99.98960731353485
1140,0.054239618365917605,0.01520670922299807,1.0759141930293736,8.77444965839215,3.5388910403203813,-20.753605024084095,100.02542385568402
1160,0.17293818343315628,0.025986452243421276,1.139424400946529,18.427315227587663,-3.8283311900406196,10.324807606543928,100.02157116919453
1180,0.11792382897296974,-0.0025908500515887537,1.1620861680892842,2.8483866781670484,-12.072046793494767,-5.7949164349752325,100.00957013696245
1200,0.30328465192336485,0.02445113186411255,1.0786946163329538,-18.535482152302777,3.325880800508867,-24.765391838292686,100.02526381860709
1220,0.13657865366262678,-0.04292343895360645,1.1305937374971358,15.922428429030731,-11.420897937812073,1.1986644374835123,99.94909230737149
1240,0.22591346168565915,0.11345903261703205,1.0726646986294806,-5.727533077478542,7.965465900247425,-2.321117551785921,100.01401245693069
1260,0.2594748548349921,-0.00701321605010552,1.2131498637365095,36.36647142714899,6.983320259179246,-8.234469627913482,99.99996442464086
1280,0.23676000362360763,0.06480894388832614,1.0304251884754219,1.0163081000130996,-9.638778752333508,30.373132977143207,100.00151612431415
1300,0.1375431864205134,0.03480861190985884,1.0973549159779328,-16.05778550940924,10.248065742489356,2.7061289638848827,100.00300150170251
1320,0.15586647535121506,0.0212498485861687,1.0764082595792215,3.3356200884679836,3.093139181700533,-4.483777949365907,100.02007040544378
1340,0.13142124064085264,0.03040990742995064,1.0257099088091786,-13.006553997622415,4.279834165929462,-2.379113305243221,99.98346306554319
1360,0.09922257190688225,-0.03902526686284179,1.0332180653137457,-23.27993420923619,-13.115174116314044,15.24972971821542,100.01971967096584
1380,0.0536955440525275,-0.03140557787581624,0.909326573964581,-13.901328102055203,-3.8687748148847607,-0.6383239810317319,99.97626735464736
1400,0.0022438025651195653,0.026066461690841477,0.9928180055719167,2.6083685751531944,19.4167387311879,8.648978323999243,100.0053504308125
1420,-0.02503605748218609,-0.07291935831188788,0.9243576312221182,22.875491458466914,-28.44102309027417,7.457061799872929,100.0517282019351
1440,-0.17104497410174802,0.05110527401609451,0.8570005784753404,4.996068599448537,11.910774032629842,-1.3961073397375978,99.98068278253464
1460,-0.12856841872617666,0.10174842816910717,0.8028599360031156,-7.273312333515454,-9.665236689847394,-4.12135815045197,100.01077281307082
1480,-0.19724842734523934,0.029421818722616795,0.9014702113687263,-3.6271087364994496,7.751927104320014,10.636728207846348,100.03998567432575
1500,-0.27906211105222595,0.0767558039203377,0.7638101252093165,7.694750772704175,21.732681777591097,-7.8754735438539,100.03064145983555
1520,-0.14523840296743667,0.014458217606900562,0.8337622530483207,20.33885329433485,-22.1259687792681,-2.028127105848798,99.96785110213553
1540,-0.31503556486475515,-0.02909240766268873,0.8987089506133734,-2.2367121488354504,11.965302873021368,-3.9829743406721985,100.01483118981005
1560,-0.17229710501845488,0.0772236761888595,0.8815700127368894,-20.338208683673525,15.5844808877821,10.77779668840439,99.99740912759752
1580,-0.1841325045067712,-0.07937503704564822,0.9431706244359241,-3.3961958661127425,10.239048452928568,21.15067730760392,99.93997513135368
1600,-0.0992939495621665,-0.011125861305099946,0.9450434134697899,0.09182559723065307,2.0741100476110956,-13.76129087364696,100.00267777356562
1620,-0.12617094234512133,-0.006025529855175246,1.06659659471879,-14.857723385197492,0.3827328465274197,16.744194702395653,99.99525030679953
1640,0.010037754002855725,-0.02001398905875211,0.9822514949949084,-12.25375789735519,5.09131688297379,-8.305081478583423,100.02535966404724
1660,-0.05062414065595998,0.008676918578941956,1.053554879210178,20.468958498139834,-13.486956555767076,-19.7368455402127,99.98182841988347
1680,0.07532128834075533,0.05376223507388109,1.136461420686581,3.5466634920802402,2.927737771618077,-27.809704102337477,99.9901773413042
1700,0.0026815450657513007,0.1222101869283337,1.056305917150688,0.41490666974746904,-9.063411268725165,1.928918602119804,99.95739531966271
1720,0.1578549392753353,0.08384894241208768,1.0988185413769171,-9.528636340046894,-4.9296686659706435,15.24911980344882,99.99473549375124
1740,0.14761839981088729,0.02699021233972866,1.2383886765606624,27.623683639244963,9.573773294113334,15.027551015342667,99.9954114323389
1760,0.14919464832918947,0.025465590821724334,1.1372548716777902,-5.826058368679863,-9.150937743450601,-7.654569870059577,100.00871599049118
1780,0.2215230756437972,0.061105634922796075,1.1521971759614065,-11.268131074671572,-0.11481652931994349,41.69634751475478,100.03290811914472
1800,0.20997039432904954,0.06427846265398918,1.1180067445929407,6.7629125391107365,-9.984844327432144,4.2127871738342,99.98471166975804
1820,0.0943750916592766,0.019049140714574697,1.092315350678432,-3.337424191080459,14.111345204478305,-18.789327078090288,99.9555734441781
1840,0.2721119144720787,0.033589283731644985,1.0591934126791194,2.4772897295621776,4.01527812976991,4.535159137742924,100.01677114908253
1860,0.1843953464625489,-0.014093424143780762,1.0855427960840096,-11.368433813070085,-10.134255463351193,-7.360585942871863,100.0096183701821
1880,0.16730487117718,0.026143255079106177,1.068966608186206,-15.939173461686787,-25.958899666368787,9.197277536000914,100.01069800661688
1900,0.12517230112542763,0.03052986160390247,1.0746110235385704,3.1600056357675044,-2.9903959503206354,-1.723830430978805,99.97333224205785
1920,0.0742281330040154,-0.112810902701424,1.0391863164321564,0.6883463256467697,-2.8431187659861132,-7.903496392901088,100.00693243312082
1940,-0.052871319568377775,-0.029257020140291797,0.9357558029579338,4.820954359415648,-10.706289894725508,-16.89223562560185,100.01384792112826
1960,-0.13849298779023891,-0.019649319890391734,0.8695011260678366,11.569463790578197,11.374880934192124,8.406799973900267,100.03232019517111
1980,-0.0494964827974776,0.02390163152193946,0.9225545694490884,13.159574664604616,-1.0197638180915416,-8.00975089739206,100.00988276593337
2000,-0.18195079048661794,-0.035433708758410835,0.855066756381902,-13.110791220308457,-1.995316817432979,-13.383276890069535,99.99932634521116
2020,-0.16549891087254553,0.01276952028868169,0.8601965111598603,-3.813297049651271,-20.695570918722158,14.242564868915021,100.00186681545448
2040,-0.13595861554409416,0.015074006583155171,0.829490325695271,-22.639175289252247,-7.671098877670987,1.3413222083975276,99.99386116043213
2060,-0.17182448605498096,-0.016830734414456705,0.8566153497312536,-6.397610471775652,-22.26087707833175,-9.705128565152986,100.00275445247992
2080,-0.15991475789987497,0.0718904837609816,0.9029965625605638,-5.8719001556660775,7.374965590133092,-8.783749509454031,100.02683558975457
2100,-0.12323293760551479,-0.0332977987619421,0.8609650944946601,7.629163326571826,-0.4526781026689179,3.0505599783954174,100.00776784467145
2120,-0.21550673516217278,0.05581385821252393,0.9689129581681486,-1.8493244711270962,-26.842885912434046,-2.4448580207901567,100.03042967854351
2140,-0.18077699408780673,-0.07737362891286988,0.8398041382518947,11.167772995392056,-4.974171305852721,-14.800062194048934,100.01001562729773
2160,-0.15842191140876902,0.11225175959365691,1.0039103363718365,-2.991577905073618,5.089484092720866,2.631409055366667,99.97865029070614
2180,-0.10592411516336034,-0.04389853573791676,1.1579399081850834,0.8262557110978695,-19.22841384393601,-10.186871267339276,100.00571290045258
2200,-0.09731962886860061,-0.04997211508481998,1.010490015061983,9.087225406699146,4.878267238625086,-6.037757316395035,100.0156238516482
2220,0.11436249279903024,-0.02017437126292411,1.059562724163626,-18.391965349189547,-8.776899206254742,-7.061942911376461,100.01948874560574
2240,0.03358458729713372,0.035318454496092826,1.1212642762579936,7.865125607914886,2.297339285691012,11.722163620962581,100.00629232701522
2260,0.06055352225631183,0.06074454954215103,1.1685053930884004,3.425165814272825,4.9043684868525625,20.270798417125988,100.00192477198205
2280,0.06631238166574849,0.01832205492226628,1.1457598501819235,-20.629466625522316,12.315451125327511,-1.6717657554755165,100.02065264204764
2300,0.19398489353161258,-0.013820230813246737,1.0883340638327856,-3.643008326974301,-19.12724377075298,-1.0124150072842708,99.9740532275829
2320,0.17995685689164426,-0.030330387238252488,1.1505586063136415,-6.901625844904615,-13.539843790103589,17.276166460556652,100.01913041786875
2340,0.16319008730528645,0.016939740728533548,1.1513348224504836,-1.384631655054687,6.4360030054120205,-19.924100993674553,99.98191957374193
2360,0.1529224945945537,-0.029840673365430965,1.2337490300940523,-8.531711406313939,25.026231309442423,-10.780201376183914,100.01888783887591
2380,0.19080726954284447,0.056487808901065854,1.1316194030104956,-13.97014152834397,-1.6943419075403625,-5.499951653162382,100.01090436631529
2400,0.1781102390856227,0.020142443396029955,1.1691609050260037,5.3879970785994304,11.685682615916175,4.980094767527071,99.9847567490149
2420,0.12233915596524945,0.029500522794647904,1.0444919469724092,-8.728515178695687,8.182414681663733,12.337902008019585,99.99354603742913
2440,0.07626961487556885,0.038607525474410515,1.059129490880759,4.682829186037603,-12.229728496406828,1.2888369598774347,100.02155713816198
2460,0.09181625972384339,-0.012353959403056135,1.077423277735128,-5.449670559628242,3.42538838958887,-7.275121482366812,99.99267881282613
2480,0.0323199218472095,-0.01623441251996618,0.8434368045008359,-13.39094108800548,2.08349605155421,4.742543307930443,99.97290849890177
2500,-0.08281481663673694,0.03658040074982246,0.8638675898487934,-4.208728328792379,-16.6313172820299,6.518487569208007,99.98023742100985
2520,0.015355723225682336,0.05797939468576884,0.8028532011552382,11.248486133121714,1.5918521056437904,13.318938409055354,100.0209369577738
2540,-0.12650085199269412,-0.011794345469502587,0.9454401224079544,-8.549318983182703,-10.267159408834566,13.654939754575066,100.01991952399759
2560,-0.16232296235983404,-0.0097017937557828,0.811115351487694,-0.141896970360025,20.243108977625116,0.12102442483359807,100.03806627156337
2580,-0.15262075820388687,0.09788785480999926,0.9229235250236905,3.886420444279926,19.251297985927877,-14.882578713008453,100.03001963982538
2600,-0.20761533031145232,0.00456408668215872,0.8099687063154657,9.676318329964491,3.431297582680222,4.3610098212922415,99.99551135530372
2620,-0.18705580605523114,-0.02937080450390115,0.8568835366658019,-26.17758775864334,7.4689704313317575,-5.112698603244886,100.00814081881005
2640,-0.22721278300530504,-0.0019035164264090043,0.858825343095219,-6.891280161425781,6.356769301457061,-4.399532612103699,100.0005198078579
2660,-0.24966874377582385,0.04183837786079259,0.8735329378402992,-5.100493553712992,-8.252714040792604,-3.7124028464182386,100.02400121533567
2680,-0.23336148621551295,0.07817511609989321,0.9203203896450441,-3.8008734108034634,-7.763113308213503,-1.6228992702640348,100.01344054235275
2700,-0.11360284357749413,0.020205578891496424,0.9525197428071388,7.056482711186839,-19.126684128030835,-7.158821585304111,99.9905560741555
2720,-0.1740339682469948,0.03185359676906205,0.9292078797834107,-3.5144975745691696,8.120698685289751,-3.2995202157729446,99.97562284402005
2740,-0.11094513063491096,0.047750781861676465,1.0260111980132298,12.618741063448219,-8.40712634137855,24.58388100468434,100.02763979653709
2760,-0.051399203525398694,0.013705348144232066,0.9314194073416682,11.299315654644731,21.631540803105274,0.40188461519866064,100.0126163664957
2780,0.0007649137705009953,0.06750551522216207,1.0296424610916668,0.6663428404259203,12.704649209423994,-20.873785136170575,100.01615480753209
2800,-0.0067125625981206555,-0.03048545389465014,1.0726825895979883,-8.808608269241432,7.6205629156917345,13.112310740023611,99.98631301769676
2820,0.02523667237443461,-0.053957074034377966,1.0911198697484172,-1.8169450882516074,-16.74003885931339,-3.857997105834057,100.01155238215506
2840,0.05131045458235682,0.024227674551726905,1.0441894769778048,2.1439191277687604,-5.121717970252116,-12.816271264766138,99.99314818381634
2860,0.1594698234366217,-0.08164420453133175,1.2430813621221373,13.478825297860734,-24.488142103495086,-6.826065027067943,100.00059052371469
2880,0.26532371292214224,-0.09939067426611202,1.0544025221816928,-4.100330886365731,6.522943817735626,-7.664264043499636,99.9909049858981
2900,0.17434954159090688,-0.025172455260206356,1.1171050727446272,5.514806063759217,-5.89306964223341,-6.3928854310508285,100.000189415183
2920,0.17808791740506877,0.08195509146871226,1.1640234670266552,14.951763199406093,-19.351892920064085,2.7745036769849096,99.97019453894133
2940,0.1291437149697876,-0.012419933760305127,0.988896021598831,0.4011957521514714,6.717782985297781,-5.513567142159577,99.97169571331868
2960,0.20407660090088575,0.023135591520473064,1.1693293107561131,-9.442173259775227,1.3698030307544804,11.85336007915786,100.01281501174122
2980,0.21954613279048668,-0.03369491988748037,1.1191253331469788,25.726622586408762,5.915355693017241,-5.374104843156637,100.00051828142942
3000,0.057627254476778245,0.012984320137874338,1.0255064770130302,-1.339639795948994,-7.800026639046452,5.8201965462101475,100.01487870752958
3020,0.05501558965285922,0.044753394812449956,1.0446434458942122,-9.275857330105364,-3.398653235151407,9.31839650413948,100.0274318063854
3040,-0.025109479806356326,0.05559330729971086,0.9210017711541763,-25.733213099661526,-0.027280589779003675,-3.5881521680586577,99.99276640386341
3060,0.06630554598609592,0.05497056805574677,0.9888735107629838,7.978763717328885,1.4536303966356268,0.975710895471277,100.00768541769791
3080,-0.009188751425151319,-0.0069919553958919176,0.9049299844668435,5.763812803508659,-0.21988887428990184,-9.607905158029837,99.99233745384078
3100,-0.05313884492574811,0.04774749719510572,0.8947161342798676,-10.012968697846016,3.0274409614686917,-2.592705458088675,100.02827160267248
3120,-0.16993739690819312,0.018025420533915516,0.8737462084217037,5.7304914906124775,-6.116673599768466,-1.8710410399904882,100.0001422174857
3140,-0.15045569915914087,0.0573376268217518,0.808107380808494,17.038746779555677,-14.176187405678323,-11.901772955616273,100.02567083963103
3160,-0.19900499615594291,0.0061699120589617795,0.893896445529468,13.424952230244514,-5.523445438538816,17.219118935814333,100.01369965900506
3180,-0.15166590763770174,-0.07851798694346013,0.7780311004502505,-5.276106800182264,-29.028274421155864,-21.34043924706255,100.01787296189035
3200,-0.1768841702509027,0.0361567415267851,0.8945967211209397,5.770519271593434,6.037539730412119,-2.8313307754091843,99.99869975416014
3220,-0.18234348211379342,0.0003136565187770949,0.8738928590855208,-15.29129627475892,-0.44020335313611114,-9.234584428599065,100.00794898333345
3240,-0.22564203067378286,-0.07250502575679503,0.8914679569327028,14.177718474062058,-7.234470463184506,15.02662015220149,100.01629571203812
3260,-0.1787880955891178,0.018609999998084423,0.9773991990560823,-13.229965425174594,5.863513417816633,5.948791731253733,100.04312189565003
3280,-0.145387288810429,0.005966465666958104,0.9829024390763527,-2.779319465735907,-15.212966679534127,-5.197633467789936,99.9960137805046
3300,-0.05832507102060113,-0.05600799338421392,0.9900560898314037,-6.206511796743994,13.6879163364165,10.238549451510675,99.98183121947979
3320,-0.05221956121513214,0.0036122529554662576,1.0486715107350395,5.310154520573345,1.9035226979216984,-11.978213382069317,99.98524258398956
3340,0.025854147438104894,0.010731732515068036,1.063637400046726,13.140694594495148,0.4879651172443883,-10.598943262355007,100.03304139249937
3360,0.11407132358811958,0.11350013383512647,1.1404869476844637,-4.707325350238385,15.540338330089623,-20.974492642389983,99.98274922262348
3380,0.10522511643475206,-0.030560340936354513,1.0814666817891267,8.95361088514458,-4.528241266341226,1.0469259873719605,100.01752225423444
3400,0.1386956718968305,0.022869345569772243,1.106399299405271,-21.804810855971574,1.1736753046923998,-1.036257343387404,99.98795016232403
3420,0.2320726037966917,0.01535697972676502,1.1746567691611156,7.233361363748477,1.9409261130061592,7.2361371300297845,100.01136586397988
3440,0.15369733808419325,-0.025241872463425248,1.208956593356352,-15.906346438255202,-13.906719250994534,-14.349343412864922,100.00245950500023
3460,0.2674434323531566,0.10312168865057665,1.1374222684218749,17.417890334504612,-3.649558536827673,-24.983169664336884,100.01051320874535
3480,0.15169698439472815,0.030627771236775455,1.0470608291327315,0.6351908236080265,-6.348929446005604,-13.814802832363517,99.9658955588027
3500,0.13239841709519903,0.06002805310361079,1.1116671352095469,-9.839745280166317,10.266811762955752,9.447962921025333,100.01242431496749
3520,0.29468982097734825,0.01430190319248017,1.0780216298768237,12.12445393347436,-10.943685556554737,-4.384838405875083,100.01251657494376
3540,0.10300713727988889,-0.029283621602592475,1.0541032739229599,13.497988456556959,13.379312792307324,-0.7452819798121628,99.97108760227539
3560,0.1353330738976531,0.03474425112388211,0.9735750891042196,3.5981957301546315,7.853296768147702,-10.756873117114328,100.00168129270506
3580,0.05549990422790452,0.0025748986215978972,0.9755338601923672,3.147007760220604,9.638975374092654,13.810116118053365,99.969423987027
3600,0.026045420010234025,0.000656982137939264,0.9982480413713775,6.558393870241458,-9.656956964336617,8.938355125349634,99.9842868104273
3620,-0.08145040865490924,0.03167897135003512,1.001166523350784,25.548114506754473,-11.86132046332834,-2.897144381392229,99.99927893652031
3640,-0.05918720435009837,0.10269485249472743,0.9156328140164943,-15.74329302628561,-26.785667144883092,-11.800065803458324,100.01484818623501
3660,0.018329398883981662,-0.04552954158230547,0.8595524566273147,2.803483269594499,14.794777865402223,8.194529931649905,100.0082863627041
3680,-0.1269480796660794,0.011823463178484607,0.8475329382116137,-32.64584704195492,-19.086828105187358,-2.981053189869971,99.94570617325452
3700,-0.05375067077562476,-0.03150062023010766,0.8570215560187293,-20.00591688892117,7.394866754250981,14.819238083506558,99.98971752393716
3720,-0.27783679826862073,0.004457760075754004,0.8297614648475652,11.505591529384178,-4.878945469145598,-10.932826155368765,99.9810914987637
3740,-0.3178616442344083,0.03768585187297606,0.8364164915934039,20.425103234560545,-0.6043295638967512,6.185878696044449,99.9950714698532
3760,-0.13843250041440142,0.04581326430866035,0.8850113991087999,-17.635872079757682,-10.025139877591771,-5.906102244694214,99.9880313042265
3780,-0.14144842727044543,-0.008104262267294061,0.9258152854419661,2.6777287788600654,4.580678347438832,6.363407600266042,100.02607909570803
3800,-0.17622845059389414,0.01650614401929255,0.9327601228450813,-8.035597505515028,18.45237392629431,7.606399822611582,99.98811405460977
3820,-0.14714476639277044,-0.037319054704785026,0.9044166483649038,9.418776385452858,-15.346292964913387,-26.319437578916066,99.99414995980769
3840,-0.0962494431262111,-0.00353514712239496,1.0983650760525168,3.4646337679611174,-6.244117542172091,-5.433291074133627,99.99109741956543
3860,-0.13970452962535218,0.009603233265487022,0.9994268405316615,1.2868852064446599,-5.488332570545927,-7.150647651943521,100.01855745101344
3880,-0.02910063698897583,-0.047581465522125665,1.1194445717482275,-3.4364552147642558,-9.955115029934962,-4.364842062205895,100.02312526778397
3900,0.04217550179187244,-0.004175605724444152,1.114169846981025,-6.5072083457214696,-0.8471563720688959,-10.391867860295905,100.01163960753505
3920,0.04318279344813471,0.03827992249758873,1.0936255967434327,-19.641205859195914,11.356002410731485,-0.6601331435197654,100.03951931607838
3940,0.09370297749457229,-0.08418172291843373,1.141835056862599,8.276129050352916,-29.31663679909146,10.538702447703919,99.99171919225961
3960,0.16382490928950116,-0.02966220541440799,1.218366308373637,-5.871954482846167,13.057749649205139,-4.929749126211771,99.99816511349613
3980,0.18921312588204298,0.11699492772221871,1.17769238800913,10.957684295684484,3.54506235894344,-3.990638608288233,99.99410835434793
4000,0.16291504690675213,-0.04528909916004296,1.1039586247115034,-9.59946392303424,16.71505521437213,-6.566207307429156,99.97588732044561
4019,0.22630775401871037,0.002269858002492089,1.1720890226413885,-0.06785703199077335,-7.688561487698273,-12.846752953231844,99.97563155027456
4040,0.10281725164463618,0.058643189098411985,1.0913200130484981,-17.416031426013262,3.8417000679867046,-8.491918813372328,100.00705095087416
4059,0.07822927627337145,0.024257899509504893,1.0359217195726351,8.16804655687443,0.37209631144381605,-7.959324568309603,99.98922499051302
4080,0.13750565158906983,0.054847751174345684,1.1085419801025473,9.038320715762554,0.39399159720036464,-20.849330355552187,99.96754980090049
4100,0.1277847270596412,0.008055701168732728,1.074117071145915,-6.883470154444033,0.13083505645790777,3.4291374999820303,100.01760527747054
4120,0.07292316804643785,-0.08852612031700482,0.9803937786973421,6.433096933281501,-2.8264088251843735,5.212266437694654,100.01432499069334
4140,0.019959174247114866,0.05120705589156328,0.9251570871124324,-4.6066235739894195,0.5469528490128457,-6.464797720530161,99.96147031221915
4160,0.09072998850919503,0.013502991338656477,0.9575299544022379,2.9535567482951057,-1.4716960848006027,-10.768356423509886,99.95995034221323
4180,-0.009169428512633086,-0.00828303920820178,0.8309670167947056,14.012712511369172,1.6281034367682385,-18.800196654931387,100.01387802533615
4200,-0.09518068596661419,0.12266051947557516,0.8334406938819616,13.60039807941645,14.107607090278073,-9.759394018755778,100.01490574815315
4220,-0.1776500418383275,-0.03457887307552791,0.8853827798810218,10.089827966275152,16.32716100821136,31.601167017059467,99.98627528341675
4240,-0.1210996399529435,-0.07659472157685014,0.8796248260249053,-4.308173582330891,5.531744714525116,11.670343982480379,99.99117014668498
4260,-0.11874791610747185,0.04104432468816862,0.7951035854062625,-21.580324923468414,-12.904500204100147,-19.935012889311064,99.98555886213049
4280,-0.2263635482459026,-0.018737467144331534,0.7651620335666522,-6.503679060666434,-6.900781376355118,-0.6565693190062928,99.9740996487523
4300,-0.22360158121141188,-0.09339345102704444,0.8959731173524554,-3.8646546556128607,-6.778187619989502,9.977071630924307,100.00516424557313
4320,-0.24371462541758518,-0.036068674207999626,0.9251223440398967,-8.054497062191817,16.338363271915107,6.834494841628443,100.00602936221071
4340,-0.12318877519821078,-0.05607076639915781,0.8977106766925474,0.32518704861652026,-13.3750638641915,-2.124836092314454,100.002656406427
4360,-0.1133554489609628,0.04125625887366103,0.9838297851532409,12.406717993548465,-13.064950266141839,-5.171302440942862,99.98257960471977
4380,-0.007833409933036634,-0.08934011557586582,0.9073829432287501,-4.804240673393383,-7.430868532930469,24.468570982950762,99.9924773966269
4400,-0.17879606471793666,-0.019007066681822234,0.9418508193814028,4.279433473372616,11.82302971475582,14.509217845931925,99.99477143429566
4420,-0.025566698933159843,0.02404192292692366,0.9901487730891114,-1.5265954630003833,-13.895722159979446,9.722484052318936,100.01432033916285
4440,-0.044107843249021936,-0.004291769907733815,1.0944011296832374,8.549368304401305,2.9084220303100756,-1.4844289293572839,99.99403459519795
4460,0.06074731003623181,0.04210231225468566,1.1516736504229896,-10.351013087947207,13.614869086142303,11.298891546410038,100.01872975930483
4480,0.08065550310528827,-0.027901408972178993,1.1277212626694453,19.375713885687443,9.877145483252383,9.41752960072746,99.99201922813405
4500,0.12347520816070187,-0.030816039564435318,1.1976010183455275,1.2621794703606417,3.591971817690604,-7.7650754904176225,100.02968534993748
4520,0.08120002081911984,0.011713424037123991,1.2252004001947774,7.638519105555774,-8.532606266796689,-13.954515216122683,100.01426897704246
4540,0.22345530417786874,-0.044952903370881356,1.1860737941567292,-18.2543408223348,-4.8855886037928675,16.467476717156977,99.98689945480771
4560,0.19234240715495818,0.013760452986571019,1.1865628360238938,13.39962896520185,3.658575514641715,-23.923597873183994,99.97581318334194
4580,0.11909837388414629,-0.14268711855043306,1.141085774534334,1.1949345469604205,11.824905195925034,-8.058556557147533,100.01069215945503
4600,0.21273848844162507,0.015313074633463873,1.1687434021760073,-6.501289090619165,-9.824069358044014,18.50380302225116,100.01284715453605
4620,0.16962590482076037,0.08344409367228693,1.0284617142031878,11.908114349767462,-0.9701649624599313,0.7352513404830718,99.99847264111442
4640,0.13905782726928925,0.06860034934857548,1.001469410718669,12.26200757324365,24.93423054308434,-5.30394251694926,100.0088648065659
4660,0.11305264071064575,0.049623553077671856,1.0967120884624246,-6.201670164608808,-5.112530704534494,9.250291739550914,99.98774825440492
4680,0.05997160071067421,-0.03059602425080927,1.0616015027155057,6.564761336229659,0.06260494588268818,-2.1326832618659237,100.01428702358947
4700,0.08599289456082876,-0.03432350270798362,0.9234393554949685,-20.898896426358178,-7.886075468061092,-22.639568959130017,99.98587587106617
4720,0.0333982627233916,-0.013948738533817107,1.0119851389416907,16.869610796017817,-2.5767166621880397,5.147267058280968,100.0025139141139
4740,-0.024796373165549022,-0.02582022588521863,0.932153052598188,7.9320318563559615,12.440614474743782,-4.272376375795135,99.9803673181715
4760,-0.02666210381939843,-0.051623200673517014,0.8819290585680611,-1.5137550718375388,2.3766443716504364,-9.54507638403255,99.99056717653866
4780,-0.14651169293250627,0.06509374358774508,0.8745011402720491,9.279024371306056,19.154532523999286,-3.2243365224482288,99.98722490871624
4800,-0.18505689188981492,0.005107035532202777,0.8341372483103463,8.861568731107326,-12.078204689272502,6.104880183936649,99.99034183574805
4820,-0.17369974792940057,0.07586446400570371,0.8135780507992783,13.220600503995557,9.273098463844292,-2.9937489460786817,99.95500558806717
4840,-0.21670384141135982,0.04794168390526088,0.8097596222555238,-7.1346280842016565,2.7849566545265882,9.86922113778181,99.99077672881668
4860,-0.1782637286056697,0.07030489921172454,0.9330447549478768,-3.7292315119393082,23.30508529839179,-3.499989905268826,100.0308259678458
4880,-0.12156344037471092,-0.02751498345969934,0.8563145760040205,4.797266363519477,7.303983496882352,11.93623688262454,99.9937230243149
4900,-0.10323008357379154,-0.01046506187545003,0.8966743384618925,26.691182974420837,11.40618497725486,0.4852147989400001,99.9914807493802
4920,-0.13458135673067362,0.031205531303680364,0.9881672394065877,-1.8443399571037808,15.257431105024745,-19.793070225094045,99.97543030955752
4940,-0.13162092105875525,0.017328540644262775,1.0183250050231758,-2.2816146677036793,-10.126313656521063,2.7218664003785284,99.99384757837844
4960,-0.12364128715989914,-0.016599492277885257,1.1030261584396326,-22.07326259169851,-2.156687364446279,-10.955101166404981,99.97088532210655
4980,0.039258977465460275,-0.004868896237326351,1.083008216540049,22.699326317835755,18.60444074012165,14.503106491456267,99.99382413244373
5000,0.07933568143222172,-0.016937056950965115,1.040034469937647,7.596956129314579,16.21905730961408,7.314217647356301,100.02975530581807
5020,0.023798684788230072,-0.017445697312498277,1.123645323654045,-27.583154239035558,17.791282826738243,-10.306402558831403,100.02321594436633
5040,0.08163919865993702,0.06705990962780146,1.166066383768675,13.079885267446251,20.54990891459122,17.13890163752677,99.96422748917117
5060,0.1703371799707323,-0.09736565213462312,1.1456154589405085,22.593516297843035,0.15432015831811785,-10.563064260854375,100.00126625357879
5080,0.18043765476225562,0.049617577982897315,1.0800982773022278,-3.865094153287746,9.726542144025604,-7.27860312179409,99.99458670338447
5100,0.1388511679120184,-0.044799200170669184,1.1202758874572443,-13.51790215758676,1.6119277291583098,-0.4823098944255376,99.99990706180033
5120,0.18113718523923736,0.005221152100301369,1.1252954038587355,-3.5068946222539203,-16.05536329018438,6.066230652071967,100.00832342215084
5140,0.17612379570548717,0.017860669468035873,1.1061423747489365,8.039639154270953,0.46939339001687125,-17.88033801415988,99.97791636581836
5160,0.17573054588823817,-0.0681605032180693,1.1114441416798375,-10.742415439525688,-6.601548610651139,-15.734030630891269,100.0075413239968
5180,0.12525519480135164,0.021941810219473543,1.0832426937271251,-6.486657608557214,-5.087126855238884,13.419277234375969,100.01525170743936
5200,0.0893911094761247,0.030078227458015135,1.007833754819147,-6.705025980489506,8.235148584656631,1.4391380465436479,99.98056648714613
5220,0.09940630209090494,-0.059797289744052275,1.0173038552966085,2.349428384397455,2.0579785561503345,-7.928111934541314,99.96464064964697
5240,0.003115520271844502,0.007384425642045835,0.9896536555285539,-7.942951416449825,8.016982452874986,15.530616932655906,99.98764110003147
5260,-0.014868588386752049,0.056095971170379524,0.9910729507299783,7.250973394634288,16.75633843441462,12.662228754960406,99.97246037416876
5280,-0.03470577717406184,-0.05373572029190193,0.9422396439404375,-11.057159645977634,-10.418951017956344,9.99598043398631,100.02660351311233
5300,-0.03135517725376751,0.01791187578407422,0.8781495858666104,4.937298688725536,4.1192693839448875,-8.399983829304366,99.97440486504412
5320,-0.12156545889453274,-0.03999360422820026,0.8922763002363673,-16.94523156303874,-13.403315475291878,14.734529526616292,99.99905488154617
5340,-0.04344819259480408,0.035136378012655775,0.8107549507173952,-14.286060162014344,-32.81107289344013,2.6988430175502307,99.99838000109622
5360,-0.20809909422292103,0.06254497386133094,0.8568749292098605,-7.053624722070431,-15.57608854437727,13.14866313839719,100.01403496188355
5380,-0.18985633895170484,0.03979661020197211,0.8369104342835352,-21.051909854939034,19.64416970934649,7.316821561829577,99.9514703221944
5400,-0.11547100495343392,0.08628703810873058,0.7407241349469895,-4.170812884932559,-4.596087321612771,-3.0073303997755847,99.9906333495282
5420,-0.22786633823940383,-0.06146941406522294,0.8602422313832255,2.442821639756879,-11.616887328521203,-13.021632420950322,99.98762060992999
5440,-0.1402359123502658,-0.0008633619241041985,0.8041073482338988,-12.545979376962542,3.566313041051898,-5.277501859262275,100.00350152738143
5460,-0.16196103550708688,-0.10159443896871137,0.8928904078078828,-14.81770595589052,-3.264145163157643,-10.44482528889308,100.01450575234898
5480,-0.21238078813764033,0.010470881139633027,0.9660776234863157,-2.0878484037427354,7.475898932944486,9.74965818567696,100.00352196254399
5500,-0.12635902124216833,0.03729074495423866,0.9061461339288608,6.155712371279876,-5.665476904926716,1.9712550499874066,100.02749029577531
5520,-0.08192111416370002,-0.043739224264559284,1.0487983521613502,0.1682068285851509,5.066167399108974,-21.281795017166086,99.96661674355394
5540,-0.12515163459961084,-0.08948515307949773,1.1018447658781187,6.161175467890352,-3.5386014775234607,5.845786242503584,99.99970287140198
5560,-0.0224572916250972,0.023862212263142914,1.1080293669121715,11.161997233753938,-1.3360050350585113,-2.5884641262458086,99.98210354373649
5580,0.06660000694361765,-0.01793466804261087,1.1844501515650376,3.286970509854793,-13.657753118180157,27.64941180964845,100.01427600872768
5600,0.06294405316352919,0.028584812768663106,1.1686459014862278,5.293390960124864,-3.3011971605017942,6.0996800615647455,100.01444562308656
5620,0.07586406531889117,-0.03947801458536202,1.1479821611004932,-0.6197788804598781,-4.235393949109322,-32.792850703473356,100.00256575515934
5640,0.18532290857328707,0.010917472326558646,1.157742331897145,-16.728372768720572,7.511109425699633,-3.820667060367012,99.99396816789276
5660,0.1271579553955461,0.0511224987983946,1.197833962590106,-10.287555201236893,7.451503968017165,8.736749567495053,99.99584807061827
5680,0.23630174432702594,0.06403963708065881,1.1382163567620935,-7.9149167503268565,-11.346644511847403,10.785960609071807,99.99727108195265
5700,0.25521193185238655,0.03127180645291348,1.1109865573797881,-8.713915208280106,-9.541219761958134,11.193273410582089,100.01835241645107
5720,0.16417258338690233,0.0292525309470307,1.0934432894232946,-3.109344845140479,5.083342822035746,28.598251107296903,99.99113781972018
5740,0.17861649487935932,-0.014279876765500191,1.0942023433223234,-3.0344148066201835,-7.011705115714392,2.545897460660786,99.98216557583864
5760,0.12058165426099098,-0.08252189347425998,0.9712082979536114,12.174030496847237,8.99990458040733,17.697270211976495,100.00484592297215
5780,0.205868170419627,0.002148034044006524,1.0368257730710158,23.695250418196657,6.674282761109438,20.848917314548746,100.0285707100784
5800,0.10046294897507865,-0.0017339033115383769,0.9811543609580193,-5.9145556761404166,-12.538845885074075,7.3656201467076,100.0077150872808
5820,0.1055728256626002,0.08816637438479141,0.9365750290252197,0.740006177632457,-9.164948086224367,6.972524549659296,99.97228866834008
5840,0.05959175154352139,-0.06449160853214449,0.9555790898908345,-1.4271302045853727,2.1980821857423787,-10.55290942066657,99.99804778044737
5860,-0.0486351820843554,0.05859113144900085,0.8816044233806831,-9.543472660389988,-23.61791876772128,8.162806987244977,99.97342234590565
5880,-0.07681089269070565,0.058098761393379876,0.8242407284821665,2.252275801619195,11.470325592803535,-0.6954069142117869,99.98465885985857
5900,-0.1133664480466591,0.046998086054840287,0.867314088613619,-1.7447595893914705,44.99509554161227,24.402358601469174,100.00572331619685
5920,-0.23519937765977444,0.002344172683726083,0.7674267828142929,-1.8226712028203185,-0.880184264831052,-3.701533876978165,100.02985078114541
5940,-0.1378588473587396,0.013442612913834195,0.8929005994376961,11.229009244536915,5.1632903094017495,2.2386661240323558,99.99025021939481
5960,-0.2605415128757674,0.012075830349436874,0.8520472101655058,25.440500402644123,-21.603829944100664,4.864378566244694,100.01792154688677
5980,-0.09514424724399606,0.01620578067074472,0.8858255440542369,-5.21482138960797,-13.562713845231102,-3.0757134663319126,99.98172045409451
6000,-0.28098737446298594,-0.030343954090680744,0.799733206899338,20.805058349363126,-4.445827580295614,6.905164000256221,100.01947504277369
6020,-0.09507068964306822,0.07509439341531285,0.9328694120293706,-0.8967916415945052,4.905697344251213,21.744685317145006,100.01500213216232
6040,-0.2166684138753039,-0.01841989999655391,0.9845532345235185,2.7526016581635693,12.667272142654571,-2.77089664697648,100.00580002909226
6060,-0.10586409424766553,0.06785188789439402,0.9994880523105996,2.774001512586491,-1.093569544113429,-0.055765521313030926,99.99756971685719
6080,-0.021112133851107502,0.06513472242146955,0.992019801831856,-2.516141910237714,-5.793877618563258,-9.797257377470736,100.01432787784749
6100,-0.020384180674678048,-0.02402419796576198,0.989008143934686,-6.504826041641243,5.995952303666304,-8.485787199806849,99.97723985845136
6120,-0.006546108207587848,0.09406739699271736,1.1340324097512127,12.479132009473906,-8.725426778787737,-8.365531159572917,100.02273342304923
6140,0.09545299059405236,-0.05388040990280266,1.1736785900493862,-5.346464880781118,-3.2297168533743204,-17.228870102778814,99.99937826204918
6160,0.10029689753338923,0.01989631803581797,1.1161990744300856,-9.56557550133362,-1.787117793066242,-15.885915397130713,100.01332614809155
6180,0.1468696449138331,0.04925066243544001,1.1590121836777967,7.1633889747418955,6.700483636158865,17.49875741030168,100.01674484962155
6200,0.2463880196858635,0.021781581774484082,1.1452947373418654,0.4855132936511073,-5.351921836184187,-1.412414952251359,100.01687542020849
6220,0.2160580273480511,0.05612460116917365,1.1697779388818206,-2.4344021105411815,10.670976167202424,-19.362553173524258,100.0117958656476
6240,0.20145361986612084,0.09679334041687197,1.0599087630126542,-1.7868964097035818,-2.552488214432552,-2.5906540273283056,100.0155199764624
6260,0.24112729478571865,0.008440343468820508,1.1138862088791706,-9.61507773600891,7.163222492135964,-26.581642692387653,100.02224096905285
6280,0.26452646695798343,-0.010044628684674022,1.0666552329533612,-5.419160118434216,15.175198600688082,13.804451403997788,100.00663683493944
6300,0.15563871394231013,-0.0011535845561650362,1.106074427243762,16.12065569848115,-16.092554613280058,-3.0704709381339166,100.02300774455611
6320,0.10815879813217932,-0.03371983615631584,1.0131594338899022,-3.733923407632462,8.664821171926526,0.28545958530393944,100.01872901350643
6340,0.015124119248329057,0.03625534735621037,1.0132441863267472,6.68723041503384,-19.563413617843985,-29.237664431310442,99.99014631529903
6360,0.10735294370572361,0.023764228311926282,1.0112424848876373,-1.7773580685269548,-0.7394243451806861,8.656459405031693,100.0126905050227
6380,0.019912712005361117,-0.031046176464626526,0.9076078877182361,4.231727375069976,-36.67518432941459,1.435922424153746,99.9867587401143
6400,0.01668393093362247,0.030257855876940073,0.9944042228946218,-6.817911957893294,20.60528161578953,-0.7417157849528355,100.02755703287598
6420,-0.059203581683443994,0.06472605957919293,0.847234592812817,6.1335556955027855,10.778103482568428,0.915668797185347,100.00357022052097
6440,-0.17545015591814508,-0.06418081020055819,0.8754488761990107,-8.575727640996487,17.742480028311235,11.542909388479085,99.97349080833564
6460,-0.14219059181032384,0.003433730793036903,0.8424131317675071,-11.356024181654988,-7.4324952874217125,9.080181405984288,100.03029455061962
6480,-0.14955811010434805,-0.10870284716093877,0.8388401943184283,-0.5594167667351414,15.602955557902133,-9.501194245392696,99.97942735359598
6500,-0.20933027679841032,-0.012469989734628394,0.8632209481963289,-11.81702586262099,-22.731993734975397,9.655004492483577,100.0077393912151
6520,-0.1841349628231639,0.04408236041174541,0.8720514395567022,6.1012395077273975,-4.16375155024974,1.9564655966648075,100.04443948829983
6540,-0.24067485277304898,-0.060733704078350194,0.8588511016895303,-2.1127697644246455,-13.873176908939747,-21.51458610286703,100.00524718623
6560,-0.11093421833631174,0.05228296488728551,0.891811683939737,-0.21474565098396078,10.460677557224287,-0.12816170820727554,99.96180774535158
6580,-0.11046932843075416,-0.07964884989709313,0.9065182463086693,-7.998512439424589,-7.968529626435268,18.274743450194382,100.02634771054446
6600,-0.11094241067184721,-0.03462085858122885,1.0121901240086055,-11.355146836793722,-27.883574039703603,-1.7725153432347667,99.95339019380498
6620,-0.05971679977094613,-0.01617716715491891,1.052839015950241,-6.361692561072972,6.283636973992125,-7.010830755299347,99.98401984580701
6640,-0.046285965041883835,0.06104886113515007,1.0213257775165516,-3.734338197175846,26.500858943835816,10.128093595279562,99.98445818743262
6660,-0.06556931027331174,0.00795156316000304,0.9890825741222287,1.8784070046352155,13.312536146664957,-5.7185531320943355,99.99419845248441
6680,-0.11283038479334923,0.023037024016703232,1.0828063010270181,-12.414313823463257,8.021599417586515,-9.209879168584145,99.99412968588771
6700,0.08496625690189258,-0.06334157485382749,1.0907592687214371,2.9189400443513733,3.545852369420002,-2.490815032918308,99.9745470527102
6720,0.19974803441656358,-0.0167454067984709,1.1100134841869922,-12.17130951222319,-16.827810741243333,-0.30166235387505597,100.00302175186705
6740,0.10690247751701462,0.10337438678659172,1.1306809450621533,-14.07375856673141,18.753632228195592,-7.7042735640361215,99.99547739975637
6760,0.14144633284346972,-0.09438468935495146,1.1282643280621967,8.134733798884088,-6.730679343608971,-7.3500765965104335,99.97281132732691
6780,0.23685883956101034,-0.1476594912395434,1.1097027711545528,23.685732282086917,19.607321289352146,5.414947720616885,100.01324224375091
6800,0.31580230100152357,-0.06623636591901562,1.1382416058313523,2.083640945905189,6.801536911137631,-1.3733358133846543,99.96141264286219
6820,0.196742851424039,0.06335594432803957,1.0926448555476833,-8.683479958163261,-2.606503482089308,8.291841200515844,99.99334344597946
6840,0.1838280258304463,-0.000831510297529421,1.1786691853351747,11.399334846305452,14.219896804418001,-2.422445932874507,100.02674619304281
6860,0.135226571408605,-0.0030502832228580566,1.0173484161326825,7.278111563544847,-6.341357041671294,-28.11043247984317,99.96326945734488
6880,0.21829223508405576,0.01743636355072144,1.0787965154755224,3.2608299209665796,13.81005146441668,4.169786872976649,100.00167541004657
6900,0.10425179845916799,0.07963127799601301,0.9951378808822509,8.98446309245897,-1.6594142999724228,6.8863651354927935,99.99061166525378
6920,-0.009213969808297695,-6.206726425425915e-05,0.9107899003133706,-11.273463611267465,15.692718440565574,-8.333581703059426,100.01098182310862
6940,-0.07741265458407878,-0.013362198529013374,0.9373527168708313,4.517937806595972,-8.97606844058163,6.0047338334284746,100.00278323729096
6960,-0.11038117442106032,-0.040636414314770206,0.8854418838218646,-18.506410796026444,16.357465807952803,-3.3255196490610253,99.98486946193943
6980,-0.036739325843251874,-0.024487284796590868,0.820232800654983,6.450612378661706,-1.9293158886312551,-6.4703915121634745,99.99339326645791
7000,-0.14401781974664496,0.007991855935535476,0.8975266027626653,1.2473671749787443,2.4979711548059917,10.278182747977135,100.00834362767623
7020,-0.12234718539020613,0.05423326504737465,0.8799012261674061,6.993948028086536,-0.5922994688206678,-10.296745948688677,100.00938444001804
7040,-0.12807112344902377,-0.0407571228492999,0.8668123519213906,1.0349513476204155,0.3395349200058788,-9.720166455208608,100.06674056400122
7060,-0.027520957650161187,-0.05913802652284836,0.7998496895365234,1.8454034451621792,-9.131536086228362,-17.511144110799815,100.04603953137601
7080,-0.22743094103774722,-0.02442695875840785,0.9117271679481636,3.213200437141823,-12.827812304275724,-0.3556135806229055,99.96899376144255
7100,-0.12904089494107857,-0.048216276727671245,0.8193113052650339,-11.039831693937225,2.908051077296209,4.121138111159013,100.00975955607296
7120,-0.1714518960908561,-0.061047787624988116,0.958631005679048,-4.793245534470563,-9.092388291002496,14.47711548972597,100.01423726824369
7140,-0.04918775708759969,0.024661572142170865,0.9691993190603565,-9.369655904407129,-3.325403644035725,-5.272343378834851,100.01055190001983
7160,-0.13332151229937933,0.07982092926711565,0.9587465033651956,-20.400038597338323,-7.027773888978151,17.232176496349904,100.04087752406573
7180,-0.049114281678754965,0.005660682031605893,0.9901199751861022,-6.311305142238462,4.147595865651908,-0.9052710585350991,100.0071583952225
7200,-0.07062602425924497,0.027163097247929147,1.044309725390789,-8.66803751752791,-21.00106834736515,-9.155929829843314,100.00616992059422
7220,0.025935555990919377,0.0011979433073305065,1.0905343076563674,14.324061643812732,-3.8835163394743755,-0.504100611501699,100.00153937782336
7240,0.08621239495690577,-0.09303380656025169,1.0068883084741247,12.138250551565813,-0.33556287398486173,-3.0175516880679485,100.0496178009918
7260,0.09959881479515002,-0.0018244948364626566,1.156749937947707,13.779653017380495,-14.106273196978698,17.343889648607828,100.01027648770507
7280,0.19655461979433514,0.018880892136157925,1.0962242876592458,-7.7416209815971175,-18.58193987424245,-12.696973010903719,99.9924834509517
7300,0.12241631039374112,0.07994054017206237,1.13044189758954,6.55016674621886,-28.175421295407016,-21.915773393041412,100.00582009111648
7320,0.24685594395146646,-0.06793633727849843,1.1442163517804738,8.636683795410795,0.6217078124125568,8.59432786525589,99.9838520931832
7340,0.23832121120623168,-0.04756333722000153,1.1651189989806443,-5.034214330823396,16.680213614764952,19.937358195235255,99.99241717208366
7360,0.30454593560420923,-0.00349518160671349,1.1130476721966487,-14.656873991761396,-5.470849604533299,7.598113493597069,100.00211814379587
7380,0.20335302525901225,0.07556205789863138,1.0569585120488931,-6.310309363266871,14.04852519290388,-16.706532176388954,99.97548860719712
7400,0.12828654181605592,-0.024047583122689186,1.05805914466848,8.419486334517988,1.332175475686081,-1.6509078945031432,99.9941993244958
7420,0.14734847584531702,0.05576636644475778,1.0464930311868488,1.4422618486518384,-26.92823499986139,-3.5537040708047156,99.98513758411909
7440,0.15084084678197793,-0.031140291845388576,1.0792080271933875,21.28087362917299,7.823997834070754,-5.411775724729668,99.96811441596502
7460,0.1448090509892116,0.030942506948099663,0.933674001779719,1.6104983615491888,-1.0374619179186841,25.53146043870175,99.99734271677856
7480,0.04302343151327157,-0.04470096565913898,0.9867537291837132,-0.4877655061645934,9.45061467249226,0.09116550113440175,100.01396362344634
7500,0.040176047290158855,-0.12559711920283997,0.8960167072164239,-15.673328007013147,-13.86207180469669,6.205411872384409,100.00255482755509
7520,-0.08504979701924967,-0.040547799401949094,0.9409275544326944,-2.6502902982263588,-3.132529726339733,13.86982217736773,99.97857367938764
7540,0.02246085036575167,0.00899715315844288,0.9154945153248535,-18.962787116189478,2.9810200599266676,13.24650354485058,99.99029661636061
7560,-0.1162230213496642,0.06871739297444217,0.8458192380941738,-16.672385842920967,-2.648745512246959,1.4087746197915327,100.01056235728413
7580,-0.14429470933152563,0.03265133135335166,0.8559404275372008,-8.080087158492255,-13.8861062483787,-7.817991835973242,100.04030009646175
7600,-0.1509030904381553,0.010663914456389208,0.7427470127399276,-20.80098886699752,-0.6352188316977168,-5.348886738887302,100.00751303115669
7620,-0.21719055210649707,0.06677230518772927,0.9130735004099512,14.42090275903374,-13.152543278344893,-0.17826097177845007,100.01500851399315
7640,-0.21083430505871092,0.04067466899198141,0.8430081486470198,-9.44438538837222,-9.482925107416916,-2.035560537323543,100.00400975680431
7660,-0.15073585922257224,-0.02785046293025637,0.8692270508643914,9.590709732605028,11.440622328757833,-10.146921992555288,100.01775943798786
7680,-0.17402597153322133,-0.05364682311805413,0.856158344159113,26.853543492413284,9.676617722230223,7.571355906120942,100.00944973313247
7700,-0.12954173835637878,-0.001130253787004366,1.0006293743076677,-12.812999483169744,-13.76208728544491,-7.346061231905319,100.01450570912849
7720,-0.08928643503213896,-0.07622707390627374,0.9330149860975648,-3.023514826805055,-1.3555551954423994,17.474584636977102,99.98174850639342
7740,-0.16101967654536592,0.03662951795886929,0.8764856102840123,3.435606627967611,15.326898632552734,-2.8683043939454094,100.00126546634677
7760,-0.1732125345790798,0.022168227365261993,1.054884237471053,-1.1078295425092954,3.441194421404929,-20.399201308184324,100.01225959896763
7780,-0.04242941192327686,0.041266265376092744,1.0962137850714002,11.830480780247722,-7.118316470693289,15.201625590444957,100.03519562822451
7800,0.04137577851796424,-0.03676810005041459,1.0978677757486859,-1.7368601870432174,-10.454396004635807,6.44250306730253,100.02863480163657
7820,0.1326036024191007,0.08568849537419326,1.121897361942352,-5.699661505461862,4.7582580779745225,27.267134232084523,100.01961200723817
7840,0.1576040359040921,0.04557952427994871,1.1467940370390328,3.4805656943909495,10.526540829393653,12.472832443921547,100.0060655011774
7860,0.14333457445656594,0.0375063797717518,1.1151314766801375,-1.6159348853812086,-5.78297885501747,-2.7968415580962724,100.00568497348956
7880,0.14056864079450454,0.008323103549681497,1.125947463278126,1.32264962102612,-22.635200342791126,6.192764872691411,100.00442190073773
7900,0.17979573261033907,0.05132882088787433,1.1627887528283234,-11.233350237315832,12.488509370788446,12.981656114322654,100.00321939170567
7920,0.22359479606533728,-0.06413307108246173,1.151322519599469,-4.369397681234298,-6.007724980564294,-12.651894590447398,99.98010605563972
7940,0.16651616053811705,-0.005706342572405678,1.107311202422613,5.507134846784476,-2.9362584891035337,-1.0514253337548767,100.01149228031235
7960,0.13193608665688772,0.024067543410706563,1.078525539166459,-11.04194847509116,-15.955996163309496,7.381484555884383,100.0106684546639
7980,0.07521757608858765,0.02390913236953389,1.0618722353814278,-2.313620248472418,1.3070007607379577,-5.34749057250372,100.01909166379482
