timestamp_ms,acc_x,acc_y,acc_z,gyro_x,gyro_y,gyro_z,baro_m
0,0.03187253040503021,-0.012720958858365848,1.091968094740035,-3.8559624719748475,-5.827937739201962,20.160697543055647,99.99552018283075
20,0.09928321542084736,-0.026407580466304894,1.0872014109954997,23.646322585268585,1.8622039378270772,-15.09318536877219,100.00844918033697
40,0.029757957303349042,-0.061601322737172594,1.1798534518758748,2.4026209828847964,0.5046359066876773,-10.536197619859417,100.01913423796748
60,0.07968670187510271,-0.07543019312256567,1.1363486261376112,18.352894768768067,11.946446091150356,-16.910876857770457,99.97864804729973
80,0.2580747449763744,-0.04097070585544861,1.1798071529382306,10.601209794345333,-17.145680247328304,-5.201673089563672,100.03324092218926
100,0.1722654226512431,0.06667520364846415,1.1433510876038868,-10.658256559912573,-8.908894649331248,0.012296397521027508,99.99697891231597
120,0.1637863389231498,0.013377022065059491,1.2222011915766093,-5.684502353739328,-3.793375426098912,15.760725345551384,100.01551688522156
140,0.15892758857131722,-0.04223346925992025,1.1535703312137395,-3.6117685888331534,5.072772613906157,-18.421798078715483,99.98877279468678
160,0.2822344376444369,0.05348465636183473,1.110547670530398,2.3106401280263196,8.365234176568457,1.482507242903693,99.99480259798425
180,0.25280071164812845,0.021032201084421647,1.0727962697496638,-7.057609096367278,12.612696219801599,17.432167936877775,99.99068704215401
200,0.0812621389711223,-0.05397534045454411,1.0270186626443358,1.8012060566274257,19.19436077150254,15.808820284425803,100.04644743019476
220,0.09878177294597631,-0.06285119568122277,1.0547104000412701,3.3866628486608725,4.199616597851308,11.922822262639238,100.02007031193159
240,0.08771348506610241,0.06359419766075147,0.961804925644369,7.412405010142292,-12.517204663366996,-2.1730442719635255,99.9734279216571
260,0.013714109160405046,-0.05658142157494577,0.9745578754230924,14.446385228758214,-16.781303769038885,-0.13517252368496546,100.02865645712049
280,-0.04286850616593084,0.049709221988774324,0.9636385128414208,-8.723965539785159,4.461257334539104,9.188623952363475,99.9745458911979
300,-0.08128553208788016,0.05224766941410898,0.8820745517175005,14.802299465524941,19.761317384145674,15.610187084791466,99.99592627881943
320,-0.05098607562047137,0.024549845957500236,0.8416528932454492,-6.159760298452946,0.9436898938654271,7.392140081327976,99.99746531160818
340,-0.07035540265832312,0.08764774846556928,0.9312520915469509,-4.9299674326814635,-5.152781501119832,-10.006070096429063,100.02003627220273
360,-0.21610023321706062,-0.04511986021879074,0.9334959135010971,8.979203773076136,-14.400907897687304,9.977372426527838,99.99297710539396
380,-0.23436440236483866,0.050562200820874995,0.8436751158736143,-6.592706090018478,27.578268486922703,-6.800697940261761,99.99202404597288
400,-0.21479271576094777,-0.02013888743392814,0.8767873986592032,2.8291805023720604,11.667997951668472,-16.962240212421758,100.03174232955004
420,-0.2595386365809375,0.09928889492250545,0.8808914621942329,-10.793835812986242,1.3407165614722618,-4.646169099745107,100.02314868349586
440,-0.14890631377931665,-0.054152164796947046,0.7950340004282505,-5.989253013381127,-6.4190402225421535,-0.10152018056803801,99.99740831141054
460,-0.15874896041249983,0.05116748626362691,0.9114882960803972,-7.798426416982354,16.802005510950828,-10.305972987538393,99.98697472329617
480,-0.18334967341332722,-0.0003627628706012118,0.9146697570425357,14.920704503670294,11.502244159967075,2.651001171073886,100.02466201986815
500,-0.16094188794367542,-0.03325237927675558,0.8840707174799953,-6.075283549755627,-0.2927393857475753,13.275238135117288,99.9890042051852
520,-0.1804247555804677,0.07665947086267456,1.010714603184968,11.255988054910256,-1.3488214794069833,9.34313920584126,100.02262296118977
540,-0.04420170029769409,-0.021838906787160304,1.0797530110373272,-5.191869674523873,16.819645530177816,18.76925189702815,99.98539890186446
560,0.06383755476358102,-0.03945440052252549,1.0738989935450822,-9.594365227600964,10.884099017017581,26.93287526542207,99.98677198554925
580,0.06046662130772322,-0.017659485917795863,1.1088109421853178,-3.873664068756425,-6.180181782673204,-11.033404748639008,99.96879827324022
600,0.13249643621264126,0.010371689431028628,1.2152047486009663,-0.36935077713316555,-26.2572407518061,-7.185138200982362,100.03342949535859
620,0.14719152921077702,-0.03655337460435019,1.1405666311130764,-19.330367288121767,-7.203524548114296,-2.024741137378657,100.024159473227
640,0.12124175630108368,-0.02358345269185212,1.1025878373092952,-5.949785618306892,15.148872764394934,-18.80506615564531,100.0278591343497
660,0.2606593345917735,-0.007158314791057308,1.1156085515772982,-10.810141265778505,-18.898238171512254,-1.9579158430169878,99.96885044099996
680,0.23345173936291258,-0.04509456737911345,1.1165168253542104,-12.693529299506437,-6.888644983348959,18.79678125080077,100.02642881056285
700,0.2251306398418908,-0.025892765752803217,1.1634991618045833,-4.902768069564142,-1.1561333231799675,0.2329491059652382,100.02892713646112
720,0.24290234873125743,0.005913312395953233,1.0927126196833372,0.8981887820050256,5.3858741194304285,4.92826501357572,100.00221778593917
740,0.22774712529665508,0.043910678765066706,0.9886609437953462,-8.78280756410512,-1.2186716897853584,-7.0632251715691625,100.02375979726501
760,0.12657072863012134,-0.02193087399642309,1.0647685894319794,-19.729710114471267,1.426548059243664,3.5392377227977394,99.98770220053098
780,0.1604797199891016,-0.04908627184996804,1.0796877353055503,-3.056873694356103,7.125066304372614,-30.459619249335148,99.96531826560714
800,0.06567206166353959,-0.007796145442743665,0.956639345418546,9.867782241044683,-8.264204424149222,-17.906350857867032,99.97306829332483
820,0.05954172184579775,-0.04376469335070211,0.9676344740688148,-10.517850602653814,-13.49833287155969,-5.347157881275645,100.01651821646429
840,-0.08713796179246,0.01154832264706278,0.9277991364931603,3.918147475488933,6.85197616508999,-14.915941147432342,100.0273056212946
860,-0.06442215166356173,-0.02078023001573742,0.890021448243294,-8.966654496460023,17.575006039823464,16.691840071192647,100.00808577883056
880,-0.013893752838308487,-0.02033313090088049,0.8772298068816071,6.223951221932595,9.848655388959774,-12.869056170735462,99.98310383341943
900,-0.11042563605856497,-0.061637285931072316,0.8301563253238652,-0.7572879852530765,-0.0860987489276285,-9.601252452825905,100.00500149686495
920,-0.2101853688880896,-0.010584822623634391,0.8172555645901985,10.881726380081458,2.137695778222753,0.23394926900941848,100.00565278839579
940,-0.2513696449004841,0.0005459683608641728,0.8756233911967037,12.388747552608038,9.538133998946979,21.721259977442145,100.00750191050538
960,-0.18860959516108583,-0.0009707096296666898,0.8736507816553871,-23.08231648567475,0.5360325396467895,7.8077075918146654,100.00414431496928
980,-0.15244909517450295,0.0541873447626172,0.9159348149631162,1.6671450777953525,-1.2612652064122558,-3.817738293824128,100.0345898017725
1000,-0.17494520790967183,-0.04309960525048766,0.9848288681595024,-11.543627360038833,-0.255338522843937,25.15363996230394,100.02189511406944
1020,-0.2226802094998424,-0.10464642600472279,0.887391299083174,0.37587211340969745,11.704288264177332,2.274991179688785,100.01497919524492
1040,-0.10410951440226585,0.03314842503143658,0.8700536406629359,-13.805596110591665,12.041500198846936,-5.340699948319565,100.02222192571863
1060,-0.12434602013857493,-0.007616214744443475,1.0243056520743308,-10.804191802217225,-11.884030657447484,-16.221220664398494,100.00550861203189
1080,-0.15304219390444163,0.004445950815765298,0.9860434241297368,8.713749744862469,-6.383831557415163,0.01487081264043381,100.00399279748984
1100,-0.010960826117873551,-0.06777111202485069,1.065324636930702,2.787615688677096,5.959946374060807,-21.74368729300089,100.0078520781719
1120,0.04239752324305082,-0.05712929442138116,1.06707263798003,12.0733781845618,18.321108802728222,0.77048446000221,100.01269359876262
1140,0.029215106675919783,0.007496966121789152,1.130912912978113,15.646983853433396,-11.994438960486342,-0.03659690485091961,99.9981744105882
1160,0.07032286974102536,0.010512961424629022,1.1348543247462444,-12.25961315858231,10.86500678572433,3.723414280958801,99.99460567683985
1180,0.16443335595303482,-0.011602649956742359,1.1051326113673494,7.578292808189143,10.038617090978056,-4.393764140952225,99.99621332705384
1200,0.13604474215258075,0.0132936274383766,1.1314758193480916,14.119621278390731,16.609521239284177,-4.143500639486862,99.99476315450558
1220,0.11831661947642398,0.08268640339419264,1.2238414381351683,13.255172002348331,1.6443345382189114,7.177380417728198,100.01388314953574
1240,0.27567457525050026,-0.045747754448134156,1.1591327333606634,-19.452128562283878,-3.7431263499254026,13.1596852540285,99.97182778243914
1260,0.23316009540565424,0.013335785626262107,1.1820109211661087,12.270627853366879,-4.651800273591182,6.628429215971961,99.9763489722639
1280,0.28237061383785367,0.06201057055259153,1.0739699795880246,8.624319044595437,-5.559107176384163,-3.296488247152839,99.9630385332115
1300,0.10083235485110319,0.03861217769042732,1.0257389818663396,-11.433706686058706,14.280780036267375,12.268349632378676,99.99494467188991
1320,0.10362560683933572,-0.019204246486342842,1.0819291176590946,-1.269377553153308,-14.347813214850772,1.9197469587765663,100.03119913657629
1340,0.09422079806443143,-0.005690833161831707,0.9009478518011237,5.406601993972683,7.256702507086876,-13.289035992679683,99.98555096254546
1360,0.026657386942830888,0.07576447125164304,0.9991610628723379,-8.622651660487815,-7.209889531894126,24.778981118456002,100.00170353615772
1380,0.02957929019918905,0.0077362603152823315,0.9374959173584089,-10.675537267550835,4.718291933000538,0.23470449337973254,99.99272953156276
1400,0.02158208546421407,-0.009284521262902667,1.0207024484767921,17.012423848802634,7.136522066495676,17.14486017751318,100.00714030702972
1420,-0.07611132917025379,0.02698789672656858,0.9220021619416205,5.795886523130342,-6.57982847355361,-18.232761641464524,99.99949443621963
1440,-0.12605495989205326,0.03377691008402622,0.8349686610844813,7.356441276993215,18.906509584363832,-11.914414080921016,100.01503064021968
1460,-0.07866576437903047,-0.011816519651416793,0.9537584946038404,-4.272482312142808,-0.3552028596188903,1.4987763299278463,100.02950622886674
1480,-0.029073613588919384,0.014895359086487148,0.8644826270983765,-24.510043647045606,-22.68025307682435,-0.5481045815097069,99.98807583886968
1500,-0.2751707332855324,-0.06966176934363683,0.8045395562206586,-5.375279477959083,6.995492077989162,10.353184916625727,100.04667696608585
1520,-0.21738360813703156,-0.020601047602995096,0.8625525469879203,-13.732233805604256,6.735377405748832,-2.24085313492716,99.9942033576171
1540,-0.23904116064957656,-0.08775493439329853,0.9089504177696914,-4.400491119606226,-8.53701069700715,5.974091679594474,99.99122471064396
1560,-0.18802065028839707,-0.02772950642203788,0.902411735599894,10.753831399429682,7.134454088789621,12.785070444448872,99.99339593102847
1580,-0.12563528816925723,0.02298052252724442,0.8894978430049296,13.907480438280775,-17.934284490780875,6.109495793142458,99.9656753745171
1600,-0.19153516400812529,-0.013100318736556161,0.9486150652094367,4.332710673392856,-7.103775272149591,-1.7246986927113994,100.00477467138326
1620,-0.07491781264099473,-0.028408338962418567,0.9912424489877575,-11.558082435583106,-2.6244652246865643,-5.956329815490394,99.99300695769183
1640,-0.11099991393491898,0.03225436262169259,1.1153979734934623,25.86741445842444,16.759197827136408,18.70818275636666,99.99734397237927
1660,-0.09031460080553791,-0.054456715556601434,1.0291702531334488,22.773459661697643,-5.408032607199447,0.6250306517618658,100.0136728569561
1680,0.014119262113217079,0.061181959652928934,1.1044433289060744,2.249184394518564,-45.86696560328058,-4.414983044174009,100.02241907272402
1700,0.08181741092641943,-0.027324384011674915,1.1427281663845612,1.1662696658410052,7.6968606297352995,-5.5445175060128316,99.96852003656198
1720,0.10743011328661202,-0.02335912680009526,1.0910280073208545,-10.021712747276418,-0.5952810853291239,-17.844853527367043,99.97712647818018
1740,0.16425208302331967,0.079401718244626,1.0880922094999224,4.280981554062445,1.3368663643709515,-1.3069962989939885,99.983965049468
1760,0.26716911145624206,0.04051646456154729,1.1026263618012309,1.3087585423583539,15.36725199640067,-10.698880374481865,100.0264114218188
1780,0.18739563174545862,0.0012571789059333063,1.0842968197502618,-0.2724374438872559,9.78242357125416,-23.262537437889456,99.97397715449844
1800,0.2606156420067612,-0.04615052087926011,1.2682079752432778,7.478986755194986,-1.7701913038305777,3.3658346202920404,99.97920645241874
1820,0.12758440819977085,0.13158113711139624,1.1316835637183915,15.427390447135924,10.121319776570932,9.675127681224886,100.01679094503268
1840,0.19879689697295916,-0.008102883592284187,1.181863639261849,-8.835463718388484,-0.4164964746743805,-5.579542068961196,100.01057027859592
1860,0.12182379409963286,0.031795421341665034,0.9963211000275529,-0.0746175167159863,3.7466577184026155,-1.2433266500331648,100.00355237832115
1880,0.1393593116488387,0.013175180909684649,1.0712741452584034,20.580784743411925,-0.41016496713223355,-8.317718031634056,100.0175154089245
1900,0.07155119556882777,0.03153307613088844,1.091499739910624,1.048464917804485,5.501375321528956,1.4967361833637043,99.95961607939705
1920,0.046132904373370406,-0.014681756344956266,0.9443362141537978,-10.446312660577583,22.166154733939926,1.9860386738930018,99.99071922036767
1940,0.060655144454051846,0.05195585625198711,0.9585870525055904,1.1005109415874512,10.33963245608832,-8.93556735515567,100.02084210206964
1960,-0.04247315340542333,-0.013164092791474541,0.8949629667631951,6.920091191368778,-18.074692687757008,-25.253594992712635,99.9944652849316
1980,-0.08664013623451308,0.019280154399433955,0.9185547829968995,0.357066136755421,-8.140081986552499,4.781343528240252,100.03800290167725
2000,-0.14640618667660601,-0.00938744566173616,0.8142824255602977,-4.927425769338437,8.152954597633569,16.425346372291052,100.01021985553683
2020,-0.20840591955207866,0.004514155998929936,0.7471752104700464,-13.187276714607158,20.07315490258458,-8.037185786675513,99.97384489601065
2040,-0.1112353562958361,-0.03637826174627919,0.8428169322524168,11.117031243192784,-6.7471793366078305,14.085074727977625,99.97938385617168
2060,-0.19153306348568253,0.05071855153152502,0.8604178877824756,4.867222253570889,18.53907624155949,-4.394993164615023,99.98948066137714
2080,-0.16486361093954882,0.006828409748064196,0.8637803412949067,20.784207061081897,3.420275780213226,4.22075686788786,99.97297027229148
2100,-0.17069608516534124,0.03629963544681503,0.843876672328052,-2.427745138480516,-3.745514962566621,-7.728650383340039,99.98648410698833
2120,-0.24577633475530003,0.03254243753648993,0.9112870609040077,10.84054316017929,-14.219020554339968,9.742950872144375,100.00254141079256
2140,-0.1965633099597504,-0.0976275753907721,0.908041990814105,-19.70611644047108,-0.3283268260581423,9.882111291604508,100.00782559133756
2160,-0.1510556581023786,-0.051650671048834154,0.9327654313027265,20.90186421810835,0.9193142039620622,6.422598849320197,100.01173582712228
2180,-0.13740063831067606,0.02439412609927945,0.9968114808512667,-1.3451750930922577,5.468329638204025,-15.490954540495721,99.98892511220953
2200,-0.14454856465810462,-0.0498866873010204,0.9652504199050839,-8.276609440230347,27.852039011035668,-3.415976423218655,99.98623012177117
2220,-0.03062634345572577,-0.05720573717359093,1.0355034001199115,-5.6079335919855815,10.318007722830991,-11.167640280535002,99.97268118622873
2240,0.004495363520003973,-0.05669468605829046,1.0179906630789863,8.695357381249151,-4.489621576331919,3.4974640452208865,100.0229140785497
2260,0.13040506391081208,-0.024222875879115677,1.1702446825012647,-1.6150031714497413,16.246175646986103,22.391426554723342,99.99313466929296
2280,0.11584855008296292,0.10133471478996839,1.1878606080233445,23.090997415335792,-3.248911167291487,6.654049757688222,99.96861278098832
2300,0.2428514162578747,-0.034378243723073534,1.1643715105197834,10.800351012952103,3.697686255493262,0.3167897548514321,99.98268475205268
2320,0.20880718315041244,-0.03176466774775318,1.1660790098483198,13.244094332020532,14.605208603074262,4.497543039598972,100.0147894866163
2340,0.09255102838967537,0.049620545138829686,1.1314155857140211,-2.225442364606314,2.903556763581074,8.222117013942547,99.9841969399547
2360,0.15469181058938936,-0.0032640557447989986,1.1664984489795625,27.297151505172636,4.794840043751163,-20.027227510641776,100.0037833228511
2380,0.23913804817265105,0.010337809870021605,1.039823669874757,-8.671979700997653,-3.0898640908974806,5.795691860326824,100.008143199366
2400,0.20321404397491538,0.008497421776836251,1.0509080020423576,-0.3396770328718277,-7.1846310946685765,17.315412026643205,99.99409202390653
2420,0.3296227538666415,0.045503463217726,1.0446766721718517,-8.710082019625844,0.3864338573447967,-10.418911647706876,99.98186652255042
2440,0.10336780549894754,-0.026398177369958448,0.9847020277718966,-3.842162837729862,9.555902718174739,-11.192783378543801,99.97457505522402
2460,0.16492685252328415,0.049448555858602916,1.0330585678227022,-0.10326788027984996,8.690155234897691,-7.130690056037163,99.99215438038118
2480,0.11129992110563554,0.03603289244656837,0.9436280336857176,-1.8220970095264044,-5.164017382442146,-0.606616259141141,99.99301490126275
2500,-0.039679684619528525,0.01614471579009312,0.9034909518403316,0.7012127955197329,-13.526617752701403,0.6924668255234065,99.99714526082343
2520,-0.0284595297561483,-0.07267815137390345,0.9512312226073213,-14.365806526716415,-9.450390891663751,-3.4699430238405036,99.97957300670558
2540,-0.06932766182805716,-0.015678851720092455,0.8584924514921233,-15.18400563137708,12.230119782874297,-4.792612191019117,99.98099434529325
2560,-0.15547713007688746,-0.067596466736892,0.8480167699428203,-7.156368805368464,6.2926108167857455,-2.550763044542296,100.01044413535308
2580,-0.2219144418403589,0.02821347918732354,0.9052263022707279,-11.822047255418866,0.4637296782689078,3.6218298293844033,99.97856787723036
2600,-0.21898150886928908,0.03568669707129619,0.8766790585468103,7.604258432681582,-25.869476832415522,-26.70488502200837,100.01861994305783
2620,-0.2890229541850887,-0.10494784807913293,0.8685790239189204,18.874452424561337,-18.299714476874705,4.661673509247944,99.99893303440403
2640,-0.1250515107313236,-0.09744093375427831,0.8868063080639345,-18.96416145613004,10.014477871166541,9.737684107585586,99.97849729005553
2660,-0.18872836247839916,0.013093506888845483,0.9957381347786177,4.266152152739084,4.8416211456957186,0.4821194219632344,100.02551037572302
2680,-0.20186031039339503,0.036026349031666016,0.947236148995265,21.75474696565896,5.734805318541445,-8.75889592732864,100.02913116040088
2700,-0.17318122045686196,0.03054429379017841,0.990319421583814,-1.2669230854983182,7.727964207757085,-1.8534020612988429,100.00900513891489
2720,-0.1136175240240594,0.018523193904370395,0.9955167316093613,-18.773722711367814,0.20296240113284264,0.834645663374554,99.98050448536499
2740,-0.12010200584165681,-0.021153785869793856,1.0610808826855602,9.494993292823654,-0.7874630115713024,0.33370281477021135,100.02567044302836
2760,-0.07431122912112548,-0.07841397427037294,0.976162039347357,-16.049833321137605,-11.579050568131326,-4.055315355763138,99.9931267847782
2780,-0.011828881912469336,-0.009858404459859249,1.0433408754012663,-21.830234935453923,-11.681044901573904,-4.236851988256021,100.02324351161505
2800,0.10663289157179742,0.006002637049527675,1.1580521560882047,-4.847715733698769,-10.11305191318216,12.19984629521342,100.0209510454654
2820,0.12011219023133836,-0.054669604665119324,1.0167379649531256,11.634749895663546,9.106749963009861,-10.612701117158494,99.9978480787546
2840,0.03905401186712949,-0.04364817597192512,1.167622687115955,-14.172972358664719,2.749230904996729,6.215915517430814,99.97903058911989
2860,0.18346275489137076,-0.037498146059920544,1.2421011242864441,-7.537874265355737,-18.715155286639618,-8.2527436030663,100.00089080455082
2880,0.20587078534616346,0.01637273427931719,1.1251889282124883,2.576147353409942,15.30305987950251,0.17450256765984967,100.00997986183594
2900,0.1253884400328697,0.07099736414245451,1.1451495319792726,21.11493661564618,1.250503184907838,4.943576395069071,99.99961447287994
2920,0.2565109542997773,-0.0008781541211130934,1.127178965602879,6.592786775934165,-0.7291919513205594,0.121607165813063,100.01600292207814
2940,0.26468472860528214,0.10814034625127654,1.1114470472762088,-16.922491329181256,1.8982180652857537,-0.9584255624959148,99.98497171468958
2960,0.14720368045754673,-0.10414971774861843,1.1639018310914078,-2.720053183575582,7.4694453933076765,20.256383082067863,100.02253609295532
2980,0.17408253196190157,0.08404719379842863,1.0313128942794116,8.822810832043874,3.536305633184799,12.948292046599844,99.99494249463505
3000,0.13234904395680522,0.08240510048827582,1.0164243772183454,0.6781685513439641,5.946153171300229,1.3865398931943638,99.98795423924727
3020,0.1337225700153949,0.022056782992119515,0.994895581686362,-3.2604301825187187,-23.654177121625555,-6.254481471740609,100.0829676696146
3040,0.09482824243137669,-0.04195744476294315,0.9427335082199169,-19.95770294149062,25.266220814554586,10.051413367099258,100.01901605109792
3060,0.024151324160751025,-0.06485595278460317,0.8929407618121391,-1.6199438227321696,0.2534157514742594,8.034861481014119,100.01920124409918
3080,-0.07139975226994026,-0.0079332577941305,0.8898403867654237,-3.631993105804613,15.914355337488157,-12.948221108700833,99.98792969101606
3100,-0.16512843136747776,-0.032149443694800585,0.7666767210963266,-1.8458631333102475,-3.4964802377469155,6.880440485276598,99.99274364549345
3120,-0.18385222613321167,0.02312969423698231,0.868685456672589,-10.439233793745018,-1.344655321158472,-27.528942817057594,100.01539144682326
3140,-0.265569832867701,0.0351618722516289,0.8812116692005055,-11.949774132756525,4.222307721766946,9.345907221855825,99.9867250762632
3160,-0.25253562663345447,0.025501429786911167,0.8790221800935665,-4.856949727819997,-9.97514557865457,6.108485437885273,100.01594652284756
3180,-0.296661638734366,0.021576830720377617,0.9039899885277207,-5.1623782486035426,1.5874569573618706,9.259033454560392,99.99101692191816
3200,-0.16882639197767085,0.11800870620086652,0.9467894015335125,-8.056112807560853,3.0070446925948655,-20.570002288885828,100.03170244779058
3220,-0.178372006186442,-0.13536606535365622,0.8131102846457643,-6.512695991071043,-1.6313052530559013,-10.43118493363188,99.99925466919895
3240,-0.22509233305182724,-0.05714801208334777,0.8807719557800456,7.530819070810544,-9.474230840207898,-2.419082429751776,99.99562904658295
3260,-0.23679152359904443,-0.05071076915752903,0.9301834136396708,-11.731701980832863,-10.516944501908922,-22.0118559477353,99.9849931378334
3280,-0.1273325276264557,-0.035999402622903215,0.9726738856863326,-16.103961863194304,4.011609808765975,-1.6173121449926053,100.00059392813316
3300,-0.03506600546020025,-0.013524100871181761,0.9822838654497639,-17.3660257546813,-3.486351745531077,12.122749822604124,99.99930738035461
3320,-0.01793332694121348,-0.05620627413878137,1.1422593297490853,10.11811739415357,5.635061211267263,11.051013859294741,99.95616656190602
3340,0.02960615776446588,0.03671279859648803,1.071516054802618,-10.802662116280452,-15.82049711830285,7.82773272792704,99.96606953733034
3360,0.12824996363042543,0.01665014632047024,1.1249266301786172,-5.460384067719549,-10.948607383237988,-19.766665554766288,100.01492373077298
3380,-0.015670090746889895,-0.06036610917546963,1.1065490532473194,2.73189812993199,-18.508242788411305,-17.112364331849435,99.99387527879975
3400,0.16453490461543083,0.033122173074560404,1.1419660727812078,-0.775924676126966,1.369705816787947,0.19987668804230058,99.997998621163
3420,0.10480169875665202,-0.03955718156985144,1.0787313273417567,12.215785844722465,-4.168563038066529,20.292912049054667,100.00055875618624
3440,0.2241464782242091,-0.03576353001042978,1.0932391411310087,-12.09136990749655,-5.7528011314064065,-2.7008829966881187,99.97219537846581
3460,0.18005649779143587,-0.013242180754290442,1.1765814547540192,14.14696080330598,-14.934576827854464,-18.121580297788235,99.99386024736454
3480,0.2210364508483029,0.018578385889874854,1.1438145553043764,-4.639731648292309,-3.384837004034276,-8.270852858734845,100.00779997601816
3500,0.11932559011754645,-0.013155625006513925,1.0587336499423758,-4.927106664730446,5.89932115372867,8.656118119096108,99.99450850974888
3520,0.17150749109429542,0.0023054091400947076,1.0528360943008854,-5.460512022972059,3.194741711705149,5.679593059237565,99.9923891715562
3540,0.08640596410651305,-0.0314361274977968,1.0439544146497404,1.3813989171695547,-3.5127464708725635,-8.005651505050219,99.99931559028248
3560,0.04368273368592665,-0.014293065622473088,1.0256983215051385,-13.470764337942363,-14.307635817576248,-0.3240871232852653,99.94096463481273
3580,0.009342571494189746,-0.09649166816634487,1.0105847261777696,-5.731825822873059,5.47624931736744,7.436213570811187,100.00106127726332
3600,0.04658960238573258,-0.004729714582507197,0.9336849533482192,-9.700171233272387,-12.672948282996199,5.359201027048727,100.0215597048975
3620,-0.12684616303978866,-0.005879454123467063,0.9757238078278716,-3.8409242046016256,-28.020313466394377,-0.7759147993397404,100.02165911993113
3640,-0.0665907918109795,0.11461373005609309,0.9815781812147854,-28.23992053559447,-3.4588299174896897,-3.893693972411656,100.01920320958978
3660,-0.14356517876014752,-0.05966821520357492,0.9807407830113468,0.545182753218316,22.48735625943337,-12.16122723400333,100.03273251893911
3680,-0.2335493574080772,0.010785234568785267,0.9081633865987602,15.424007860278895,-14.61832412345054,10.718975658497891,100.01582008767514
3700,-0.16902449686642707,-0.05611920673504611,0.921650265632696,20.08296917141081,0.07013240507498578,-8.268820007015627,100.01703982475753
3720,-0.1629751377948243,0.09009909131098442,0.8111088224043216,-8.023249623504526,7.596185065120069,1.3496196465805137,100.0211234454844
3740,-0.1697903988679419,0.008240467655149988,0.84170698788509,10.49411269198873,19.41529127651001,11.348910207002161,100.03284473874099
3760,-0.18762682151341964,0.020637466811138455,0.875532570711584,17.39807450088417,16.96496897636441,-18.903426413572014,99.97209680208967
3780,-0.15772992753210557,0.06347915175851886,0.862669631568595,8.806223290258442,-8.890814669916073,11.52162459415983,99.99619967307879
3800,-0.15428465794955204,0.057584531649587295,0.827826664710503,-8.327156097990759,11.356044010507215,-22.832534614847212,100.00678907745618
3820,-0.12667478259917017,-0.03363095189580165,0.924420036702382,-16.12823689450827,-5.9349556992035435,6.002164467623674,99.98367409652846
3840,-0.15991996060437105,-0.043269522125948895,1.0018239198685086,8.890650296267626,26.393512312308644,-13.52353505465651,100.01089710443424
3860,-0.06135238329914696,-0.034140960376954146,1.0248550573634976,-6.806117773363645,17.025920136914465,8.80029307281475,99.99565554737063
3880,-0.03205666020259668,0.08948627487325762,1.041993174888525,-4.621132785193568,-21.03412022778209,19.34831816429339,99.99212543140244
3900,0.010946952021910553,-0.015591264693628676,1.1286169671320303,-11.917898599108526,33.72662694014827,0.16253593958149143,99.99776801985399
3920,0.10445143200460101,-0.06028761888996578,1.1491921915619363,-1.2124251235829584,6.639494535772136,-7.686467630844195,100.03356500343695
3940,0.06032869102346148,0.06526914866823484,1.1322676287795221,-14.66429243136555,13.88530573458052,-7.5825669835659655,100.00971678490116
3960,0.20608781862089612,-0.04310644837142327,1.2100204463020796,2.1532970062088785,-20.36433868080259,0.926631804064868,100.02009533558022
3980,0.2790815032067361,0.06749418610102369,1.037939140381928,-37.216313893702605,-0.07046137913115039,-3.254529887029796,99.96915982702733
4000,0.0648388511570091,-0.007309431408456176,1.1731786136874525,11.146118042534882,15.64113889489331,12.782495843046213,100.01906203758685
4019,0.19278216165705833,-0.020897293339895612,1.1246241419620544,-9.723880948443014,9.046079636102633,-3.8353878650463753,100.00329047348282
4040,0.23697146771555816,-0.12399324239747214,1.111869326962485,-7.588170486640742,1.6804124641521456,2.892113382156181,99.9685463425389
4059,0.11652429923186754,0.06698247432092182,1.040485100953499,-8.524580109635103,10.939661225448305,2.5145510454570745,100.02001126386598
4080,0.16850727387875564,-0.02160434360322124,1.0510168984302024,9.581569758709804,-3.880252022677885,4.28259182125671,99.99137393361087
4100,0.08963184015504386,-0.08541581450700098,1.1655067673564243,5.007367040459604,-3.122647785056485,-4.040430742414742,100.00813189677417
4120,0.11441531822894681,-0.06118223994096629,0.9628981000992481,30.184097731837255,-2.644645880210577,-1.1979400438983212,99.99720830657984
4140,0.03718903042915647,-0.0681704144964124,1.022992960007876,-13.21482227080153,4.980787065617629,-11.854340411989549,100.00360714561862
4160,0.0038015580513229806,0.027388177650662805,0.9733325178657398,33.85410290944157,-0.8795040088495332,15.355524407052208,99.99317679088307
4180,0.009003966297466214,-0.04704946349589587,0.9793955062203115,13.311933243820878,6.516647662918265,-9.578524432404867,99.99276808935079
4200,-0.12013621124296847,-0.0011192031955981295,0.9243785263157753,-17.145178227880457,-14.251752102129254,10.029772928353102,99.98308763548003
4220,-0.13746734791539586,-0.016957003164022873,0.8683408379457406,-3.3032180745856,13.849304125433802,0.9537393817721238,99.96150338817279
4240,-0.18024116165307755,0.033865085996490796,0.9444931245811222,6.286817051823899,-4.056646148750494,-11.542520627813811,100.00272617242223
4260,-0.14247548186811881,0.006221372160575297,0.8234800827848296,-10.745531730906222,-3.051987058701961,2.064076999987918,100.02128685771497
4280,-0.20901767977187846,0.01569711204329496,0.8037864533837168,1.3902259155901375,-2.589515564471798,2.4077774880150535,99.97874908208213
4300,-0.224514464085873,0.07185113628788631,0.7854529707986763,-10.640146995059917,-16.52695686816025,-3.965302786016723,99.95462816260938
4320,-0.31581500354361736,0.09842160960208945,0.9440300512092673,9.813945241145285,-16.759935267073423,5.401981153638411,99.99514251151912
4340,-0.16716043944423895,-0.008564203368624701,0.9590533863537742,9.359804896329026,0.924813322382225,10.104106342944565,100.01221076428233
4360,-0.17658369697610424,-0.04805423914777761,0.8674272021167817,-8.048152629068396,14.800735352406306,-23.106313059040453,100.01571488790283
4380,-0.003667723275210588,0.051122565516667696,0.9970618532782771,11.690509117502272,-2.1315378850155726,-14.19532594487324,99.98964950776309
4400,-0.04972388559926094,-0.010938774117373946,1.0123077334019839,-10.355917384451255,-2.1551660303794495,-11.57746608185442,99.98413295528783
4420,-0.07419417088415037,0.02854915599630949,1.058359448523635,8.05118608782882,-10.311076951052272,-5.596960527332254,100.02293933173183
4440,0.03282436978992364,0.08887637650139783,1.1196521117271527,-6.891867403179145,17.094879144728083,7.184545040978419,100.02452286485328
4460,0.042367003001666036,0.0962559112315991,1.0078944960641278,-6.524931550252516,-14.230014523606918,-5.322115098091369,100.03205977207728
4480,0.07291227626496638,-0.038345722040704716,1.033473757758839,-1.374781101624269,34.97348332319393,-4.298133232436811,99.98804081910836
4500,0.12683690652186508,0.031654869861946454,1.1568190562216905,0.7066885828557506,-1.2071303511894806,9.407157885549982,99.9899273382596
4520,0.24355762394177644,0.03229208461901911,1.2065173531183735,-17.330465617849235,-3.736807863095293,-20.192401376995367,99.9837509610532
4540,0.267287789134411,0.0954591021403459,1.160992259604884,-8.947400562056636,-2.0784959771363303,5.403456201821651,99.99993013451353
4560,0.26857082471886107,0.03816920122470965,1.1734925257257254,3.4811564827370978,7.417805073282311,4.336291557937585,99.9884589354259
4580,0.21140033970714614,0.01799590340035455,1.1444274827567285,-7.283966905967244,-3.093149975786126,14.202930485774754,100.0311118214829
4600,0.2267059990182759,-0.036111916032882795,1.1422818090003344,10.287568752636957,18.303675801415515,8.740422627678527,99.97899044181185
4620,0.08650706306295823,-0.01933257217136177,1.0952768868971159,-11.041209751446065,11.54020007996852,9.368140333975848,100.00627512901288
4640,0.204824855776512,0.0267714124639045,1.0690012209005504,5.505576736867493,-16.292443014602632,-6.254818959173302,100.00825078211359
4660,0.194054145875465,0.009758158259407963,1.011260428141229,-19.42232755321612,-8.667437929708417,-11.413498601514892,99.97139978011093
4680,0.14063709818465675,-0.01309455987512623,0.9749547334297919,-6.9894458339189764,5.4973748576300006,0.8590489208897023,99.99631270449369
4700,0.01972760011576397,0.0064051180545908444,1.0326674458709701,-8.163978557455659,3.663201799868099,-18.11223831405534,100.00883420245391
4720,-0.06204988751635857,-0.04205147249439944,0.9549122259230327,6.934553060709932,21.055187476814574,17.91328102097376,100.00884508345024
4740,-0.07555019889349393,-0.026844252202986738,0.855600087382491,1.9042734930619134,-2.4773770657593293,-14.35176116708487,99.98382988261804
4760,-0.08066439893689448,0.02149077072383329,0.8445245045419888,17.485083697592486,12.93934344317838,20.58255430573286,100.00840075804486
4780,-0.08684061012686597,-0.0442475087131273,0.8902368509114599,10.011251090479737,1.1003106883129192,0.8768315208089097,100.0141772638195
4800,-0.20725904283471872,-0.0052685126554194855,0.9157412633658588,7.842466183394434,-20.25791438208334,34.04742787048579,99.95743800181329
4820,-0.2600391509166967,0.02812403221789302,0.8331180368732929,-6.306466465521124,10.838962982390179,8.94803994978892,99.99138050641284
4840,-0.15194239322993564,-0.02275319323272088,0.9072395029351992,9.244437420905422,-12.699653034199216,-14.4110476405031,100.0127897945776
4860,-0.2090963426885537,-0.05545634466727182,0.8914693880537538,-17.317983748851173,-14.27392909695822,8.868873801118903,99.9808888646148
4880,-0.12453066276162336,0.018324402688334473,0.9147035228047792,28.07192649063417,-3.2228452206825464,0.07938534070740672,100.00632610369415
4900,-0.124546258375132,-0.01303649841633186,0.921276125186601,0.6111663920746631,17.117645936467543,-14.444600792846717,99.9560055846759
4920,-0.11180340572602884,-0.0259346580802486,0.9687044578988446,22.550968226714502,-3.9409955974360766,0.18212110605646442,100.00544690329423
4940,-0.11288014130646722,-0.03145434281992234,0.9624315420931365,-3.0713454864966767,-13.734463039987572,5.524024043947348,100.01901094274548
4960,-0.048234348963507825,-0.02962784398585959,1.1011805926948417,-20.2635102342761,1.8269817528168708,-11.480301183855335,99.9927811018513
4980,-0.0021124575894644754,0.0003707617796453295,1.0522752735456185,-10.442763097272701,21.809226333364364,-4.882041773723588,99.96450636324467
5000,-0.0200396010340965,0.08663755894427105,1.038558839088284,1.0559402036536112,5.5861892609786725,11.872197733385565,99.9989781231822
5020,0.09884814967477897,-0.03491569085747388,1.0051624831046737,-6.618930054358974,-19.735986851135834,-13.872315876381684,100.03260118098454
5040,0.10828763896406059,-0.03774286667352683,1.175251653914451,3.7634175487182437,-7.55053310636392,10.670202875817264,100.00245994371475
5060,0.14936748933069582,0.012724459014181427,1.1206900879956583,15.391113044054888,-2.7801431696550596,-8.385508906740954,99.96810838289743
5080,0.1797756476004162,-0.06629988325145879,1.1230639499449966,-6.683116691949928,-10.18359770542685,-3.174335348186346,99.98002853400297
5100,0.20024591974019756,0.008052739761120137,1.1368145445710758,-21.275261501192176,-19.076993722691014,-14.05422872898641,100.02728904136812
5120,0.1864702947962868,-0.0006250237042930595,1.1532223224666263,2.4295464951739247,-2.145126821709387,-5.496496011705105,100.05267045496494
5140,0.2654712918626183,0.032358259331641666,1.1028140590167506,16.023957077661866,-9.175555597389398,11.602371744411624,100.01259397563216
5160,0.24446563939063273,0.01529543862006287,1.15571922632536,-7.012900064070722,-2.3949831828691464,-13.052133876130274,100.00094088257892
5180,0.23193576731218268,0.05433105070894373,1.0904665968954563,8.525193644622256,-6.971546981098591,19.569270696673804,99.99205363975747
5200,0.2000672474830839,0.054007359516441845,1.171479615175127,0.17645521674689957,18.307644706619975,-4.191538433020559,99.96251207447088
5220,0.1847102440324859,-0.04403684021972662,0.9979784987215707,-26.474241669311937,11.610613716947062,-6.18993165409338,100.04180227545073
5240,0.0638612627566206,0.06638816251975097,0.969075342338688,0.8819834686440671,-6.3176821598167265,-6.297023513187506,100.00407579173404
5260,0.13793872731398815,0.011707876628456973,0.9501038306773315,-2.9643287861650114,7.670539511809624,-0.8635902518979286,100.00280099538475
5280,-0.09388740052890734,-0.004556328450362482,1.0792110299561353,-1.035692886668986,-3.59949327587937,9.980587092727028,100.04318791351682
5300,-0.025330747413339523,-0.009361801075916951,0.8808992044478446,-14.325322083005824,-3.883747136329299,3.818006662071559,100.0061719462653
5320,-0.107870361991827,0.02175996860366728,0.9388838910703147,-14.998130908512227,-1.8584456950265618,-6.413957327425883,99.95914889190344
5340,-0.18008969766275157,-0.042860970267226725,0.8366586216211193,-1.339949946597615,-28.620590606616325,-10.542526461603458,99.95086134582114
5360,-0.15673142709752425,0.08995599992264074,0.823523128857948,-7.864186278605203,-7.644989658637199,1.6035373458690154,100.0648696531105
5380,-0.21810272515994425,0.008898822333101755,0.8968636141857876,-11.234106028516734,9.375294581228076,-4.507864267348014,99.98335276132813
5400,-0.20610061929773746,0.06326000545632675,0.8548515894264668,6.3761646321566,6.563358691582535,1.023803727782862,99.99823974460764
5420,-0.15897179818046578,-0.037991976733615464,0.9597402526817358,-10.524298208212251,6.061752902195376,22.389450734942294,99.98195607804243
5440,-0.17863881971010767,-0.11012133702619882,0.894708375428242,1.5630775290925434,-11.281751756771481,-27.685547214311313,99.98890401232046
5460,-0.11109846435426661,0.008254646895460136,0.9001048308565758,9.39636449086226,-3.744013220594433,-4.284649918572966,99.96338721082877
5480,-0.08642306171317987,0.0035211912391826094,0.9459378569147707,8.271728023407086,-6.144600715936548,-3.69309476464364,100.01843592775037
5500,-0.12374434295731213,-0.04755023550168541,1.027157740684726,0.3104881352722876,-7.223223993845061,9.903773484228168,100.00415207502486
5520,-0.009988658720621046,0.053959253177591676,1.0720308596485402,4.045365664813609,-20.299384960824366,-8.717721070237317,99.98895862579883
5540,-0.13030173928648517,-0.023677358946170454,1.1080950457878738,3.968197292794879,5.137266062823082,-0.22366919128707446,99.9993921384193
5560,-0.06668820808809438,-0.05180673169776343,1.0487095981028915,-2.805115282349998,-13.460116593997464,-10.84577177897622,100.0112431578623
5580,0.10951579341933187,-0.10094365604115829,1.1686778810633163,-9.714154649222145,-2.762902356531266,0.46476157611999713,100.0045584844331
5600,0.13678907308036686,-0.05584899091056126,1.1882320915496951,-27.855848645851363,-5.894428182718421,3.256760029737901,100.00415199075466
5620,0.1684082795878993,-0.0683883558641361,1.1398439755488243,5.4690418021692935,6.853581159780578,-14.656677707183523,99.99731192607209
5640,0.24282509804775204,0.11404535322298522,1.2262168035673113,4.25572012973373,-7.1623862159050535,11.392180570088147,100.00873379013679
5660,0.2405194451474246,-0.0987944473256572,1.1727826467022018,-3.273765276962915,11.801936327398309,14.085465038667156,100.00991079375389
5680,0.15521748380747988,-0.06774910185557124,1.0210021419060211,-14.501314158502115,13.819130003272926,12.626489940403697,99.97341909987091
5700,0.18070483370498974,-0.0036222681418803943,1.163905909207846,-0.44280565917224984,-16.372893933684008,-21.418198707870793,100.01246041917794
5720,0.29160069066731,-0.005986411249620103,1.1309117807450944,1.1563100456813071,11.805691358110154,9.00428447857272,99.95739969376767
5740,0.21171382944028913,-0.003214236708289053,1.1476476350252263,17.22194899325358,-15.35732651926255,9.36132525546188,99.99643543695935
5760,0.14097993186497557,-0.04327041423235832,1.09214036032779,8.596191052125949,-2.413340188193634,-10.574759453877341,100.00244229507193
5780,0.058517029776573845,0.023164336400024237,1.0199554840694756,-20.275966058874776,-5.938721312327137,5.165744804104699,100.01354180001478
5800,0.05539228220420092,-0.07517176312387135,1.0068489034514452,-3.4169391544290098,14.864788777352384,14.496245154279894,99.99818667589138
5820,0.042000728800664196,-0.005129261788464876,0.9736219650885946,18.82294645656808,23.226053176111385,12.402864577718322,99.98737699085088
5840,0.06421995327195075,-0.10623189998558269,0.973557662701416,-13.131340598027512,31.73809757841903,10.122751934798725,100.00041345118113
5860,-0.07386492600425479,0.002083091601127683,0.9102539538630898,-1.7102116196143817,8.732578486549034,6.553303744783504,99.98691623814697
5880,-0.10844863964349295,0.009129953647685624,0.8843379243351611,-12.256218822512727,-7.0717590557232155,-1.9387954112721932,100.02035775229913
5900,-0.17971253036008222,-0.028332293732371058,0.8013370527222161,4.05660929240184,0.6671741275188428,-8.666490656125248,99.99345810805356
5920,-0.2003349134496974,-0.05477591927267167,0.8691968785586754,-5.173360859149099,19.556546256821846,-0.5483446829118035,100.01259343471712
5940,-0.15185382486702576,-0.04370128629964611,0.9215755386738865,-1.341034435478401,-2.9277916180734302,9.209896792904363,100.00105123591905
5960,-0.1764366933042733,0.025568329958206293,0.8712138095091928,-1.4644683795368025,-11.224167561487942,-7.306183122735414,100.01315486992134
5980,-0.20553420779672424,0.006334387942781374,0.9070274953554525,-5.307958639798379,1.6265798880682492,10.033431805757532,100.03021914423397
6000,-0.17011201728156158,0.0049277575664073495,0.8989242313529869,11.681009233610038,-13.987801258213148,-13.662516774571678,100.00310765620772
6020,-0.08157622769878588,-0.009227384468017418,0.8953368197288615,-6.1292360521393405,-3.153174980774184,-12.270569618719392,100.00691714291031
6040,-0.1293473662603687,-0.011037064576302255,0.9783130120297456,-12.061236846370857,-13.13009705449279,7.970317998094778,99.97744958829162
6060,-0.13220462313602407,0.08964829523444055,0.9755979806664686,-8.807858042999,-13.705452207040686,-11.910509013631318,100.02540118081666
6080,-0.11339156237388526,-0.0651302856807703,0.9994288307555412,-1.7003242177984923,-12.053810397529485,1.2963126514965828,99.98169444819486
6100,-0.053152491215223814,0.0002167821870839485,1.0696917921620828,10.640733855923802,0.6257786455406993,0.8256195984895466,99.99514416582724
6120,-0.003258766696673413,-0.04544947817157158,1.196344393582504,1.9830292954983149,-8.29136903188619,12.570252080812967,99.97281684262997
6140,0.11759841810817614,-0.06722751934808273,1.073968042493888,6.693909825071286,13.360875486773072,0.22271729455928255,100.01058379232173
6160,0.11733372773363789,-0.004924993386645159,1.1884621262169417,-20.656712137049848,-8.350499122385749,-9.886702026627297,99.98788958562169
6180,0.12383646463044251,0.027751993829277746,1.0948084962917923,0.3131922240549443,18.871257004037453,7.650555636433109,99.99531975815782
6200,0.23212651123372402,-0.013952881304738438,1.106205985252606,-5.425690858723609,2.9484389012438883,-2.6327418531266127,100.02916205650423
6220,0.1880808851980607,-0.03253546907860557,1.2031452523383743,-9.76281384874403,4.348502442193578,0.26756983385300936,100.0003469217097
6240,0.2380723324854084,0.02746415725290623,1.1007873331345304,6.256069315038665,-5.481933705986718,4.37895324678,99.9952151803637
6260,0.22847147769020276,0.00027798609031551443,1.0839801494950907,2.664510450823915,-12.746926500975366,-4.4586896690243485,99.99906180371858
6280,0.17306225072928172,-0.018297719689265312,1.2072114568595724,0.42072479783696015,-11.810971940590782,5.471352952707914,100.03691657599576
6300,0.16618910095806538,0.007810623135462708,1.070864664869884,-5.423435924985652,-6.461886852342477,11.496013421171023,99.99271154609353
6320,0.12579237869162663,-0.011036935100089426,1.089197210073109,-18.037819487875254,5.466428276366921,11.516918091968963,99.98051365209909
6340,0.14553564988465917,0.05257228382006734,0.9919341364031586,-13.985877344152847,13.30942205013546,5.10304408016429,99.98866098796591
6360,0.06973658786719394,-0.0090356801666688,1.0339300152736821,12.300060650205928,-0.5452086617101661,-30.582753521774208,100.02542095960752
6380,-0.06826105408670734,0.041994198811241806,0.9561684716459902,-4.422106066196028,4.325914458409142,5.457727845311537,99.99899304253866
6400,0.011406642890759676,0.00488098155319863,0.8625718008045392,2.7539052532126567,22.958411850982255,-11.509826833589416,99.99757995250046
6420,-0.04885756672829536,0.006163523085190602,0.9466970676224531,7.929618932087203,17.371870773783066,9.09981342350608,100.01644029212696
6440,-0.20904683165452353,0.07984048718649812,0.8575567959666679,1.1198627397566019,12.170174823866535,-17.425957201937027,99.97665846667951
6460,-0.1688018888233131,0.05465370449683813,0.8199965532902346,10.883434478719465,-10.556783385280976,-5.912246290274159,99.9684432877513
6480,-0.20651604303580634,0.033353416032112386,0.8290859998998203,-10.98850476058982,10.479904777243783,-9.237796318743449,99.98792403706577
6500,-0.2511644175811302,-0.024359490666297515,0.787541243365779,7.303246804252999,-6.381371212950388,8.049620534210737,100.01400053760445
6520,-0.060997559197989715,0.03330622631740038,0.8172863255233243,-16.168150975796273,-2.7609483151714884,31.383539534484953,100.03713552511094
6540,-0.170773688985074,0.07453190836319727,0.8191139545799957,0.9512589926656638,-5.861640017957861,-7.859130214257693,99.99348280382904
6560,-0.2265810412370472,0.022413136649351004,0.9153650506044433,-16.460886807243785,17.52804056633751,-5.926764659344253,99.96667052083114
6580,-0.1372555815740528,-0.051474564956905604,0.8988980962214065,7.7731624584506545,-1.7099743265239051,13.33680512209401,100.0060065246093
6600,-0.10752221497277786,-0.009995649515495997,1.0363799452170095,-9.298604976730065,22.50677611327128,-8.596010153184919,100.01632630769765
6620,-0.15212500786830468,-0.07083300149661688,1.0161709864850244,13.894457501967612,20.122748427073784,-1.3643076509876932,99.98990351010045
6640,-0.0986362671260186,0.017838642217631425,1.1740428300317518,4.440563154233063,-10.989348850023257,6.852825933274085,100.01418460733386
6660,0.011569943311512936,0.00237332673054019,1.097862691779345,4.9864243723337625,-2.2326965493477684,6.741041867430166,99.96591478074824
6680,-0.008635689769759713,-0.01644999796585347,1.0710013409603123,-10.406596563798637,0.7891746785096612,-13.714464432080948,99.98155534464776
6700,-0.009800470397074101,0.051379369412954096,1.1566511214991888,-12.144544918557596,-8.35766156363605,11.244338158282535,99.9904262898892
6720,0.15442445970474855,-0.013858411761964146,1.0417495390023288,-3.41906649763799,14.577037365951085,4.7129291394418145,100.0020267294428
6740,0.2299765849110452,0.007607304836090026,1.1132161368713482,8.499127953384825,24.826990469405395,-14.281851404697878,99.97425932341595
6760,0.22346939654590864,-0.0714238972938936,1.1560512197680608,2.6948408332916896,6.675157044401015,1.1759789904513447,100.00438938699706
6780,0.14708739282461386,0.13694680270748588,1.2124056996240158,-7.2154136634871975,-0.7116726332567426,-7.830708928482565,100.02369812112168
6800,0.11644294905425716,0.15539445158033116,1.0989707848997876,-6.116868057896207,-4.312223335639031,-11.227876796941588,100.00451471287145
6820,0.19291440260087953,-0.023540472100325456,1.1501102598984554,-14.469053516992828,3.974911144434543,4.081076324563485,99.9980451691937
6840,0.17323497315894495,0.06487832468204936,1.0582827839794577,-12.117728673952877,-6.752681142226344,-12.340585035895483,100.01804770581957
6860,0.2802956297998462,-0.0007748490788871603,1.0242908041030299,-10.199007477268125,6.559503661295139,10.525245001606876,99.98975662374248
6880,0.11748112390871186,0.04630019153769109,0.9664407465972505,5.359512916029892,-14.410537109727933,-5.654341115155319,99.98356233785837
6900,0.07375378890742113,-0.05642177489015328,1.041109429529645,6.099569327919436,7.097398508189002,5.791618329631217,99.98511089691827
6920,0.052776619243214716,-0.041921269480001994,0.9046449920865736,-8.595602606486734,-5.375204275071252,-4.435125560928453,99.95144956294432
6940,-0.03475142623086539,-0.041421828346758054,0.9764301221409946,-13.11111945056565,5.419320590324321,-6.6326510843002175,99.99017274646963
6960,-0.0315297321757223,0.04103228433744528,0.8449990977677544,12.547839641224156,-0.06111467681015908,-10.75455065078679,100.00506229846573
6980,-0.07733006685887447,0.032504134262908595,0.7851947552941048,-3.319643063767301,-28.780473138251374,-13.147581872822325,100.02685113143659
7000,-0.15465663281636843,0.03342481384527223,0.8000090038861567,0.9634935552994762,3.0014669309324202,-6.242314199290135,99.9946619817409
7020,-0.14593845560086172,0.038879664259804776,0.7915771068217065,24.205661863067142,-9.758029928206174,-0.44209066499811195,99.96829738903433
7040,-0.20901084109863188,0.021571306180122044,0.8161732225608344,4.475544525104877,-21.70217808390461,-12.075185506158967,100.01504172916633
7060,-0.19450520790002115,0.01339023674609606,0.7763478623053471,11.63564132812012,4.85013911130729,-13.129070698985622,100.01625766341925
7080,-0.21196099967122817,-0.03019021281419635,0.8722749097558142,0.7263416341857502,-19.06652766481163,-26.02915859959724,99.96973452576005
7100,-0.24600695042090115,0.038143847054047914,0.8752399451523232,7.424970799671216,7.272439943404439,16.121890492165136,99.99469797093812
7120,-0.1909535476746247,-0.05549020344883482,0.9505718129185896,-5.432588675600789,-12.497863657951246,-12.100821389927807,99.9961311199649
7140,-0.22183460782262707,0.021331186702978903,0.9425712525085241,-4.278672393391641,33.88317948365587,-7.290608497017974,100.00110676916924
7160,-0.13834860315871475,0.019161096531916985,0.9471073397386724,-20.02159606567195,-4.294929792155868,16.761728969206928,100.0117124845138
7180,-0.16388837784308447,0.003215402348471503,0.9806001633986218,11.698965342259065,-2.4293330531398594,13.186090974234338,99.98332260704325
7200,-0.12101063193420268,0.05333738459843529,1.0057182532606712,12.142977244855373,-3.951022883165421,13.711283586665008,100.01383768227083
7220,-0.04847604602381662,-0.03709588037023011,1.0402164050722402,-0.675122297373428,11.4083774747807,-1.3301590730450876,99.9810138235264
7240,-0.014215989028726103,0.023867145014508165,1.0802718210716762,-4.306633620726635,6.689838107107099,3.047053831831997,100.00963023690383
7260,0.06615444027355347,-0.04472725364520299,1.0860546148189145,-21.00643276610056,25.375110631468058,0.29940172216479155,99.95121790505812
7280,0.06352502248321674,0.035076581490452334,1.1129193320282493,15.417644831286282,12.347007010733863,9.47894253395118,100.00522315284353
7300,0.1883443018595016,0.0005811795267060276,1.1152259810177387,7.3648041950982925,9.840786216588771,-0.03209784876456404,99.99061967673487
7320,0.12884760881687432,-0.08800250254769816,1.1686927339618294,-17.11089255612529,4.6472513353783915,-9.920621684342013,100.03977328529241
7340,0.29330872221615223,-0.014089112529722001,1.097188264687125,12.079895086816656,-1.7264376321786856,8.639340025754843,100.01550877659407
7360,0.2593823221701449,0.030104299498516385,1.1773319564193763,6.555070777222987,9.597806193810342,4.375672135600423,99.98200853349253
7380,0.12956090572421441,-0.04418021245473145,1.1502810772850458,-0.5211975365606077,22.462516881070208,1.4022550679537256,99.98013844798537
7400,0.16177145792172565,-0.01633668161125431,1.0669118349532651,-10.599695058166661,34.906408861349675,11.984920093192933,99.99129055848763
7420,0.12950898414876605,-0.02329731834118172,1.0272256755938913,2.782088746912831,8.920300748485634,-18.128654077400842,100.02082651712648
7440,0.08198284801463859,0.006173225474061493,1.0565035833584633,11.866062292040224,-8.30482021801344,2.9449113358567782,99.98158465392656
7460,0.11445044373844254,0.017124793588590387,1.039709156868934,21.5582515805578,7.601052343939779,-1.9944518028471796,100.0062511226151
7480,0.07211726522600193,0.0022089388430324153,0.9905915499995964,-7.199936825935283,9.972260167651253,15.098562891139457,100.02178713297224
7500,0.0299872251547602,-0.0011796406610411478,0.8606644886933716,-17.78399914837115,15.054717029969222,-4.037539817909084,99.9957373013762
7520,-0.04249492194187917,0.03282997371495535,0.9242336720496317,24.624009179578323,16.91157158285911,-6.598919769223389,99.99213478323539
7540,-0.023264336009600026,-0.024575037063034273,0.8877127724883194,7.123164955480741,-12.339805360934765,-5.232023948162501,99.98372092642025
7560,-0.1379335802179784,-0.0907265865449128,0.799492472558687,1.2490410685820463,6.326349652515368,-13.30450206945058,99.99323501307525
7580,-0.14797354169582608,0.04851658338409379,0.7619824428648778,12.919556513670411,10.024787400083877,17.91473286093005,100.0197736065816
7600,-0.2613855355393098,-0.07072985864656393,0.7316455929443254,-13.276742645830856,-1.384486850144274,2.1028624470326482,100.01369771436639
7620,-0.15787925084586982,0.026945271625173423,0.8917407275653005,-8.003764504832661,-13.143405940243706,-6.167990890463511,99.98583524936734
7640,-0.22794464704327547,0.006296569390194701,0.8665621354545495,10.107969745218604,0.8543242138904135,-5.605749696177783,99.978020982217
7660,-0.13731720518094526,-0.059533389460095634,0.8577941459493054,8.016198986372238,-7.911702463851732,-1.69147917216879,99.99804444157131
7680,-0.16320095932931186,0.04533098416932893,0.9029877206318551,1.3949504325571886,-16.867584738208013,-3.001973774791522,99.9657255827281
7700,-0.1274095843191227,0.031939844947580016,1.004108353336834,3.26479605584826,12.677831793676994,-1.1176651975063103,99.99728135660827
7720,-0.1234921726117416,-0.05420119290070246,0.9012267158800342,11.475336602252082,-10.998929585155535,-5.007939784396749,100.01522170701206
7740,-0.07310955259311382,-0.029191662210341075,0.9552896002410671,-1.1085960873144929,8.740251109484449,-15.507807705545481,99.9978963711689
7760,-0.06335596430559486,0.049961137562690876,1.0995975152659228,17.147068880909444,15.58157181109795,-2.160219871177481,99.99120957628304
7780,-0.028250649015035982,-0.011479916955447596,1.1105720354036024,10.616105383928364,9.42540262901731,-5.388479523539536,100.01154837956989
7800,0.11251819498068719,-0.09344652932763514,1.082559657768808,7.817839982776158,7.0114288968789324,-9.728882824652935,99.99247422131546
7820,0.1440855881273536,-0.02630955779072505,1.2216473496290992,14.066568664088972,-0.5699387792337531,5.319644444426347,100.03795287178251
7840,0.15448441972097876,0.033958612280950116,1.1656387447983272,20.242416881871975,-1.3694149105120765,-19.464056276377054,99.9876817089217
7860,0.22012844634944423,0.008076156690685978,1.1627658445032822,-2.648202995595712,0.6538013954495158,-1.0739128726423808,100.01346295521707
7880,0.19163367815926866,0.10888565447770915,1.1032083395323,-20.554486670454796,-3.90935058022462,18.799826094625768,100.00443426587732
7900,0.1935678893184478,-0.06763108772251028,1.2429755973834564,-4.296334636470415,1.7963668206118484,15.415782651429618,99.96893695701586
7920,0.19708595387074684,0.027853216253284054,1.1006243363981354,20.484359886431008,-5.82731842739061,5.3176867809974375,100.01501162147372
7940,0.15337197569105557,-0.043170198522990505,1.0394922169884049,-14.13470974534308,-5.357755089087869,-9.748421013685828,100.04887842315419
7960,0.10419380129931956,-0.053951354133396884,1.0523195266125505,19.598378574486816,9.22837473130313,-16.41055129906588,100.00132783466572
7980,0.13079917550727072,0.043519673455526084,0.9682635112161888,12.127243517463278,-20.878219405742957,-0.08413514550010284,99.97787085686144
