timestamp_ms,acc_x,acc_y,acc_z,gyro_x,gyro_y,gyro_z,baro_m
0,0.020668606101168496,0.06141924478928715,1.0814420777928138,-7.949736954625623,5.012258700370169,-21.437966502845136,100.00243021358715
20,0.05063169427686541,0.010264102433496014,1.110564596810386,3.651464492568344,18.298366749774136,5.504685541025842,99.99140520787711
40,0.16279067083914156,0.07050666630210144,1.1224209114319694,-5.446099027767721,27.152224999104707,22.572366145732,99.96948365020316
60,0.18582330677894368,0.07684504959329871,1.1824942655497666,2.8489100505495633,-7.469928652383274,23.861472843726993,99.98507835845768
80,0.13771545312310796,0.0007256592346807445,1.1372160734484564,-29.97876166206403,9.1122105328851,-0.5491018549039562,99.9629899414698
100,0.09271939137835357,0.02311397266867593,1.1158057206380303,-15.789150773210386,-10.583193839290624,5.3683399766977615,100.01969146078815
120,0.14644980178502287,0.020119271289238645,1.1118390068566688,-0.5670409361410764,17.58683822079539,-2.455567770566433,100.00078745278773
140,0.2092917834938591,-0.054672071576314686,1.137719623680237,19.16696623310779,-1.3997564165664134,-10.256535241234415,99.98564321703665
160,0.12802795119000449,0.012326391342465486,1.0116201500083575,0.6372346417648048,-4.643160196838967,2.8408583987839315,99.97692485035512
180,0.2724877471695146,-0.015271212699131082,1.0977308577590161,-3.5941827360430842,-8.081792080857108,-1.1838042505830888,99.9888952039934
200,0.17276279540387265,-0.023469976905214317,1.1447327674514227,20.54920585498886,14.076280379983668,-5.67288501092901,100.01099977761837
220,0.13428589556548157,-3.592549505167383e-05,0.9918390108443954,-17.448093502451375,-37.25179568861397,1.2059914982152675,100.01388977885877
240,0.004427940996319379,0.022750977787335935,1.0637825643054242,-7.863465710307997,8.891310563345861,-15.67365289785931,99.99773246792171
260,0.02291085476028702,-0.021123860930154226,0.9747005483455087,18.373596859124614,2.7849870650890978,8.222813401008096,99.96228642682534
280,-0.01859210626870116,-0.07379556170964258,0.9196865854386216,1.827581425795556,25.519742079535092,-4.614830410707347,100.0428968781428
300,-0.07052645607281985,0.0881908901273819,0.8443414973181466,6.352285040248915,-3.394068590481166,-1.0036463580733408,99.9958150371237
320,-0.020610368748428004,0.04485573980687242,0.8497657139851958,21.11955920338526,2.249281876640392,-19.392177582602418,99.99144780782134
340,-0.17359006984229192,-0.08059788944306147,0.8557794872647193,-5.643587601686351,13.189612134584646,7.4969039940603,100.01326138515572
360,-0.2951674909832527,-0.052080560526605604,0.8228992864509612,4.407877216082529,0.24534781032795766,13.333148328346816,99.98721610815556
380,-0.28388495346388126,-0.01020355072585387,0.7642077415043287,-16.936156861902166,3.23399815212711,-10.821969553539686,100.0563230442404
400,-0.22809767178991786,-0.042862489918256946,0.9307911650555918,14.870540862171808,-4.68257397287233,-4.521050431061266,100.01426194955043
420,-0.26650911032039803,0.02794844909910566,1.007635905791015,0.7001850394173156,16.802996805725126,11.708198488147644,100.00802588285431
440,-0.23774396310051601,-0.08051842564331402,0.828601665269505,-6.939086393393037,18.504205283715294,-1.9473945014241663,100.00082627924296
460,-0.20143838084040966,0.03414848251677965,0.9788731897905404,-5.900616507828947,1.7460522525201516,-21.084257600337118,100.00509640735784
480,-0.13979216610865286,0.0022957703717487615,0.9934356956332989,-7.764968044408022,15.216991366799103,-13.246341719295316,100.03438879473559
500,-0.10329608090792747,-0.05910360058984883,0.9009497127412425,-0.23322181386461102,11.78167180124523,-7.761538911768611,99.97008356560498
520,-0.13833243657497252,-0.008009598638160987,1.0488221607412247,-26.78168255926969,11.197248110739055,0.35504791503956146,99.9911143228484
540,0.018432884579680377,-0.010232985451640399,1.0317999336441388,-7.542260937617693,2.3226784427193627,10.13942672394785,99.99451127875183
560,-0.014669928876800565,0.031117381277526713,1.060371436537715,-12.165196772114175,-5.704669301087804,-8.801811913553662,100.04554293844508
580,-0.018085966097882822,0.022389872122554024,1.2039872073818503,-4.134808937312131,14.241604533287274,-3.8529539305675358,99.99586866162551
600,0.16499484018096916,-0.010504260768114665,1.134267782216905,1.0168946013943683,-4.956460773419229,-12.531386208226301,99.96501013470214
620,0.03091399144202786,-0.039859282599897225,1.1344000137061059,-21.781330537863198,6.5421651605677695,8.470587258578703,99.99676055763331
640,0.20636380540258042,-0.0192052133246006,1.1440510370186603,-18.31104923225648,-0.7338467533212976,-5.038836510004124,99.9782113957618
660,0.13848777198889303,0.051588125992478466,1.126536024177731,1.880906984187901,-3.5092780015065257,-17.285075161406436,100.00582415731112
680,0.1406869812570233,-0.05469407591605418,1.148065497364819,-7.005624717583589,16.377416969106516,-8.078691743200626,100.00191467120774
700,0.22827011911285988,-0.07028909898266927,1.16729626084426,4.96655623371457,-27.2976620073601,9.348884424673631,100.02289795141706
720,0.20662514891001257,0.05901282926011551,1.1131500241311352,0.5714583330579505,1.3021536966135565,13.396768505286817,99.97385223610088
740,0.19067715654159872,0.004822876767341349,1.1701915790066881,-5.901163147950189,-2.0205210411971986,-5.272234235984248,100.00345477760654
760,0.12730244794298223,-0.0543322165840156,1.0601652060700388,19.3029388751303,-31.06208921812594,7.5813880335746475,99.99952313570772
780,0.08851897007810913,-0.013148394432071792,1.0308557333067538,19.515164178713462,1.1820310304357236,3.7227420982188395,100.026757079845
800,0.09075395159152644,0.03230331744890684,0.9763534366245523,-4.84563204078315,-25.563916901578462,-17.727820553500102,99.98595147633672
820,0.01407261467838545,0.06358979767827308,0.9330245503561003,-7.956765826058846,-25.065367487155736,-26.857461671231242,99.94551503095873
840,0.02060420775839173,-0.029406921627428147,0.9530351010836763,11.637191267138533,3.5393673368511838,8.643836253329292,99.99939793217449
860,-0.0727611350216673,0.009505547029623479,0.8358248179077493,-4.931580153457845,-12.310018746496478,4.63036877564879,100.01027696864911
880,-0.16462046410578607,0.047248034300110715,0.8200570061524655,5.087124546312851,8.490855395942003,34.70634483761064,100.00350093434203
900,-0.06530377068025874,0.00035148489615301106,0.8151479489739178,8.958169726553395,3.898544525124757,-15.4128361531694,100.02598755938546
920,-0.17404645395721838,-0.03437953994628706,0.8489230626455733,-3.0049499924254084,16.486562481890843,11.222026867954746,99.99353560800768
940,-0.2013709951656812,0.04907271455247756,0.8406680501485512,2.0864329685954295,-4.150273221506978,-23.281439816649556,100.01625791683459
960,-0.2140341093022676,-0.057171612255513794,0.8030010275885285,-12.054595157437879,9.588916803404851,-6.6395736913983345,99.97374962647474
980,-0.23328455912995477,0.03232622567628523,0.8593127149711468,1.6497515366794715,8.487324330945171,-11.57666772963237,99.97561792816327
1000,-0.18438539328547174,-0.012187686298121031,0.8793707231567885,7.988402517903869,-3.915198765599103,3.6964149412386083,99.98619292775926
1020,-0.07576447696017904,-0.019224850510732416,0.9099060636674486,5.836039507201388,0.6492708303189663,-1.258001717040895,100.00609041217874
1040,-0.1581034373670956,-0.016062434990130818,0.9563812345953383,2.5633329287768793,18.909058692092504,-11.63577801586875,99.97815551956367
1060,-0.04098618689176706,0.008668060424286769,1.0673408480992503,20.33912678715138,2.8971284166670683,8.829431105021452,100.03362315504526
1080,-0.11628040983817817,-0.04763156320741045,1.0889618382018136,-17.774656596441883,0.8754122396568855,4.220056782211764,100.00398820228682
1100,0.01816903158308749,0.014147419171399736,1.018701299527701,-6.388193789954546,-20.081986267611192,-10.644128646539347,99.98871352015367
1120,0.05959235869938603,-0.020349577664071385,1.026529812500632,1.7022621077815772,13.425932818433056,-11.39409126137238,100.02486411562654
1140,0.036572524776028376,-0.006294197363389271,1.0963855315514712,-10.432279741699105,28.097898575000556,-2.893237991287498,100.01841014230874
1160,0.07953206221771507,0.02548485407971018,1.1478611828881486,-9.868765979932714,-18.867236460065413,9.348833117103736,99.9708460393648
1180,0.09561922340701769,-0.01553651351439351,1.1203743529097672,10.702994624511417,4.213155564106092,-11.502479556855066,100.03824613485457
1200,0.1720401000029656,0.029102712898446133,1.223144723216074,0.6430694706689307,-1.6605188138662739,-14.785066032529649,100.0105081823896
1220,0.2088512299101036,-3.403540455398111e-05,1.1773965227538974,-14.071379649632856,0.5809509418381531,-3.124370432047505,99.98791264813174
1240,0.21666982447518962,0.10401343556163388,1.0943494486442882,7.905324740741992,-0.2729833217890371,-3.4693218159850407,99.97994952757932
1260,0.2251809983496019,0.08794574183486287,1.031633874978331,-3.2295681328075974,7.0699702423984965,6.20209495849554,99.98633023720093
1280,0.10416153923264847,-0.01809874775059916,1.099842850718422,-21.822830726040237,0.014728680155286665,-17.763048167059083,100.02869000213362
1300,0.12818058246592529,0.021678176143249614,1.0231355576191608,15.254821634309977,-14.48109532217952,-18.939334883350156,100.00261314144711
1320,0.23263246315490133,0.02680454819357326,1.0129256398060222,10.301816771592595,-2.5661378805080726,26.548131500389623,99.98454640875272
1340,0.15300746783258035,-0.05287154085490338,1.050039020949108,-0.8752298287853297,7.414468391257307,-33.799876744703596,99.99413973359658
1360,0.05156874526033284,0.012583751679153037,0.951084165997916,1.8083561545009326,-7.823999418582581,-14.030849897545306,99.99322035198583
1380,0.06940513589409747,-0.007363250734239381,0.9497653649530663,-10.532240220581773,-8.586995028357169,-13.977147346141653,99.99307441615669
1400,-0.02173353660185907,0.022752454528403788,0.945555425896812,-4.774485300225969,15.819567384686778,0.05813604241573965,100.00770895974115
1420,-0.09609101964486114,0.049216591092451634,0.9694563638500755,16.707809978357858,-20.04035486080659,-18.485880672047053,100.00441568151446
1440,-0.14647344718797733,-0.11367554243321293,0.8792723319442329,0.41452072906571147,-13.578302522216998,-8.896948335731725,100.00075602491843
1460,-0.1168664670899989,-0.029716920373914654,0.8639316042242389,8.310570932817809,-3.1455572338501954,-8.599108802911331,99.97901580431645
1480,-0.1059262793237099,-0.031065000460466487,0.8620208083634782,8.002302542359175,-9.620457078288135,-12.208968785480803,100.02067543081007
1500,-0.21320614408133848,-0.019460648258545647,0.7620693699625881,0.23825018302365122,-9.545175915419538,9.152235051654493,99.99998778647266
1520,-0.12337581121589183,0.02975210563376724,0.837495157386508,6.7802070526939495,-6.054198162209843,0.42830975638880914,100.02215370469754
1540,-0.15862338179939522,0.03331819586046802,0.9004228997632329,23.01669356951772,-12.675142233555801,4.374802084266879,99.97544533904123
1560,-0.1886906251353555,0.031516086947267145,0.9350529440116133,4.454434961704433,-3.9879295929834413,-8.29003981793534,99.99912726392873
1580,-0.11482985645552574,-0.038392285036860575,0.923972154305509,-11.288436365198393,2.9430706230465002,1.3020778972892113,100.00217850201147
1600,-0.15176159432194938,-0.023371950918936086,1.0786105743664907,5.531399014951656,5.538668584129076,-27.04902723389703,99.99184063771995
1620,-0.03159459950025849,0.07244867181646931,0.9030924248425188,-8.361988017347002,-4.8034660988111995,-3.5069921088062666,99.9926202893218
1640,-0.08622625349355696,-0.011985763697109237,0.9496874566737681,5.0100291120567615,-12.346715337813706,-14.861957269351283,100.02485873519572
1660,0.024091128533036785,0.005886251128873715,1.122841070242787,11.605780947054646,6.282378075050511,-8.51860243720661,99.98420632404996
1680,0.032370595963582625,-0.07270556326443522,1.0120117017995744,10.955572601026631,-5.94310068889259,12.451598815136183,100.01205856085822
1700,0.12644412225280316,-0.026122491863095367,1.0742656214562083,-6.075575536547277,18.669836559263082,-14.460263596608964,100.00386529093724
1720,0.09948540286422237,0.0006519181232163508,1.2136866593932303,17.259017469413415,-8.758959701650618,12.440054338459534,99.9925479953689
1740,0.05713127647318142,0.046865547345738015,1.1426748822765347,4.5867173355218,14.15551731737622,-30.642276227546304,100.00064397629598
1760,0.24222467244070367,0.04966951606277185,1.153100328485839,19.23696660483498,5.014127046988895,-21.423775693889986,100.00034290066735
1780,0.245513200223526,0.053426711572971367,1.2502543789477814,-0.21028537413483844,-10.421955792975531,6.079881255835286,99.98925410793112
1800,0.24951830361408092,0.022542202483784194,1.1410594088101413,-10.498490527021733,8.220369953115734,5.516919773455914,99.99973780421571
1820,0.2926584644176462,0.0263136325289033,1.1802377229538046,-4.435085040064867,3.9262183765909464,10.09932417305015,99.99929233588794
1840,0.18938841462703535,0.03501964388275595,1.1529140324633087,-3.9442445610173347,19.167258656817882,4.8055315604029545,99.99716420165922
1860,0.18480651142934246,-0.004283458585353082,1.0764416498963545,5.360155341360144,-1.7043933940149119,-22.35975390439433,99.99938683104727
1880,0.12559492370104552,-0.10095784110280091,1.117073191835557,2.8476640519312526,10.38208392763262,-30.03637354953809,99.98738155713909
1900,0.13897286736520664,-0.012454994691710812,1.1156543048003185,8.853283361213723,-3.9017885288714957,3.966020683808795,100.01842470700561
1920,0.138697589979215,-0.04037623274352502,0.9293582595110769,-5.993505285217438,-10.226904834989714,13.296350216973302,100.0111061904853
1940,0.04944129806199813,-0.007806978713545284,0.9217431465105865,0.3166804433033549,-15.989361917806136,-28.962060229017446,100.01269450396744
1960,-0.009843488766337127,-0.06027988047852052,0.9063647375557016,-11.780931354349457,16.43370328276926,-0.12584317406711332,100.03311507843354
1980,-0.15933137468550146,-0.06308084353141638,0.9801126195627328,18.547718963209505,1.9704971790891865,-19.089004217981348,100.03028961456205
2000,-0.1044222276421926,0.0628780083833922,0.8790791736006613,-14.177169524020812,-14.605366377090789,9.21743486537309,100.01701229265673
2020,-0.12132735013295434,-0.013464641868477357,0.8383216925054595,-13.355149236913107,18.604778620793446,-8.766504634904045,99.99767373653138
2040,-0.12526659555581782,0.04964300661016127,0.9033189379553294,8.002259218960218,-23.792417114202177,-8.933749814327523,100.05635240791148
2060,-0.2564473816620335,-0.08670872170423882,0.8787424924459184,-21.460932522684576,-15.071941498884303,16.646672690953867,99.98770874948747
2080,-0.20177408553266565,0.018361327946224148,0.7493782924902804,10.526572546025736,5.2661341091396565,-16.906595813637757,100.01500714455165
2100,-0.3063004067877694,-0.037131887532584486,0.9247318372557083,-6.114728749385518,-11.886942903477774,-25.07064202492619,99.98044392455452
2120,-0.1516576463754744,0.0726305156714414,0.880138348280265,12.529364266554278,13.64622844359948,-8.656534019957014,100.02008613270444
2140,-0.15352463742377018,0.05815929279066173,0.908304109267182,-0.4650386548581029,10.535841456501906,-25.27557908404767,99.98787703737871
2160,-0.10828021575115693,0.07176110884083216,0.9483838848582755,-8.862399418178212,16.615944680840123,5.712776433070158,100.00898228847689
2180,-0.026753409827485836,0.05604355926430454,1.006797571493178,13.576696605448117,-0.4900800665007883,12.909663834639831,100.00086812563033
2200,0.0012173520728836068,-0.04097249752466808,1.0133082536981741,-4.486611307335103,-1.9243571331177902,12.28740047480552,100.03339002129312
2220,0.01626774973216733,-0.009492572058706924,1.0558192573221714,4.140985421562072,4.691274296497757,-11.17861421997938,99.98812045919883
2240,0.04549783603574255,0.06871512585420002,1.1074469117851446,22.377112754123896,6.345810648063482,-10.868509299387524,100.00773898535958
2260,0.1614091812310171,-0.01599281789959014,1.2156037972933884,0.8872013263080585,-2.146453604985242,1.9454801644912982,100.02304347800529
2280,0.19592555241225362,-0.007647120655374694,1.1022880944974383,8.758383758791759,-1.5791559220814169,14.565434786606314,99.96421996483345
2300,0.31057796488553424,0.006511319349166267,1.0649521208585906,4.36033313707413,-11.846221573414184,-7.851481415166563,99.96613613652356
2320,0.2090820775250771,0.05305475348390061,1.1259539179126723,-11.413278503434277,16.16935771385221,7.975237864381711,99.97570948624227
2340,0.14890798372795244,-0.05151849916253409,1.0813687028009786,-12.330329087436578,-1.1297598789400456,-8.99734404601374,100.009726069148
2360,0.23235135937450313,0.021258572297441658,1.1611787879540374,-11.483433921566897,-2.97004689085178,25.41054303823924,100.02907857328914
2380,0.2101171391412652,0.010085553946793136,1.2029954606810809,-0.06550018319387788,-9.199608603585038,4.388013306320268,100.00162511555195
2400,0.27086238875875995,0.016096414188429838,1.0954717760253911,-10.319002576667632,3.2962606606111535,5.010052492184285,100.00436767405624
2420,0.07529191913235492,-0.045587320680672457,1.0054548017283982,7.79031008377874,6.001493503468945,9.461056751963802,100.00401298368391
2440,0.08038801497163744,0.032476113782302106,1.0173152357226936,4.239455567068585,-15.942339757667384,7.075335615919627,99.97372394953477
2460,0.09449447164544336,0.0238983385500497,0.945648365599332,22.012148757995384,-7.25285030862165,-10.813084913572713,100.01435167810658
2480,0.05564602238503289,-0.008711342595523258,0.984715317129636,1.8549009972477413,9.14358189286672,-0.3352259105646655,99.984768564354
2500,-0.009118687068923456,-0.05508054694705301,0.9379676443384632,3.4593757969631374,-1.689504228316652,-6.160360172361808,100.0334053934085
2520,-0.016465788755287265,0.060764778718608414,0.9326869147422677,-7.476866088212512,7.435208084952142,15.03131341329324,100.04924288519284
2540,-0.1671847551361214,0.017321423037199187,0.8751949511888213,-2.0827793045275076,25.176152315342605,13.806248479450515,99.96862255144055
2560,-0.1006108009066577,0.015112283133072897,0.7874941842843425,-18.138669591271025,-15.839846975157105,-21.8301933005081,99.9462560262426
2580,-0.18907690211056707,-0.029764848867638583,0.844924449296616,7.552708754290746,4.1228592592692355,0.9221882979849644,99.98600010427509
2600,-0.11915605703915061,0.020061122152747808,0.8562187457577792,16.191689496015684,4.454954987309989,-12.689415169639792,100.01700977595712
2620,-0.19325348039461318,-0.02084006812156566,0.7773463439546,-7.812210431461303,8.743517864068181,27.529473665696145,99.99980621794975
2640,-0.21903015576176776,-0.08562829011704953,0.8336665633339578,4.169866639179164,12.522233822737943,6.781214391438867,100.01749248733219
2660,-0.2631606558265561,-0.005867824254734024,1.056425415524298,-6.823555553303075,2.5444064889186873,16.46176242094878,100.01136668310778
2680,-0.16050979162876897,-0.0430485589164977,0.952018553132686,15.170449198647324,-16.49680594851452,28.981921412145958,99.98347525229782
2700,-0.16687671114123126,0.08764676613457997,0.9022888941922368,-15.636565310773344,0.1796011171378765,-4.589195689503183,99.9891963615887
2720,-0.1419479976460837,0.0821823121402893,0.9400261169088547,2.795376380423149,8.1162615741529,-30.307582298376506,99.97637793590596
2740,-0.10188279742569166,0.07945025513391187,1.0404001954205988,17.739865025949946,-5.929848643763768,-14.016800825932316,100.03269999698149
2760,0.05036685134298605,-0.00501247406521508,1.0247705789567298,0.09692872180786538,-13.474078825594116,19.369398778813714,100.0241493145987
2780,-0.03416072259474723,0.04091034439617088,1.030478833919332,20.070004556504955,-3.8915428968797015,-4.114160548132749,100.0267128739921
2800,0.07154816755294696,-0.002340318272398468,1.0788925464632089,-15.61133383734646,6.23542772509705,15.005010602876851,100.01634366191934
2820,0.1119012871893043,-0.02036916522832746,1.027575943736807,11.078320905324514,1.0508699170968616,11.513584082815678,100.01247521966874
2840,0.1413824797664598,-0.09522406459562545,1.0439769223406459,21.507318661301543,-1.7834638232887352,20.778484421442233,99.98762827366137
2860,0.17642964731791974,-0.020247001909951833,1.1054875555192962,9.81146715122592,0.6657515186440401,8.186088300232681,99.99666822841903
2880,0.14750783717013907,-0.00250146317274658,1.164896038046334,13.183318012897079,-2.0415980485160072,5.008753411190524,100.01517358515557
2900,0.209841072015419,0.03909226502230917,1.1344365218342756,6.187212555351042,5.734870137027365,-8.821663845719295,100.0319208940565
2920,0.25442092788920523,-0.07013923261546337,1.212725519148329,12.49493236499608,10.381066039145342,1.1308283224530151,99.99120823200126
2940,0.1247362296294604,-0.02564371222244176,1.1973735433880164,-28.46910052720566,6.588990488228429,-21.36191008671924,100.02632919369323
2960,0.1442561680311549,0.013233467055591287,1.0647353920681173,1.7624659185651619,4.377386978259263,9.423497133275898,99.98308266895565
2980,0.11181519375867521,-0.012497682165759279,0.9936011138799633,-0.52564655961829,11.995745310820823,29.50412696932046,100.00607813009597
3000,0.10741004637937214,0.027805889640932738,1.0370628561168311,16.035793103355047,-24.772962094217323,-8.216967663116701,99.99843272221362
3020,0.15448769767174447,-0.01930347651108333,0.9213628753111445,-14.239591389044396,-6.826706822932186,22.52111060083081,100.01762164676437
3040,0.09193839414469272,0.010399891193761772,0.9396768120682188,-2.4180259695650577,-9.401834052985595,5.308407982952144,100.00637276334719
3060,-0.0049140651930851195,-0.0201468236261472,0.9414622891461701,-8.234853583820199,-2.8462319870649258,2.751101753609074,100.00455731470457
3080,-0.05658449810225995,-0.07966165602770375,0.9577080260315436,-8.389774013892742,-6.706875084576399,8.327833417934622,100.00175766571304
3100,-0.11732474573053706,0.005108539732983293,0.9006320751787408,14.758898814019679,24.2188950665865,1.512672101223549,100.04293329208109
3120,-0.1698805778175143,0.011025788997156435,0.9026976467554111,1.599407916665979,-6.2710898638279025,-13.100052185631972,99.97914539312434
3140,-0.11077042483404034,0.034953419437897586,0.8571800469146077,-15.102257212538161,7.708790953716955,-0.12269089187732199,99.98718091444148
3160,-0.13783692490735222,0.07021242703739487,0.9447711628936297,5.6902081337146715,2.970879999005842,10.371262595161365,99.96168602699792
3180,-0.1575894345619066,-0.022860957985773502,0.8685269093367465,-12.404053423222987,-3.960711784199887,3.572284644672001,99.99985461520659
3200,-0.18666989623028257,-0.0530071504418749,0.8324797238385536,23.823714418006517,15.831946074853132,17.544370922653883,100.00531440138553
3220,-0.1451026999489343,-0.06206812890095642,0.8612071508163045,0.9349628497289612,12.176304967940386,4.270364641827811,100.01556117134731
3240,-0.18190522773253495,0.011732755887069167,0.8760918614416396,-12.37611063640689,-1.852117915520057,-8.172098435538093,99.99762114975238
3260,-0.09044360464805899,0.06743801012843724,0.8681988164633764,-20.143779312309906,2.444416660286233,4.83809379307538,99.99626008547028
3280,-0.031607947273194104,0.04361345008139173,0.9749684697667196,-1.6324730283014186,3.3285064628704033,-8.356501426873159,100.00221252460939
3300,-0.06711236627615269,-0.094312628942623,1.0755033489659183,-1.4756296390026309,-13.256136389769345,-11.983829249350112,99.99185248937616
3320,0.02047504426384457,-0.016443765831693585,1.049368352355378,-13.336687818323798,-0.5832546372744984,3.150520954483323,99.9889449632516
3340,-0.0021732180775082665,-0.009064629495069166,1.162421519582483,-3.7787317905837865,0.0178115119909302,13.582562563721556,99.9794725186905
3360,0.05093244875931041,-0.04865786204845346,1.0794445896112606,6.770517559585148,6.324759374652432,-13.29400701333015,100.00993136608564
3380,0.08581091983905172,0.03169339492068848,1.1893182357499124,11.740581330408915,-15.686146271538817,4.865729082485367,99.99180443170118
3400,0.10360450556802994,-0.0374468580316159,1.183752890304116,-7.614500932074171,-2.60471471885085,-2.1152516323495982,99.98340072826105
3420,0.14358173224430412,0.040886241051836504,1.1909501848032296,-13.10006188875203,12.081755051424508,1.4022168952131573,99.998045858776
3440,0.22443110956844392,-0.007965467875069717,1.1630552765397546,13.330755958158438,15.196154566777267,-6.82380971989092,99.9910560369694
3460,0.2286979935177996,-0.008504386976081546,1.1786273981649547,-18.311937407947696,-6.852982780876687,-16.92827129210206,100.02288609191419
3480,0.1945820919929584,0.09605333083052597,1.139309660584908,8.226964440154326,20.78534328293909,12.537889808752901,100.00144150319653
3500,0.19033963194936948,-0.037203242291432466,1.1680669852129228,-1.5226567583105504,14.798335819900139,14.80146814598277,99.97677095284432
3520,0.07609298181825058,-0.022950152389457034,1.0730323546437313,4.507878416314501,-17.82228802420707,-16.00619926671985,100.00277645554458
3540,0.07373058534522069,-0.03454032504838356,1.034513355594504,-9.131930051890812,-0.4819764882354258,9.2984456843628,99.9834589711554
3560,0.1361655263621178,0.14801175706344943,1.0416865691160468,-20.031933237088047,0.6751171482423536,-4.915723483732805,100.0415324828759
3580,0.09933211411161258,0.017871131246448593,0.9315069300790931,8.806594249732075,17.98668227731437,-10.683589840676007,100.0049840659175
3600,0.009599595118842598,0.055191622913727506,0.941347883870964,2.069657119373919,19.131542348910326,7.403121930956379,99.99045002531942
3620,-0.008680706319635035,0.031014399303370178,0.8877290038346154,10.742191521745463,8.84496986313399,4.379732775080983,100.00031853775387
3640,-0.04065428953556646,0.02483096424425192,0.7617898077473406,6.826625215621116,-7.260308289698845,-8.37090100731232,100.0021051972687
3660,-0.0798455918047015,0.06093193969107294,0.8557489763714508,4.811605074233957,10.692985868234098,-13.320379714749276,100.00659966403403
3680,-0.13935144277348974,-0.017628646847685357,0.7922254325190796,9.154568201356781,20.78665947288185,-0.45381090519156864,99.98532023626134
3700,-0.18307192477668563,-0.026182219551527088,0.8209334756493146,3.8600688502211415,21.583709131013602,4.760349691481953,100.01191459185758
3720,-0.20271985053594826,0.006236717566002538,0.9472351573613724,-2.3506442824248035,2.7046192361092873,3.9954132155614985,100.00133313049774
3740,-0.18749199480723758,-0.0023999282542941838,0.8834227644087146,-6.177123151490882,12.648947884870784,-2.7421203217624583,100.01197259721586
3760,-0.1757873468971093,0.005082364331950938,0.8037172487562081,18.481288797323415,16.47427945007633,-14.729395350709854,100.00079611203752
3780,-0.19257044271300025,0.019891241577213746,0.8871280557391805,-6.575695985860415,-3.9097955223893814,8.476627436826101,100.0231667949583
3800,-0.15366789222343813,-0.039458357229585184,1.0147726912814556,5.627478834149359,33.51073535292866,-7.447614051425294,99.97802750307886
3820,-0.14413610121329057,-0.0004455372064994379,0.911135201980036,-3.76954358223296,-0.6843431707368078,10.84296933397427,100.00636899515337
3840,-0.01539459059268905,-0.058882377846182714,0.9234942796577319,-18.489136444084803,-2.365268666816107,-14.625647170643703,100.00893413763743
3860,-0.006552724436013395,-0.07878035192906661,0.9885584569399285,-13.33408633510658,8.326944004438898,-0.6737086413916995,99.99216458744141
3880,-0.0438859751328247,0.08312718602872438,1.0244033290179582,-2.372048933758228,9.715134196525783,-15.996782756356449,100.00850853161435
3900,0.09373536423937917,0.047357039734438534,1.0084711566726994,-11.629349175292516,-6.716332819783441,19.566447839354893,100.012452746887
3920,0.06788571582873999,-0.026560080073497166,1.1603259900337857,10.361900649639589,-1.3736385006431868,-11.33654352690137,100.00268153135355
3940,0.06954850126501591,-0.07796527224326161,1.1544246201845696,4.514368106455381,8.493464177896765,-27.41290133278132,99.98267830885244
3960,0.09675475343284123,0.08505253668843549,1.210980165903293,-11.292523248325473,-31.17518777501455,-7.692582924093243,100.00360015955131
3980,0.1332506076363153,0.0733546794701737,1.1089334496554795,-6.8814849515944,34.83419770338209,3.549941542831127,100.02154542860038
4000,0.24728419674131197,0.07060934649019815,1.138948852968207,-14.326261503107741,6.598537903766511,-15.393819644138908,99.99995784037354
4019,0.21493546976808878,-0.07372049639433749,1.0702788951034468,18.00874271561801,-5.684475109152031,9.132163104788736,99.99653499604106
4040,0.25897449683097695,0.017738912509778836,1.1465152236031708,-1.8257339111660218,-14.760505731323743,2.994014469495669,99.98644069351708
4059,0.23947779387929885,0.03828407182208604,1.141893885888658,-19.153083031713535,-6.296640603197096,5.520135611358023,100.00201162281319
4080,0.13635045676108898,0.026486530141889633,1.0826156548322237,3.1473655442890447,-34.48117363928398,-11.557784935656045,100.01946718408612
4100,0.15789631279065175,-0.004630311533399131,1.0306849659995578,25.99399766545658,13.602645126846873,-20.10565195063341,100.00743567763686
4120,0.04504699258827469,0.07799577083648593,0.938295857044371,-2.613102285388381,6.929493749483049,2.3655553052361284,100.01665712987834
4140,0.08481507470772968,-0.02461274337299851,0.9103376235433571,-17.684787073134977,4.1828387949966315,12.878775503451006,100.00674125813536
4160,-0.05077341145479556,0.05501330351578894,0.9840888868458882,1.3488147838370672,8.412342648420518,-1.2188468695851111,100.01199257726934
4180,-0.052748562862405805,0.0549538856308797,0.8861041829976873,-6.589001710560124,-3.3128473494408013,12.420958777035374,99.99555016428535
4200,-0.10990204430075637,0.09130241005943728,0.8036064336009024,28.783924370071823,-2.8556422184295247,11.153959999625304,99.9690657577938
4220,-0.009694435733094878,0.01800812396833886,0.8699178446986662,-5.993241515627746,5.5067882475242484,14.021513428166987,99.98646955838659
4240,-0.15924384716589587,0.047958642776926186,0.847579366418453,9.635325843369774,31.11597940608592,9.801647666934823,100.00768209996339
4260,-0.21190076081365,-0.052900511151521515,0.7874927129798953,-5.5383552828547185,-2.628633243434752,12.31602234957759,99.99135563132779
4280,-0.14751649232104774,-0.001200263505486738,0.9014746366312241,27.102220308018396,24.509032132634545,2.3647473456298123,99.98755756747
4300,-0.22283807290992638,0.049715016159952496,0.8359938450172707,-7.110598718330149,0.2520950066901169,3.9886652002485885,100.00491550923054
4320,-0.18843276581734456,0.06540546892950551,0.9026362271782742,-15.965325767913178,-4.570640066197045,22.006389256905635,100.01651571389614
4340,-0.11284261793198935,-0.004908232475797136,0.8892332359593105,4.231497521206066,24.712516492854817,-11.501797792784378,99.98122451746053
4360,-0.19860438770516284,0.025843539814370122,0.8864360101828583,2.5517410199738704,-2.7694722787417843,-19.813285585629497,100.02752801216434
4380,-0.06407438430629273,-0.03609484735199351,0.8805371886016116,-23.518121509366104,-1.4295981552356236,12.727392050984069,100.01949415112576
4400,0.0014609594299187373,0.055005174669265904,1.0446231371488386,20.149391470360232,0.13991130452770834,14.51104809662609,100.0109347165583
4420,-0.0547924874529035,0.03700655458325227,1.0254989185932464,-27.950584074440236,-26.96959901726069,-10.233150884594233,99.98434728416596
4440,0.0183718803989303,0.0285076946615897,1.0330260544980892,-25.096125492708786,7.681750291687074,7.530065683483129,100.00249012013948
4460,0.03914245062076964,0.06993972925333138,1.074914609443635,9.764016003953955,12.934763558892739,-14.5925702353622,99.98959997995301
4480,0.10413828643201058,-0.020936376988067728,1.0842153970863766,5.392496177109378,4.107976997134598,10.100841155761607,99.98043700648894
4500,0.08795130845165049,-0.01972480822266715,1.1054627069558602,1.994818676699607,-15.171100775156685,-6.357636571443269,100.01348739599877
4520,0.14763225131356156,-0.0002934358853282366,1.1845258431396692,-7.403908753395922,-17.70171309420845,5.320981498045315,99.98284782107432
4540,0.2636121806383521,-0.06642981577993505,1.142571208618131,1.3892478246948678,17.073848902137595,17.46739239933909,99.93207466610035
4560,0.1423019511664672,0.028210683635162312,1.1133955608135104,-1.8334890021993262,3.0286362243334173,-5.6687259296577475,100.00412944280076
4580,0.23894851967727487,-0.01731504563382535,1.089922815764905,17.20967153134563,-4.438597888888806,19.406248639558953,99.99337473300503
4600,0.239528047653851,0.11455079338037494,1.1733428973138962,1.661182574464053,-12.085770095528954,17.627976072654263,99.98240392827758
4620,0.18150248980644035,0.007551554918857158,1.0168575024771522,6.5394756205675755,-15.44762967946072,-1.7912616103435341,99.97310104406404
4640,0.19907375528814603,-0.029291891223193894,1.0662591418291743,-12.049824648719149,3.142575163829065,-0.5619435943200507,100.02660293998437
4660,0.10714705547255551,0.009099104349133353,1.112837688196478,-20.959566549220952,7.631272690152404,13.113126454693962,100.02285119889304
4680,0.1549407375873977,0.04227459210690693,0.9478986432103613,-14.239399202011498,22.300860036898342,-4.2387294586003,100.01850144449712
4700,0.037902058072491904,0.06618363432761461,0.9169778755988608,-11.317272871704548,-5.614861298133779,7.132858087932879,99.98836205160413
4720,0.048368440906697986,-0.031845406259955356,0.950728347535795,17.23339085895391,-26.129698527474453,-0.3012118777975759,99.9846032918667
4740,-0.03793028555459025,0.008517496459650218,0.8328033219163641,-2.1702425527959486,-5.659249963678735,-15.496982474971738,99.98116760075021
4760,-0.15635942349934562,-0.0014967665368976657,0.8178437305173702,-11.272281424135393,-31.982582629953107,-3.489268187482571,100.01203834034015
4780,-0.011743262596451087,-0.11030192834662121,0.8676896366099921,-18.20141662969602,-1.0351225793220489,-5.770653524718083,99.9769327779465
4800,-0.06305233826619028,0.005242850302635268,0.8783484196742243,10.58098324375635,-7.642172339436312,32.430637454837616,100.00299123675632
4820,-0.1514619276532791,-0.004588565589768208,0.8632409992176306,11.399228493618407,-13.012104903671185,-15.620292191403045,100.02082225548425
4840,-0.12846586534446308,-0.002543102991463273,0.8202153654092088,-2.534021909165692,-8.827165960432009,20.710223837159177,99.98603326781267
4860,-0.287811733503111,-0.05380591576842101,0.8341569156335644,0.45097050332331534,8.586328188936506,4.727495268552012,100.04292095596223
4880,-0.19113443052386,0.011417850097559117,0.8139991710524853,-19.90210735249309,11.06356184537221,9.228922848810605,100.00716529289112
4900,-0.16040505447527903,0.07845709732682377,0.9127169842838948,12.531812379589997,-0.35891218964315674,4.145896918222451,99.97039306192178
4920,-0.15545443865350703,-0.016341822034263976,0.9529702338259209,0.395471382483573,25.99316480931993,10.71820939550727,99.98026869315912
4940,-0.17494795744790204,0.003209651339674795,1.01452109876995,-3.1609578768144146,-10.601426221211806,-20.817160565210976,100.00029062103769
4960,-0.05630063158597719,-0.002702554711243793,0.9521959405086322,-9.843111720410628,-12.332556187904252,-4.019936343733647,99.99886878113024
4980,-0.004493760935102446,-0.014806492270940413,1.036625172781565,-17.256241703779946,-27.25511058336827,-11.941967305588895,100.02236854703969
5000,0.06498331342975878,-0.006232494459203659,1.0297780935744032,9.418018764984952,-0.3897973165503294,-2.972225216918905,99.99517889629344
5020,0.038161763548836616,0.0054712337370027096,1.1089510293961145,-10.665045861579054,-0.8615504532844491,2.3378000823370937,100.00750162257306
5040,0.12296908195119782,-0.058930431359376784,1.1644178330140051,14.020267621326434,-0.562658119804157,15.470011566026482,100.00729070206046
5060,0.09129001100937778,-0.020024484606205394,1.0880523669846531,1.6912502405882304,1.6840072724522233,5.4769980737930375,100.02802411328219
5080,0.16472899067879052,0.03486487298769492,1.1398261689625822,-7.661987737010558,14.036903626559727,4.5296146909600346,100.00341068778376
5100,0.20969774355607948,-0.03906888004593565,1.2244702042114144,1.4619425412353584,30.888975737952734,29.053870513221497,99.97037971318392
5120,0.24490728345735938,-0.06752791605405792,1.1048583558039553,32.81500394569376,0.8267951181634972,-3.604077632913876,99.97534745866504
5140,0.20602410998835752,-0.05249310950450562,1.0739426664314702,-1.7038099816738017,-14.43539771241062,-13.358920525680109,100.00187496791423
5160,0.2821845909022383,-0.04133757758249551,1.094912043386589,-10.257716933000436,13.579905653127035,-9.096775781460968,100.0350604776852
5180,0.21087683789496958,-0.05009227409055675,1.1095302590314564,5.099719467386749,22.198504768963147,-28.93695312648484,100.0273057291094
5200,0.1600011577262941,-0.04786057685378244,1.0649253329978647,-11.158290123274645,-21.462140174075557,-10.763494929368438,100.03566149509041
5220,0.13280376210435793,0.003438031766648841,0.9628366268648783,9.406030437651811,-0.41315125406152386,7.925308080347083,99.99548015912012
5240,0.07743332170778963,0.07354095918554057,0.9630191140326542,-9.909985871094076,10.969437112743995,3.9759505519674345,99.97883799241747
5260,0.05768929285761892,-0.05078595080427295,0.9779925042903582,-6.2441117860592765,-17.29761316978656,21.852476629598264,99.99310250075139
5280,0.12308361034993393,0.0193272719486125,0.9506435083847876,-7.140804280284233,4.5392901312975065,6.409051988648933,100.03889310065487
5300,-0.0543378107393873,0.03511823287477878,0.8221388440843694,5.663730596340749,-12.889471079660058,-15.744450520970357,100.01989649696768
5320,-0.14246674002720772,0.03892015709247862,0.8758227253408399,0.8296663939642793,5.136608320313928,-19.854053963390726,100.01735416204578
5340,-0.1389631289924809,0.016628780987307117,0.8087815959247893,8.68673102594317,-14.28068867722434,-15.714937330622446,99.99044797964808
5360,-0.15730539385707004,0.011300932134362843,0.7717662215781753,5.010684909583058,14.995439075774048,9.726529418185757,100.01743777468224
5380,-0.20771632835182816,-0.03376847118616745,0.7452524009196938,16.94133188966999,0.8028647406154066,-0.7237313734294357,99.9899082929957
5400,-0.2506373385173542,0.026465563217050722,0.8156586166140399,-6.049391361590153,-4.5510788980334755,9.101712815160392,100.00397547180903
5420,-0.1824218439266703,0.0022612074180418415,0.8044022068487373,2.5389345567141635,9.722523058222778,9.074949099068306,100.00268139649336
5440,-0.20784011540760347,-0.06443390360772183,0.7961460125642423,-9.252410971944242,8.101650611030912,13.032124690104602,100.001577733621
5460,-0.14355446398344018,-0.012729821291218149,0.9564414838818118,0.7273395587049671,11.054772951739702,-9.682775798522625,100.02323931271563
5480,-0.1690510749428709,-0.015520088988270965,0.9004123608634591,3.8953838659325712,16.762841134010806,13.673052385746763,99.97874717155261
5500,-0.14877635301135436,0.0016757149449362332,1.002080749710411,-15.638747803252972,-4.214314853844744,2.6615935865789098,99.9947284460223
5520,-0.08647086879076431,-0.032536550382583726,1.036493259573787,3.9125788291877432,-8.562989996369273,-16.35065276796459,100.0080316717109
5540,-0.09173513352404777,0.006822582150934666,1.0714717993636764,12.662855660563302,-10.365239274943677,-20.287242084582573,100.0086395087738
5560,-0.052165053721982976,0.13759247639529504,1.0579182678738888,-0.3792213801952554,5.428399785780524,2.5876910825371193,100.01544225224566
5580,0.05334164915126839,-0.0036666723965741114,1.0999251721409193,-15.351582589894681,-15.965399635344777,-9.148743002160312,99.98466950323652
5600,0.08471653248846313,0.046352620452417254,1.1431083766542591,17.634041796166738,-9.828497558659606,10.108888030848275,99.97896837270686
5620,0.1530846658670037,-0.02359173174008953,1.0576099118672657,6.6847626842758805,-1.1022696836468953,7.432496881676329,99.98810671571484
5640,0.20296076084580247,0.010043123440025711,1.1674432611516086,13.999771420545402,12.070944681391316,-7.305549366549549,99.997592238464
5660,0.17755762790797006,-0.006309337333089478,1.0876419188205966,-8.870988823326012,-29.77348639729528,-18.37585931826024,99.97736381305162
5680,0.18383985561492477,0.09111919053456909,1.0999444020195968,-10.178703867548538,5.07427519425324,7.129552559620659,100.01074132197472
5700,0.2149549797636774,0.009503316730006692,1.1117347911255826,16.584396970235204,-22.542754169450447,14.162342198994722,99.98481720866205
5720,0.1555964496275642,-0.01490033683312899,1.1160209132845007,6.646201414169305,-8.29446715280904,16.83753679251978,99.9820556076723
5740,0.11773219380762923,0.039570770878395556,1.000960924016635,-8.837038635075967,14.885610508078074,-19.93420301754425,100.00473476733654
5760,0.1763241415056248,0.007519299944206447,1.0754142231080397,-16.68890698776532,14.57776605383959,7.18667477530148,100.00672402107496
5780,0.0726277367827701,-0.018855476755441483,0.9526500559298512,-6.197969778656412,0.2096628881031934,8.971453758614077,100.01716982127694
5800,0.018717694406755615,0.012482956481969048,0.8406906441340813,12.414194802998093,5.6135116856896,-50.62970289697921,100.00591173679045
5820,0.0802402103704064,0.062483813448330275,0.9797138666341509,-9.037743751432838,-7.64473135784405,-0.3376805501153206,100.02271667698007
5840,0.019844948329075476,-0.03740481608018473,0.9766157192396214,-3.0659829695679006,-4.963827857408818,-5.856570280960202,99.99660721771143
5860,-0.06405115062466675,-0.11736117616557229,0.9475511042653224,5.572967002747483,-22.11250823588512,3.672138781435188,100.00037200267782
5880,-0.09918391557201732,0.036432345845542904,0.9030343087118953,-2.1539570024032617,10.411303592422392,-13.791189901853084,99.99807189944478
5900,-0.12464769303791415,0.011637210991612914,0.8002351621909319,5.233805084352978,10.202753022436955,-6.473017545983261,99.98566319999046
5920,-0.09003212728596369,0.15234837312589627,0.8601286366729222,-7.384223500113567,-4.003317783876257,-6.169774664627876,99.98073886034291
5940,-0.2276908795386733,-0.05867425985857843,0.8318203422550737,15.329707369106028,-8.588186033159069,9.141594885219975,100.00032593845411
5960,-0.19844448933018233,0.005276577739675339,0.8917835973489697,12.31424558591321,10.210061112633834,-20.007498689204002,100.00056947090357
5980,-0.11877663348815455,0.017489402763636683,0.8184249716436075,2.956416327353697,-8.617784077891178,7.423760510661635,100.00448250202457
6000,-0.22100049779093062,-0.02560650784795498,0.8819254344540108,-2.671905495462778,-26.612650766565096,13.923217296373213,99.98464192051227
6020,-0.23428179229211932,-0.03531091469850819,0.9822490631593686,-3.459685035168177,4.0316880696843675,7.788701219074939,100.02548361802765
6040,-0.1725942794242804,-0.012091187663712762,0.9610120990713746,2.4661980939153314,14.788555709542223,-0.7458721525850289,99.98874763671093
6060,-0.14008354220493915,0.034777909790468374,0.9842658491864568,-12.78796942265652,-2.099770873325421,21.41966226671029,100.00320037982797
6080,-0.08590451789424013,0.05894884924350721,1.0470961419461382,1.0217746919642927,-20.646107862777225,-0.609026185199649,99.98419329547544
6100,0.059552877614510544,0.028361539311546682,1.0837407479273906,10.720846340991928,-9.71024694017755,5.816734196357382,100.0411325363971
6120,-0.05617855945249568,-0.07180265996136649,1.038095036960807,0.031813362701209554,3.226834751622092,-7.6823273299249095,99.98114084189763
6140,0.026526722989005443,-0.05588814099185564,1.1820281161908472,-16.19186893418903,0.08945102406767752,0.02090827455946664,99.97730102376424
6160,0.06396887773726731,-0.02463450031368429,1.0676409254549282,-9.829647905966173,3.032419016224518,-6.262350388158795,100.01923020753809
6180,0.1832939579949713,-0.09474253619892332,1.1459208245292836,-6.65983986807511,-13.478987748207327,8.347044538866584,99.97485724692437
6200,0.151256377322429,-0.02467210536700446,1.0752318326718016,-17.85126089365256,-1.4256442826433129,3.3984216792792745,99.99254958568099
6220,0.16181650496845082,0.03242409265168363,1.0805505930858812,-3.9822866407227506,-24.98095121583465,-21.432636405757652,99.95975243595204
6240,0.23553228675017274,-0.0062466876515632624,1.0869943146163519,9.987862799172785,-2.470063717775937,12.636671078682863,100.0051711718151
6260,0.21254554385078842,-0.028214257109231384,1.093502395647489,-15.0530900437623,-16.947808310016303,6.8006430137329605,100.01066796497395
6280,0.1043264410243583,-0.020858991886675858,1.090252866366905,-7.414451061029453,-0.2791525843725096,-0.5934863452211833,100.000236845453
6300,0.2036911532856686,0.00928333965897236,1.04062320931257,-12.527820869744613,-4.698880496363371,-13.968431997064563,100.04626053121092
6320,0.06709713681949825,0.03568970128669207,1.0318734918021721,4.955475841473834,10.417971257628853,-25.155371526329134,100.05109047034682
6340,0.12528445295169782,0.05655015351619389,1.0242232392522386,0.31134959398817286,5.478941599768751,19.229014076260363,99.99570147795583
6360,0.04695914116251346,0.048944391137328666,0.9811800596919322,2.581284975809152,8.896213509255757,12.534952870415424,99.98556942655682
6380,-0.01823815650700413,0.02595956980261732,0.9522540343813134,-5.91708520189233,2.281520334333411,4.184665648352475,99.99552159250715
6400,-0.010126947608106777,0.09160926069326732,0.9064062807132651,-0.6415212877408352,9.061084179981545,3.239849791500194,100.00867467515319
6420,-0.02420220420905174,0.06106896297371398,0.9203596103330021,19.806128578674794,-15.282791997363551,16.448913953406468,100.03512657664186
6440,-0.06353152682667838,0.06382496821739246,0.7850595307825724,3.778522083930202,-12.816217326941489,-6.999358083871672,100.01065077905282
6460,-0.1250134007078255,0.03638205831091056,0.8895370330252221,-8.632880317764752,-10.265826346998416,11.849520060658168,99.95810883960682
6480,-0.05202099389287629,-0.01456947170360999,0.8396913781784404,-25.877970482817346,-4.6047009053740435,16.037256512123648,100.00403935673219
6500,-0.2757754519342922,-0.00695913501197485,0.8725673407836922,-13.410868150159661,-0.8069553292860208,1.9310757844875122,99.98959012927496
6520,-0.22552210906430759,0.03956650250573136,0.8804960299706296,-6.528028255598715,7.130322714507871,-2.581269715549045,99.97758122945899
6540,-0.13501343229026097,0.036570997356615835,0.8975505516585923,4.349790557841361,-12.879549952832217,-9.356979647900355,99.9801482971582
6560,-0.2263862037760457,-0.057205719848030294,0.8181449163725781,-25.322460664135967,-9.275528016691021,19.101349679298547,100.01059333298507
6580,-0.20974598622354795,0.019699730205356678,1.0276405872431993,9.699041176920522,-1.2336743509555748,0.27907933317392686,99.98840725254274
6600,-0.14977944980585584,-0.02002106171119205,1.0024859995399524,-21.37968252288005,-20.337773255409108,-3.7663835252218245,100.00127910980173
6620,-0.17020788608258852,0.003973018885693936,1.0096853787551419,-12.24649164381334,8.698337211489154,8.162011698714075,99.99166286617506
6640,-0.059806153479810054,-0.013231843055009988,1.02133056810094,-0.7029471084836887,22.694090627302135,25.64152601134196,100.02224023958523
6660,-7.830962976253762e-05,-0.10299471882646297,1.1246686694989578,-10.462595183302376,1.1449851391674004,-7.103359261298814,99.98557782486817
6680,-0.010364162257580498,-0.03953055589225595,1.1462305629488432,10.123343370607907,-9.656621370893031,-10.338095655196105,99.97725366282367
6700,0.1450175105135596,-0.009062680783340502,1.0819442747417671,-20.400685903450487,-3.738992467724353,8.42974478179097,99.94672776712846
6720,0.09534274812348804,0.029888009482683126,1.072543529285298,12.233766184407441,-22.391376612165264,-1.3651052425424495,99.99069962431628
6740,0.21962336296386592,-0.019552658251610348,1.1459552694986974,1.2216065875549367,-4.972435295034853,16.89343631666363,100.02274677106757
6760,0.213766984903323,-0.01730080892811525,1.0879977968838106,29.268032051233533,-1.0460224572212797,8.953446999353465,100.00059213798313
6780,0.15876285551397126,0.08181336373182448,1.1803787053279085,-1.8580872874800356,0.8456586746152095,-0.6049850758668689,99.99331794008317
6800,0.1503018262847363,-0.11535687353735474,1.2077288666188433,18.015493445170605,9.57199961618955,12.899420336825933,99.98774773252048
6820,0.2273720945525987,-0.005864145219716017,1.130269033364339,16.441476787564795,3.7509334037833932,16.946785976274512,99.98511967888619
6840,0.2212622553717068,-0.013180675257321884,1.115970987038223,4.010727867072249,-7.726343736325751,-1.9554305461779724,100.02720695908262
6860,0.12331133974378455,-0.0191487735277581,1.0762753049336442,-24.281123477771967,14.082968810777857,-6.518049477016901,99.98837306687227
6880,0.24925332375553555,-0.012280486949550702,0.9913522144231601,9.384050536826358,-22.409203065214584,4.882437263014358,100.00105021587741
6900,0.046338744060174575,-0.006780646154106779,0.9951846413347304,12.501151197794602,-7.9231639344297395,-6.927663711036307,99.98313100757382
6920,0.06543496822164852,-0.04119205701268655,1.0312536211285606,-18.561146644003294,9.120266095225572,-11.360357950486478,100.0123550744532
6940,-0.01267838631508861,0.053771973435958936,0.8735846778339246,14.520354634373286,-12.700621232448274,14.864023216436024,100.00662191580946
6960,-0.04533136613065861,0.046698117250334126,0.8969188998466325,-4.119539316662024,-2.549217089781009,-12.169075097666202,99.98878434389489
6980,-0.11974422690953133,0.016483118904565337,0.9452937774963978,18.357524968670415,-11.805167526304956,14.552885552265344,99.98407773491408
7000,0.002799880331919871,0.000676406249625438,0.7863919819715497,-11.942393269887303,-21.875220335367253,-5.6335463354929,99.9894921559374
7020,-0.11884040859324121,0.11446494711357934,0.8970074496968397,-25.173741242125182,5.90029058505345,-6.253398131472945,100.01696982268143
7040,-0.18823443578303337,-0.012456233450852412,0.7961672277309374,10.698162024607399,-11.579900800116498,12.227475770563794,100.00382111089436
7060,-0.22123141658329065,-0.08013612031875587,0.8586930434174935,-5.873624810562015,12.87940398077047,-3.672789082397606,99.99441339814153
7080,-0.2527421799326318,-0.01779539021491213,0.793720643962879,-7.2549717437989365,-7.743687817406906,10.810111184943235,99.98939961829981
7100,-0.2133959723348177,-0.010367978473264351,0.8770428417862369,-19.547990308398045,-15.449291429969556,11.36216229413,99.97703691312485
7120,-0.2582523308232598,0.03856555462231093,0.979375923121836,-19.872745348683406,-18.894504609960336,-4.918030772924809,99.97866502276163
7140,-0.15466444900823026,-0.005773027139871065,0.9934467150298121,23.93309820780788,-24.572859476322485,4.995343404297168,99.9958130832058
7160,-0.17824331479129263,0.030665395291966376,1.0035375340582886,-1.568750346261656,-2.6685571270488495,-7.375683474687925,99.96600749328478
7180,-0.03979935717417557,-0.05847977426717507,1.0247708482553708,12.042748633334107,16.54474742931575,-3.5421801164015827,99.98074427171072
7200,-0.10942850429980668,0.01810255689789497,1.0112226087942102,14.82199159693657,16.542939993518523,-1.2618502702466259,99.97745062986321
7220,-0.004371326536968515,-0.03998503470352586,1.1079031970278546,11.800398625486224,5.4187721956234585,-0.4276675948685938,99.98585594415528
7240,0.03358551655687009,0.030911341222240565,1.1201749529348934,15.234896977897634,23.763331995387073,4.554632513179327,99.99795079770175
7260,0.06037268506866028,-0.012105775809201455,1.0305735513270986,13.613526165749823,18.514149776870912,-0.5363563190518534,99.99551297644973
7280,0.09157829853000486,-0.02878906139184887,1.1362896284715016,7.383999183643814,-1.3891260927365554,21.183851201890825,100.01428731368509
7300,0.10686916366538043,-0.028537630338300087,1.148322401015268,15.382076926769905,-17.818902430809025,-2.9783777062526045,100.02245880294785
7320,0.19841468327755454,0.012442050426926216,1.131317943479084,-20.39541742560349,-0.9570783104793333,-2.323779734300104,100.01928014926429
7340,0.22425658133989995,-0.020104861071768447,1.1922769043810024,7.183203098343208,8.120159807942514,10.322191788139415,99.98370894032807
7360,0.19816954960343053,0.05413397109886869,1.0744293645283822,-13.82445615103613,17.29159848172919,3.003130615374994,99.99749630819286
7380,0.20179373553294036,-0.03614464052152845,1.1482981055109074,20.834780206762268,19.11549867056473,6.169127383471178,100.02069870073511
7400,0.15337782946769657,0.032127014267090255,1.085854283095248,0.233162677268775,12.598069990768337,-10.902931937555334,99.99677311631402
7420,0.11065847631406961,-0.03793065672807841,1.0975771647259949,-13.357025707668516,-13.01314877863761,7.382830662530256,100.02798817280498
7440,0.16876101929951165,-0.09777338232215654,0.9734874215040543,18.507751426158347,18.03737526685729,-24.402765260439878,99.97393345715201
7460,0.14441542809227853,-0.049159046945813994,0.9622729246768214,-1.6471697329184023,-5.636605296998336,7.190147687393809,100.03369006689067
7480,0.06510553269023238,0.03551779845817341,1.0392213510165558,-10.719506824280156,-0.2676555236456129,-2.306547036899063,99.99786135171031
7500,0.011106722415181423,-0.021075243460077723,0.9991383048086514,18.19323402801953,-8.374585480287795,7.2097289419106065,99.96927304134407
7520,-0.02380131416618057,-0.0012572353190803414,1.031607621277485,12.998484330689276,2.019202531429125,-12.879939838324454,99.98316676833748
7540,-0.096632232278194,0.04385985948064475,0.8909257781294844,-3.233114690151225,1.730117016645706,-10.22577503655473,99.97894376812536
7560,-0.036682999401253094,0.0070483774617923906,0.8358068598371964,-5.5087356561022,1.2698024819405618,-17.669774290913335,99.99698965382599
7580,-0.0919304193798784,-0.027971123365964357,0.8507457613486457,18.491626263765934,2.707113932177608,-22.360350295581732,100.01867846908517
7600,-0.2538305398637995,0.11434218462739676,0.7871566913117248,-6.2153000742174225,5.687578755532354,2.591802947070051,99.99999284110075
7620,-0.08086347719498757,0.06572870017745516,0.9439058629303512,18.374650859893357,0.11936392076637085,-8.506052656928663,99.99521944827309
7640,-0.2435245714183031,-0.12428660104135841,0.8730364440601263,-22.04379510374593,9.233055356330176,2.989231970945389,100.01076456617393
7660,-0.13950729311199023,0.009758287696133176,0.8986926518343884,-20.76124586965667,-7.917366531215478,5.667310558392204,99.96602121192574
7680,-0.26500607703893575,0.08963726930009797,0.9673817817642149,1.7116018449567862,-2.9811600762096675,-2.249404678500712,100.01054026938296
7700,-0.16234282973455896,-0.04272244237731772,0.912925365816025,8.954435938098491,-5.213113838270956,-2.7003863438312514,100.00794114108467
7720,-0.1193019642187435,0.09799659831535573,1.0084685626667798,4.689089597091798,-3.90559935888127,-17.424756352690125,100.00664009281331
7740,-0.04036239918628442,-0.04627972609973063,0.9785898039005135,-8.09196353856969,8.061832902903182,-31.4949376173275,99.97775190617479
7760,-0.023991941536207755,-0.09079305083770889,1.0113967368969445,-7.175229250998397,4.292540780643416,5.91444057336785,100.02623247605382
7780,-0.029624347524695144,-0.08941267507362267,0.9567834806630555,-2.564617999008151,-4.363984557237819,-1.4202782447598294,100.06001297700324
7800,0.05160132584619348,0.05216310554944825,1.098812287109626,-3.261217659127067,0.6562331208054549,0.06695352073922238,100.01856087007414
7820,0.1278335893048379,-0.021818716384523734,1.1651938126988104,3.0242420919222104,7.871346976344212,14.04648112827674,99.97866766585412
7840,0.14823957869831322,-0.052454604768576135,1.175874531482179,-4.245518510280311,4.165376691448249,27.471615516571426,99.98827356429317
7860,0.2112754455667744,0.004778636869767465,1.0920202688025007,14.952785320798071,-0.4865623180064246,0.6830658505929766,99.97969491311984
7880,0.126621700345725,0.03596985074594196,1.170877922594293,-12.719238322638876,-2.3218888476803237,-11.26976845763215,99.98186949454804
7900,0.15309590452784605,-0.004789622821090676,1.0642183916572936,0.7826660831381624,17.053622173923724,0.2583669069612728,100.01321310787466
7920,0.24322989742603549,-0.05659087679917625,1.1958951518036678,-0.6344265840984408,1.1623454974758676,23.24040748375177,100.03918101276436
7940,0.21838092277900523,-0.08566439048684997,1.0862930816936176,5.3329618708768205,-12.568902729240124,-5.949408894117726,99.95803006191225
7960,0.18712853842324056,0.01595655720782268,1.0485043077748248,17.490252403654313,-4.978790081073495,14.04591181895846,99.99493906870977
7980,0.22776919998958292,0.020023880106002014,1.0892452048488175,-9.77731584969889,5.257625431606722,2.174080978987764,99.97614476472336
