timestamp_ms,acc_x,acc_y,acc_z,gyro_x,gyro_y,gyro_z,baro_m
0,0.002417422033994697,0.08850744592597154,1.0785050171604946,-20.38440207062908,6.455964067823172,-2.707367869092404,99.94692833687492
20,0.014985101477045414,0.07842101117410966,1.1414378391862703,-13.082507318908286,6.646951702574334,-18.013853412125773,99.95347147335082
40,0.07315509888509508,0.0013298295430270977,1.0773370383758771,5.345511925905057,16.137806342090755,-13.483719186455733,100.02580589983926
60,0.16816275890071963,-0.08679230260338279,1.1098906745857826,2.5459217712940525,-3.0190235288416156,-19.184086184287928,99.99681150205473
80,0.14067695060876517,-0.030967380687310805,1.1448926182493986,2.253136920581205,-20.395908657034322,2.453788343559891,99.9897886368341
100,0.17400457922992857,-0.051834025445293266,1.1173503870792976,20.049178529339226,9.221007702691878,10.973019244230516,100.04181519379273
120,0.16956445174253526,0.0358756495254903,1.0943546042579768,20.31251557657527,-4.4788525400185435,20.453815002963943,100.00918534148524
140,0.2540946822967502,-0.13768854159307983,1.0758286227746205,5.219607590155009,-29.08997879749642,-3.973348436191783,100.01005248603788
160,0.13355139939756971,0.029402046706739116,1.0946598452629928,-12.073262100038814,-6.740329507557526,1.7510575965604174,99.98630344264438
180,0.18092120338820356,0.03233968356794086,1.148959489413919,-8.742861969311377,-10.362731552376909,1.4247031132511263,100.00658965841134
200,0.15298180201737813,-0.006230051249120281,1.0038378850331322,5.718274027016644,-23.14736015826643,5.204768407195994,99.97024392325969
220,0.17166106545880083,-0.10069396129785935,1.0100190204763912,10.686926693885766,-9.570630870944548,10.19771069594673,100.02192952953669
240,0.20843171328441742,-0.021018531578013405,1.0389685761310574,20.39354224867802,-0.29799227716064475,0.04249180244973278,99.986966038525
260,0.051147241030566566,0.047365070175556086,0.9623778153882576,-8.074581606507701,-6.602924750707414,5.54400421026615,99.98425152962301
280,0.036891937776721034,0.04194576040644225,0.8701510868313613,-14.807847048568133,4.182598965125248,9.607284875939582,100.01017103824907
300,-0.03594691522753038,0.03882373071444583,0.8467871853295061,11.27164482446871,-11.834484148780799,-17.388012797219012,99.99003685658894
320,0.032026844495410475,0.04119412114013563,0.8879813240233057,18.61254669048108,-19.630377349823263,-6.821638702660842,100.01465323436757
340,-0.14141324566850386,0.08571598530718655,0.9552255051513532,-3.630698975263702,1.517809516188484,-0.18690050805189004,99.9797638067542
360,-0.20338633813925147,-0.08448344986669125,0.8741229064917037,-13.037204547000066,0.3988325815491546,-16.855044878415608,100.00236798734916
380,-0.13766193153185038,0.0014314815149849116,0.852964332772563,-8.24001999767384,-20.825442261911277,-10.26832107697827,100.01256850214502
400,-0.0797729652715699,0.035665930237993644,0.8719362099395558,-4.954445094946347,-3.377374538149757,1.7922807551223077,100.02293971675415
420,-0.15203213814819577,-0.05550206631970807,0.9421782885487608,-0.29551394331533654,-12.595340362287013,12.375359972676035,100.00387029397179
440,-0.1993555668292102,-0.005889381985266504,0.8566274222533926,3.2965752495341647,8.018764569051498,13.878090664795552,100.03080183130571
460,-0.14270820810965112,-0.01620139334253625,0.8841132463765127,5.558970921492591,-6.499004686969576,17.786271094180293,99.98497218774442
480,-0.19532532157496016,0.04689424294360858,0.9550734021569185,11.619429019900911,12.836983574964764,-13.34378437220071,99.9958403336897
500,-0.05363593689371955,-0.09649199615463033,1.0723315101882653,6.560070136370063,12.352856564060467,9.141817737966917,99.99734442391353
520,-0.14073391449702308,-0.0011890060452779813,0.9449912454542642,-19.229978474001427,-7.786825707824201,-6.497680778350167,99.96804725570182
540,-0.04431145884148023,0.004963084919663418,1.1747600347523957,5.91552328401179,7.742940951158193,4.819708696722432,99.98157151763635
560,-0.0004319195248168317,-0.03384956232572005,1.0603324372131941,-8.837412949570908,11.249841000596604,-9.184129382412154,99.97947768759501
580,0.06637462967506474,0.0289624391475802,1.0582825692748303,-4.863108869492453,10.961704785344272,2.2015106642222158,100.01457787052811
600,0.04075020339576764,0.06731587961590321,1.1048904467491927,-3.8665880324702266,-9.27947095676513,-5.31905515766051,99.98106404012496
620,0.19900463123982287,0.12273089078344478,1.0849035685332429,-2.1091789485171133,-0.5703908131270083,1.8244235549734662,99.98629251960934
640,0.07059738747461587,0.053665597278543434,1.17748821193369,-5.142716116442214,-0.6907331182068908,7.951045481819633,99.97695721350858
660,0.10639318936527138,-0.026313522321966765,1.1387950112928433,8.214325351290512,5.25832852839577,-3.0906433464141685,99.99393340528476
680,0.2496010125296993,-0.020144645463083418,1.121595010063077,21.107206802074202,4.324140236325785,6.480111336699023,99.97790507324001
700,0.26021491227377375,-0.040313504005666634,1.1748897250509898,9.560044277207888,3.3321458823872043,-18.569032419677434,99.99673570681465
720,0.22453026770120002,0.039537955878938776,1.0162890112576468,17.986479631726507,-7.921917298949783,4.90673259602285,99.99307692913884
740,0.1969992145624792,0.07830162236973352,1.022141134014823,3.40875952980555,-6.764996432231159,13.013832449978008,100.00106605640211
760,0.07756395294202836,0.0057672736881958205,1.0702922690403642,-0.28262288984859096,-27.552532442292872,14.470252615180163,100.01951095604751
780,0.1155375546279296,0.04980568524003747,0.9776444450205318,-1.373775961324307,10.309197265613392,1.0364087647137983,100.00916238804493
800,0.09110227346038621,-0.047482413534974094,0.9220856189776546,-4.05650008925571,-4.619764064206021,-6.190646841084122,100.00241480979011
820,-0.011717655199927304,-0.026269812545143725,0.8886696714227788,8.964765575221453,4.762161944748908,-2.1073932778487308,100.02116984814413
840,0.012239770190605953,-0.04240782563062609,0.8971262302138763,-16.485982766137685,-8.804954883126905,-11.506098726111546,100.03492577106262
860,-0.14850480643302869,-0.00803683305868672,0.8248868125486921,-1.958527439279803,-3.0592110707512132,-21.281007801419655,100.03137978952111
880,-0.1452782108834591,0.04805800768693194,0.9202475032282693,14.393625212070333,-24.48628697488502,-12.18288235405264,100.019100525192
900,-0.12602592391024464,0.004489954059522454,0.7235243513457866,-8.904809358081,21.942707307853972,-7.911144037335779,100.00848517449236
920,-0.05451539738426055,-0.08703094763632348,0.9029684929164954,4.043800159151781,11.076752217500403,6.4603404274580765,99.97310633351202
940,-0.17018506149191281,0.02539113335445183,0.812631380032759,23.797832369769605,10.898858367983252,16.862572154836702,100.04123366696669
960,-0.24702945414467134,0.045583752328787336,0.8179933215023079,13.07760011562953,16.90284412733504,-16.12959353700667,100.00799637276806
980,-0.2105743597354886,0.03188738974667643,0.9934004745170357,5.466697327978305,-6.377701421623106,-1.3628664841256843,99.98787509001525
1000,-0.21481175400027794,-0.052792085823054336,0.9776308193978879,7.790729482664798,-5.169986095518639,-3.0471746863508615,99.99113424550532
1020,-0.14561533309014188,-0.038704499917275426,0.9540875726051952,-27.589172779658032,-0.9197415722333797,31.607506906587535,100.02191752380057
1040,-0.12509985379956326,-0.05347447399306409,1.0278031034867445,-21.0085756689806,3.2443535829496923,-11.757386407460062,99.95561576034417
1060,-0.10403527028569778,0.06267448571617604,1.0434203096427783,4.192236936911661,7.965449343512778,-15.109865510429769,99.99898141573047
1080,-0.08064472930926793,0.0633017036115312,0.9698625553540522,-1.5897066856850843,5.4146519428688284,17.375103735510873,100.01585882907982
1100,-0.02994234224080605,0.06667980282747378,1.1046409069904233,-6.793343621409621,0.3792757986933445,16.618699512234244,100.02737022039659
1120,-0.07155779418932327,0.010574810198209869,1.112361241812198,6.971561721018446,-13.1564304252523,21.025945469260588,99.99554655353606
1140,0.001660205643547144,-0.0038325697302832363,1.1233111861659109,2.382458405741934,19.071267971600307,12.008652240239954,100.02043776846433
1160,0.021414709167536503,-0.031994717523634406,1.083471800925894,18.325321913477566,3.644797520807951,-34.33745030171053,99.96756192166522
1180,0.09560234577230595,-0.018750576474810605,1.210558072293158,20.350895449791178,2.7764149729189045,1.6404869412701184,99.994913842751
1200,0.18168861358014174,0.01975976892799115,1.1470569514048392,-13.092373436024538,-20.25413987639282,-3.6511444788935665,100.02665727275357
1220,0.17650646938416775,0.08146054510664705,1.1859488512146779,17.83503662608757,5.8755274143934395,6.906880234864071,99.95738586381492
1240,0.19559966176126264,-0.031106682417492978,1.0943024403840413,3.785901462511214,6.442727153992703,4.541704608321245,100.03219525082598
1260,0.17168600375772572,-0.02270295490613094,1.1364341152484088,-29.362748222507967,-4.5618957059742895,-7.735749463042234,99.9945943745254
1280,0.20118402735628785,-0.013949366743396958,1.1025424885179675,8.761560262103531,13.31341874338699,2.22863846266028,99.99323784441503
1300,0.1819733830286077,0.06294784945243552,1.0734293216448358,-20.460938185540613,0.15833433857469092,-12.96666147543186,100.00648369203908
1320,0.09091724451682831,-0.05367596269412046,1.0216385802461918,-0.015698548834868858,22.763824417851435,-30.019562819792775,99.98979008704293
1340,0.10609343607336272,-0.02062948181925435,1.009093364704209,1.762562047948836,8.129537706086648,21.100443066643482,99.98387836106832
1360,0.0701430476085561,0.015925494480330687,1.0406351913940088,-3.764885060521173,-6.9025676800980085,-0.327295681443479,100.0225275331929
1380,0.04165538453250007,-0.014902988747448099,1.0339165423431262,-5.903063862765388,4.058149123003045,5.563756494549859,100.01852601751744
1400,0.015366979169861648,0.08536411403027999,0.8080150934032411,22.142252945799548,1.4682780508656517,-11.360287655177707,100.02773907893047
1420,-0.0014066150474507655,0.025264818675026102,0.791692556836567,-6.681148600514969,-1.6438143937534926,9.543526190442577,99.97602319142453
1440,-0.1357032858424204,2.9659368168987866e-06,0.8835712374604887,-9.44764023883077,-30.08787048368477,-6.9773479939238445,99.99685874310926
1460,-0.12253516015540486,0.06770438900642126,0.9040572781972535,-0.7150262427804454,-16.54028933896906,1.402693279914923,99.97505429838768
1480,-0.2013256393242009,-0.07452318501587009,0.8536550220500111,28.99978060390545,-9.35820580409183,7.276709248645521,99.98994021618869
1500,-0.22204792027303344,0.024079340190670873,0.8509028127559414,1.0327339485997173,6.743689982503097,6.278273937316693,100.0444371806107
1520,-0.19706455579672777,0.03248253355325903,0.8660191255216402,-28.95268893506819,-9.466542573724766,11.743522024587115,99.99284556978886
1540,-0.16365406449927303,0.09102621965175038,0.8639193365131099,12.038078880030898,-10.773947568580317,-1.74441879855339,99.99808035570538
1560,-0.2094519494216795,0.04453393214900839,0.9310696427486134,-14.866557849411244,-5.30010233543263,6.857022129495388,100.01573356548889
1580,-0.1413407192830959,-0.02028350840521446,0.8381036302008608,5.156396905323369,-2.659754776644219,7.5785332150335325,99.98905322669015
1600,-0.15044284948882544,-0.015576131203458063,0.963994464219317,-11.93252132831292,11.193489938182315,11.107588705452262,100.0429303473852
1620,-0.04355335131089443,-0.039276952273491095,0.8851567513212112,2.8975520997633573,-6.5539453305217314,-4.5596230116554555,99.98608496087074
1640,-0.09520131485832381,-0.04380130586585676,1.0570569915860906,-13.82089337306537,2.8386410736458325,-2.002749002497015,99.98498000014041
1660,0.0025916473841050332,-0.01744177841459055,1.0833317064074022,23.167188367248798,18.540443606692794,1.458813336923753,99.98798344870082
1680,0.030723217378665485,0.12039243579246171,1.02643144900887,7.62616557684524,-11.212152997404516,-4.8056664394706035,100.02145471830438
1700,0.13192270534583567,0.021593484454222628,1.2164292603416038,-3.4111814537941,15.588437558970604,-18.88351305958474,100.0363074061098
1720,0.1569120523345567,-0.010451096133223555,1.1076012700023528,8.735216384270286,16.688676514317496,16.131269625695445,100.00345289261023
1740,0.06255394762875491,0.016725177398900733,1.199407581109447,2.5867883447894706,-1.1355610092905242,-4.632036058154515,99.98196296392668
1760,0.3198829485008088,-0.0019034862464913267,1.2701489281264142,0.25672119885303396,-9.386348966153527,11.056091167090177,100.02195720194817
1780,0.17763884599437577,0.02999026313838687,1.1050580994569421,11.940197695340538,11.50404219604014,9.820383085400827,100.00218375234378
1800,0.20359062500046884,-0.03331356089116391,1.1912257830828576,11.479691947023436,14.122482696971598,-2.969234482408356,100.02114393664453
1820,0.1831661401595068,0.018953812576925966,1.0868645428985588,-17.894625442660086,-1.017829918997594,5.360378699835673,100.03341232603142
1840,0.15932078758185667,0.015577377537267817,1.1814091494709333,9.589656700925188,-28.201359617208283,3.3079462649754507,100.00185942895773
1860,0.17585045559027668,0.11431995686966563,1.1049797931604264,-0.8397815407974214,-26.183172515088472,-10.834658370975779,100.00892940075744
1880,0.09279678872825961,-0.016294114985444186,0.9696064046754322,-5.103777215825796,16.167474817189337,3.821241819334552,100.00372963412083
1900,0.03887336941980629,-0.013745252078934678,1.0173778756568257,1.7834615295920115,17.548156658365205,-11.714416388778204,99.98355513254211
1920,-0.03409978755974115,-0.03527670412995021,0.883446486175854,-17.418083482075332,0.8166321366297651,4.2770454265250395,99.99019028809568
1940,-0.0755471930528145,-0.0019780443202821844,0.9189670941206379,-8.309260238184969,0.8558356026310161,26.4945033663163,100.01391371794689
1960,-0.01656469612595937,0.03076407020248035,0.8848101136562141,-13.508291796725832,19.038311239965427,12.748293112414444,100.00695302318206
1980,-0.14674439079895607,0.03253918574624779,0.8319848860037464,8.94450743498678,-6.486022290844755,-3.876448177891815,99.99018045704186
2000,-0.19640533536726518,0.04714990218779566,0.9266676699435534,9.626718597960734,15.671571646102906,-21.825170617188775,100.0155284162462
2020,-0.13798446486062696,-0.025959641286617083,0.7990773924776635,15.118897737709755,-10.789301526905266,-18.289425846202732,99.98978623257574
2040,-0.19653657246101883,0.021892196687840315,0.8507202043025102,-2.254300897453126,12.357366114253235,3.528779463146255,100.03605371441574
2060,-0.2331157490273659,0.037294528618606666,0.9279163622047495,-17.95409856517631,-2.812089574803381,16.350907101221292,100.02356680774005
2080,-0.17554302711519437,0.05328098037422298,0.8184773456431362,-5.371668425565527,6.715145994589994,-0.7206702137118003,99.99309326501137
2100,-0.13551171143926966,-0.020188820553802823,0.8883169727655876,6.224809206417689,16.8353084353644,13.543171017418162,99.97597857045994
2120,-0.14848873808816843,0.033755597587623885,1.00023303800383,18.2935724043367,1.578309689864012,-17.92988390914298,99.97797346263516
2140,-0.13209824851781296,-0.05153776591140922,0.9015260719460103,7.1069840291387205,-10.627782895739806,-3.2943289553068325,99.99255566360944
2160,-0.09906101469280677,-0.03505091918915999,0.9621436129230274,26.909482030205574,-2.9784470755195405,1.5463207747973866,100.01065097518628
2180,-0.07256703541763582,0.05398035904478082,0.9628507773162311,-8.053076473341527,14.446993827811177,20.93806868275471,99.98562624094247
2200,-0.034329206983646623,-0.07560987748953969,1.0844975594657618,-4.092752984286873,-14.17767890939813,3.0798518807845072,99.98616434727283
2220,-0.09853883205387057,0.05864082551985744,1.0060958837271448,1.4590867754977013,20.297786704113225,7.999715391023308,100.00788134984006
2240,0.09187177815992989,-0.06434335071899713,1.0702786045776662,13.337446091010765,-8.4212844007205,12.902990170762525,100.05090237419395
2260,0.12609459883496757,-0.04312719278679964,1.1058722127237597,19.614672832222155,1.9795081966686308,19.76866683132741,100.0028536689271
2280,0.12083368263226296,0.07094403687711957,1.2429312470054188,-4.865976988845619,17.187415805990806,-6.571324869388945,99.99151355448683
2300,0.20289407501380802,-0.010906979133047213,1.11531959325043,5.721375235898266,11.652824133264161,14.00221127175232,100.00083698302299
2320,0.17848696107355735,-0.013513064289958632,1.1648272939111586,-1.7103425606080087,-1.171362584783419,23.80720478385719,100.00708722411328
2340,0.23097036835019208,0.017110576065201204,1.181306083896883,12.918222705307514,-13.281208764045992,11.173441617807079,99.99083698133359
2360,0.21099611560857215,0.06282695359089824,1.0809266899573875,-10.432284577376752,-25.403831661930496,3.2315309628351336,100.02039064622394
2380,0.18593510049736256,-0.012147510350704082,1.0931150817264517,-6.952174365406362,-10.374779107894247,-4.4639657409470725,100.0009096804732
2400,0.1552552540246625,-0.0152465764836913,1.1628551124943527,-8.136341608900509,42.850096502816704,7.0144111116301096,99.96979037526467
2420,0.1917607452812427,0.0020536898517218446,1.0298458600038256,-13.344851067586667,-10.93643371028254,-5.419157880768462,100.01943902297414
2440,0.1878899872024412,0.05299132073217275,1.0258874676811662,-11.647467834464692,7.544849320683282,-5.998496363105265,100.0237215631185
2460,0.09458516405071626,0.05644986610151808,0.9107738821829535,-0.13830684099135282,9.33472013023588,-10.780870965970426,99.99456963884509
2480,0.029893322520028708,0.00784011492615186,0.8699454514437114,-0.8738193803014209,-1.9824405064237385,-2.1770589631430424,100.00718111780823
2500,-0.08867301726253404,0.07596563962160369,0.8668328975231538,-0.4311976328756246,-5.423632908089643,-15.262148908257593,99.97405904081738
2520,-0.06636106249624824,0.03168566016972752,0.94090805059645,23.999281223808648,9.42569282464629,36.92462664222569,99.95416066941092
2540,-0.08294765489087641,-0.01798116876941081,0.8326455520015665,10.67189834115785,-7.203867353635097,-9.487440848799144,99.98866886361944
2560,-0.19291719736833196,0.01995150288414911,0.9271553853426173,12.600978680115475,-19.571685452358857,-13.333778938240549,100.0433269812466
2580,-0.22680639123093438,-0.00559139897777178,0.8893596991767129,-13.237958419998428,-2.226713808252047,-5.05179391831294,100.00977828916136
2600,-0.24060534919597568,-0.08054688883294613,0.8502461876814338,4.994403911282471,14.500132998147468,-20.7231402623634,99.9641668475464
2620,-0.22253814018620363,0.07420927400651245,0.8895434303187153,-17.884359525373036,12.00698101189815,2.1147355351642685,100.00392619826265
2640,-0.2006919173101306,0.037305631464203313,0.9357376158391699,-14.866699157710574,-6.413499820224951,4.905510913666191,100.00195078231735
2660,-0.22676983831170466,0.0622447378553203,0.9626270235065113,-25.571412399330455,16.537773219629933,-3.366102815611069,100.00295457038592
2680,-0.15941077160046901,-0.05439532735347833,0.927595445780243,1.338392348728282,-11.330344843004255,2.086020403709446,100.01972313746813
2700,-0.14823043938669214,-0.037694135861503573,0.9895000095952257,2.6271371515446083,-1.1834666638513807,-3.0807996888118376,100.00166592348808
2720,-0.09434532855335868,-0.030892086531698473,1.0791323065899465,-1.3303174733285137,-14.3586127333434,-2.8314791832406385,100.00426826835306
2740,-0.07592137942452508,-0.07946941325901521,1.037320474152602,8.146647551632096,2.213971813743481,4.430537739227773,99.99240013528885
2760,0.0024337895620423697,0.048526093429404414,1.023165814557688,-8.240471495975095,-15.375428418073472,2.479230558371227,100.02682152933093
2780,0.04946343930655864,0.013828348616490203,1.1248418385186967,-8.217372575772446,-19.63274823854587,15.423943597595642,100.0124244421213
2800,0.039503518459426235,-0.07586641310763775,1.0517991351917892,12.18854241282719,-13.421263437880176,9.131545662184138,99.97423709615497
2820,0.11162063344008279,0.025403911020206095,1.0964692399005866,-6.688364993661957,-2.826438888563757,0.2085392159263183,99.9968071014478
2840,0.17715175832488556,-0.018275536635949947,1.1035964283309436,-1.5343337116797797,6.730015602134349,-4.7411381214548065,100.01776179827048
2860,0.11362428014877732,0.02322082750227951,1.108193118559242,18.029327245399582,3.5212030294577406,-5.575075493562924,99.99431966325048
2880,0.16178330184230175,0.07301091147767258,1.117578915500711,2.9989737838346393,-9.52873975737884,11.404508412084958,99.98834148801271
2900,0.1696738531015485,-0.04658746096030521,1.1403640096639986,-2.7217878856779425,-17.048850951432257,9.10043561789759,99.97491566584767
2920,0.2608231174144413,0.0777473863569929,1.100009693701659,3.275167881670087,-2.7851616312149248,0.3778730802358191,100.00753679063166
2940,0.1573156928004077,-0.08200917197951887,1.1268860114349317,14.548105614798398,13.633668677679342,11.214245918547764,99.97695972184039
2960,0.13089074301523312,0.16452246316580707,1.1500958452288834,-19.58135393379665,9.768710761476925,15.713167470722624,99.99245033784771
2980,0.14507101632149963,-0.017260090734612363,1.1272053263768453,29.313733409078612,-10.077030383623642,-18.887442981077495,100.02480635348965
3000,0.14546184361898337,-0.10563430878225027,1.0570145938716244,5.452398016233145,-12.369990682323895,-9.54632708575036,100.00734380911875
3020,0.05460178206656388,-0.106087077569949,0.996038268608494,8.990653816235834,-4.362499732159333,13.054029430204235,100.02336890964976
3040,0.09385510111202441,-0.07100045636203946,0.965065031998989,-5.599066350629475,-4.8445375688314005,1.730060157240331,99.98093516714752
3060,-0.010073192004559254,0.11123335354158498,0.8790354159697279,-0.2855967534569477,11.757325538072672,-9.26072620980806,100.00435269280156
3080,-0.07932085006210367,0.09061381327112794,1.0092495731424438,-3.221376422246095,-0.034306013775772595,4.027497322953758,100.0098594120454
3100,-0.09164579537546635,0.12645186463271674,0.8107589010512974,-13.18528480955893,-3.2228261608987547,-5.976029014773756,100.02978742151622
3120,-0.09622827604009551,0.07350960880774639,0.8200272722184256,-5.89436421830122,-11.018942647595829,4.026613221272221,99.98513334267102
3140,-0.24647550881288538,0.09735146926387532,0.8508106420849462,3.9044805344721274,1.2140327865222893,-3.2625516255045217,100.02422413858407
3160,-0.2225958835488534,-0.006716410067467715,0.8324762522929202,-8.7901552994917,-2.8788626517932245,-5.6982772188980695,100.01215758221484
3180,-0.1819279508681909,-0.11807792208491115,0.8061563070593714,-20.307523284304132,-4.20129206747332,-4.955747075198541,100.01568301910153
3200,-0.2097778831565967,-0.09131447563763506,0.9572189550690395,-15.480611629134966,-4.173293357651911,2.107803518677215,100.01280801144583
3220,-0.22333690209616971,-0.002351191358478206,0.8422787717205591,-7.00582931540359,-21.985450806033043,-11.476261218997776,100.02526685285608
3240,-0.17066383596567936,-0.008566891194001785,0.9210793095382939,22.19242686809683,-14.499597039015121,8.32722054441061,100.03333258342957
3260,-0.1676408626082612,-0.0316040587416786,0.9110204059618727,2.5233949836904803,-0.6832874036491883,-1.3534234909689173,99.96068214036671
3280,-0.13696131648220147,0.030239050597840753,0.9730315975229801,-10.660566567300373,-0.5779167037193051,2.2339800498970774,99.98137747971009
3300,-0.07707764312542895,0.03747796406823672,0.9889428622890267,-3.299528218488491,-0.7158019205217436,-12.47052041866326,100.01949105823985
3320,-0.03368354640379287,-0.023845872741374632,0.9993098081078244,0.9029557233111869,-10.26941741884788,12.845209184795845,99.96391020251333
3340,-0.08823173810035062,0.002470777572237318,1.1025494472558843,3.9404040752670135,-1.3114976278606807,-7.86925387439447,99.99164371574837
3360,0.014528635409559294,0.02515891328327697,1.0788996070526986,13.864602286509767,-1.8226436092668572,-2.2839682629086795,100.02415091353936
3380,0.11071045990131806,0.026089247301941395,1.1400855198918722,-19.22917536290353,17.943521123046132,-21.523657132766097,99.98826171528296
3400,0.0837099643707522,-0.02043950082305507,1.1032134735119214,3.8788730408579113,8.079726527257213,-2.580316739415816,99.97317561375237
3420,0.2885847700094509,-0.005986190197946023,1.0978311079645808,3.2377534477620413,12.415781750718953,-16.76980238150906,99.96068521376485
3440,0.25165253566786905,0.010809677013777408,1.164714144820806,12.791687509561449,8.991752428693639,1.8619448655927169,99.98508058453736
3460,0.15864278507829888,0.051912984726785884,1.1350039470617186,5.989444870160945,-4.320609568767959,-7.453391414759395,99.98795146930512
3480,0.22595223232831207,-0.04585313052496639,1.1737059235759617,-1.3734276059442176,-3.5795138535810107,12.828191738049224,99.98626636429472
3500,0.21334347167951032,-0.04181840549452878,1.1274983883333882,-11.809843994061856,-6.67520689529322,-1.7417756331956582,100.02826222258838
3520,0.1828896906660859,0.04292906491502094,1.0525522427712046,2.2333590828132928,1.360882330164622,3.6592141545485126,100.03133467032076
3540,0.12756009398720472,-0.020339989029266183,1.1124841485424128,-13.306938948397159,-2.4177306828216527,-14.163250921251215,100.00574037558358
3560,0.0848271647493822,0.01890843536412057,0.9863079579239729,-9.45703852410596,0.6458878495163458,2.8638575878734076,100.02579737799512
3580,-0.045606426031343406,-0.07782499665480551,0.9068777233410661,-12.057859955484044,4.897809218819176,-17.23235017283189,99.97268397052083
3600,0.017488699804561476,0.02153797080510981,0.9762588241633439,8.417450718030892,-0.3256654120239114,11.327415843147895,99.99370884658634
3620,-0.030614536661472198,-0.044170746996983985,0.9476001980655431,-10.96002993419353,-11.819626424370803,-3.3169571795567467,100.00187012513163
3640,-0.08127880686561509,0.023659232952494308,0.9464133810300677,-6.125715151900131,9.084921601033189,-10.501086116384233,99.97807626809292
3660,-0.14722659053673687,0.007105431257853583,0.910499442095864,16.683078636995383,-13.177124969052585,4.691884513276056,99.99961788473671
3680,-0.1619189974032872,-0.037431617024957196,0.8913123584533491,1.929066562927185,5.4654974156602485,5.245105992541411,99.99612243531726
3700,-0.2461762760590251,0.07752141143903057,0.8677177776295633,23.64747703032829,-20.4284277465461,-1.4121684845243463,100.0235545070577
3720,-0.18497329990524505,0.09938522519157203,0.8550562046424596,-4.693073496488685,-0.012566914810456763,2.197419514598808,100.00744306255497
3740,-0.26007494506652934,-0.014701693512981602,0.8824329465060226,-6.383535697793693,18.170951389478756,3.4387395810224914,100.00174294325728
3760,-0.2758398792117051,0.08295642512919676,0.8780021598250867,29.129367544795976,-12.433710124233535,14.493002778889576,99.98527619042653
3780,-0.22589528095932815,0.061331359459271456,0.8389307156121906,-9.823903842843329,14.746566674011452,-11.329630115409712,99.99968742055106
3800,-0.16441525593698045,0.09533857629324599,0.979658501009426,14.352116250094044,5.201258240696096,1.494317106312001,100.00736520829696
3820,-0.11824545679920168,0.012314150488027956,0.9706459576525895,-13.11608239987807,20.506086621849324,1.787683215098744,100.01650200411062
3840,-0.07288242572735272,0.046583812464801665,1.0533503455600095,1.2134774080154913,-6.742910681516385,11.003320287300705,99.96624726472223
3860,-0.10597526043928876,-0.007216156849792001,0.9312824281679821,11.886190269004665,4.805471596338936,14.449446605689335,100.04540967810433
3880,-0.17340640341997943,-0.05713386965879372,1.1118311230888385,16.70464852417691,-11.757670229021999,5.948667286189203,100.02910501608476
3900,-0.02070512618876715,-0.0007171380111753811,0.9755830828092089,10.44781019954284,-15.138095043135742,14.179033302577531,99.98597756118393
3920,0.08763915276147241,0.034555123395415846,1.106480429940783,5.791717126615823,0.8613157676361571,-22.041851710174843,99.98016230221285
3940,0.07536108644570905,0.13121640167495233,1.1589021585866135,-5.380152535702463,-3.496803508898842,27.346370728513854,100.00818815102285
3960,0.10549845956750575,-0.004492264089266388,1.1593385067144322,-5.384811990108591,-11.579515164686661,3.267573304237728,99.9474682813435
3980,0.1613046130907724,0.05270542784116442,1.1424123528439991,-9.927978678172943,0.8903159656704767,16.52945842200282,99.99117403465318
4000,0.21387862946014025,0.11751288864344706,1.1901022434254833,-5.681702197732545,-4.877152062804104,12.17209932641006,100.01801198099393
4019,0.21844433499839222,-0.008252193805776504,1.137018007763299,12.85499661223895,-12.37934366415055,4.573189451053502,99.98978674836687
4040,0.16148633749489005,-0.0355996416406179,1.0705815347403074,4.682476144328248,6.259709287303328,10.131610460156317,99.98350470715405
4059,0.27548218737991326,0.10459980872972047,1.1319526634566253,21.84672323830975,-5.718632250013701,-2.0276510108374555,99.97904592459653
4080,0.1852320336034144,0.09644566665730751,1.115808029712405,-6.932071578408033,-3.7603755356635116,-29.13762709591087,100.0165495027035
4100,0.13925925402719408,0.05652055467830511,1.0172948925565974,15.477440698102782,7.962438515255917,5.4883036638819,100.01467730116505
4120,0.09183989586527595,-0.0019685459173462002,1.0623282323906698,1.930767320577012,-15.145607222944728,8.88644574249321,99.99675357490543
4140,-0.007401277283249727,-0.05120390291909271,0.9604158471066566,-25.791240160469634,17.209788038719964,-30.157307503789546,100.00778788241693
4160,0.0009124680558268358,-0.016793761541520683,0.9126898985735652,3.3186302755482853,-10.025487478370003,1.3756257928145401,99.99161956235545
4180,0.04493323317654371,0.0840237761362972,0.9559375027352462,3.9120841434131366,4.138172155811347,2.4697555377281857,100.01340448588452
4200,-0.06736219070659631,-0.013039253281864012,0.8896326751586041,11.745187963315221,-5.592448019348113,9.00624244016355,99.98827035253247
4220,-0.12154636056871536,-0.024009871309234838,0.9097589871422357,-6.003045382687098,7.213727664189856,-28.082846597332303,99.98976648233867
4240,-0.10106038738892785,-0.010497968066252856,0.7678722250280998,-1.7828592131532939,1.0504895188073036,12.445574766026859,100.0054174865697
4260,-0.18788770909303612,0.05462543321651776,0.8098555276959977,-7.200958026381832,6.911389475937717,-9.210033964725666,100.01021859585693
4280,-0.19215555840485238,-0.06794022260710983,0.8526581977729726,-6.1107596469082495,-10.112716825097646,3.6527721076256716,99.98098354405786
4300,-0.21212972047693837,0.07616387764636179,0.8909275645812551,10.845751586402292,19.096191237957722,8.240703650637498,100.00097462862944
4320,-0.12819637515132665,0.0512682965147827,0.8538932977678115,25.85315345508134,-4.7156645829996995,6.6035523746439395,100.00335592804102
4340,-0.15500152005161555,-0.023790762316233498,0.812658556297989,-5.915409596108751,10.45089329234105,23.73503910247955,100.01371306839769
4360,-0.1765153530023397,0.058439349325262596,0.8602244306353592,2.840385495540307,15.453129728263182,-12.671388941843322,100.02013974077744
4380,-0.042581035333476305,-0.01935874869791484,0.9379364218920588,-2.7731068572434667,-16.570691968817556,7.19837783279328,99.96406707975504
4400,-0.12784670587472696,0.02957718725651054,0.9745285263638588,-12.143483241586084,-3.113192169464079,6.916643301807651,100.00537807006089
4420,0.00020478894539346232,-0.03606970770279373,0.9570094783646126,10.048442737062077,-11.081135187335942,4.7430035833324995,100.0105484136604
4440,0.0035307520601373567,0.023487851813003034,1.0174185188208253,6.53180193806969,-1.8856841927264223,4.768307011399518,99.97298549615468
4460,0.06710677270140393,-0.011904257207095635,1.1262223186086215,17.052989101733214,-17.0009824430813,3.402760808315085,99.98840187903437
4480,0.1719754687141284,-0.0027562855698413636,1.050902326344635,-21.38393657487476,-5.262926676513468,9.680039992003246,99.9960194611379
4500,0.14441499678879993,-0.054130097131019496,1.2444347730154335,5.123280645013683,-8.71534558346709,17.285191811494766,99.99149089165518
4520,0.06823556887462649,-0.09937087049835112,1.165252734729075,-12.291218694943694,-9.984365955399948,-9.333553388885104,100.00392970322632
4540,0.23767286768694523,0.024656659632412568,1.0914470460959413,11.369977380049878,9.456861386912625,0.1027521816025688,99.9938821150238
4560,0.22668765000634777,0.023588708447415885,1.1391621989226135,-6.642557807276216,2.5867453494202435,2.4694961437666194,100.02693649534827
4580,0.09985633296040375,-0.002696255476735073,1.1730763751360507,-5.088067469968706,3.7959617524005034,-11.515500153865853,99.99647112065398
4600,0.25351687016475094,0.02450864123611646,1.031736936177151,3.7554771231543054,-14.965816126388715,-2.0246101348225936,100.00997711457846
4620,0.20183133196054479,-0.07123444182023506,1.0938907005719252,6.173280383952729,-2.872455914696515,-2.9016585596855218,100.00753236632005
4640,0.21926751237712738,-0.07444732484258414,1.124376534717801,-15.431600616393425,-15.765006076420722,-15.458893434178098,99.99600973443252
4660,0.1508999907699545,-0.02441691048526409,1.0437046670444974,8.71389629409322,-11.783015677352605,-26.892298947934147,100.0296665051526
4680,0.010118349984259783,-0.022266224727818043,0.9459562871604571,15.416247942461306,-0.3355353472774291,-18.621405612314494,100.00731622759989
4700,0.06656794662817213,0.032141214994022414,0.9328709280248468,-3.310115052011297,-2.7893839047554154,-5.075146196627767,99.98780636165233
4720,-0.007965259604291152,-0.006430208817647322,0.961376808654656,-14.25531688535164,-6.312235429301998,3.5165476655301027,100.00989827281579
4740,-0.04562427696446274,-0.08214330273945902,0.8786407924338475,4.45724074468476,-2.7011855403305387,-11.53007086889536,99.99292599046673
4760,-0.032973455830568515,0.023088223478764342,0.960370935313905,3.701035978062473,-4.26661279196987,-18.519543554122983,99.9948043160468
4780,-0.15206317444873346,0.05227897555050375,0.8765568014892093,-0.21749499792512939,5.738327757198863,6.483573921988178,99.98496219073503
4800,-0.12902948968055955,-0.06939132988403617,0.8738222230761611,-24.10170965402144,15.211414588879746,15.312720610380179,99.99349133591413
4820,-0.1239152307996658,0.09240312871795539,0.8243126904666768,-1.0694461526295886,10.547880029368356,6.722413118263359,99.99699345348769
4840,-0.19427341767355086,-0.029995440755649305,0.8240111787874359,-6.111034342938146,17.890963737843286,-10.534459420599775,100.02905772786504
4860,-0.28359854034016324,0.0022652198947805827,0.9390622153073921,11.505015267637694,-5.3214519293162486,19.74357873472359,99.99526630847741
4880,-0.23785247636400664,0.03761925426988122,0.8298457935796276,2.7205507500899744,-13.088109160587347,-19.182318173127946,100.00101751047202
4900,-0.09021380834633078,0.021228338062877675,0.961749335483209,-7.872398829496532,17.58881978734655,6.886760277831089,100.01307231787351
4920,-0.2012099127889451,-0.021383644963728576,0.9267975170107176,-3.751581900264676,15.963549507931006,-6.538408681850997,100.01837064113738
4940,-0.15398598793362073,-0.029294091653543006,0.9962504166599581,7.0276220250490145,-27.111416256115312,3.728296578082821,100.00029856470594
4960,-0.0785435750482322,-0.06932713011949182,0.969425476073891,-8.616701073018435,-2.2783949482271884,18.077407953894937,100.02471726311772
4980,-0.09981065292443124,0.05092940872054979,1.051596468111825,5.34674039835541,12.9639382071433,19.105414337445602,100.04769560821215
5000,0.04873266463417805,0.025372222723579294,1.1250138357605546,7.303084748464478,-13.317548287342573,26.989960082096275,100.01540622548065
5020,0.1191592987182937,0.08143295261975968,1.181060859025262,0.6745246524001587,-9.249857168292582,11.644403057260716,99.99018296603387
5040,0.019806471088853292,0.04942880670588381,1.0665903195626836,17.381181209484808,-9.490288300291382,10.076146606169917,100.00585327677892
5060,0.10795318840135873,-0.032261847301713414,1.1136282367807184,10.182317898074917,2.672124719819341,9.508266220479102,99.98432981855524
5080,0.1748833193906943,0.0266580960323414,1.1155748064112303,2.4332106944655756,-9.945900370167276,19.674192405240014,100.00556070972908
5100,0.1469077271104251,0.13259066942618947,1.130645254710064,-25.178257094812338,-2.7371525025509253,-24.21706438512005,99.98881677720725
5120,0.2404097052608978,-0.0710168233506073,1.1743066854073043,-5.016274294682424,9.517651844177909,6.862575877511433,99.96665019713762
5140,0.24292049325490533,-0.10496751128013924,1.141388938154943,7.226832048042633,10.544577333976799,9.539660100705234,100.00177071130419
5160,0.17619916434022018,0.018937615955495354,1.1519337321164438,16.016100037496017,-9.277825121801206,12.287821395269617,100.0106356139837
5180,0.18420641759655768,0.1005743625845995,1.058902444721106,-6.063663122508869,-13.666794544497764,-5.273293491751796,100.01776683853298
5200,0.13704855281871758,0.05287952519923931,1.0835473068018442,16.17909158514194,12.577269825418341,6.981664409251078,100.03148210760023
5220,0.131157157539793,0.06940817036756552,0.9630788516570478,7.578492824261152,-16.765088145636334,-23.542681938749475,99.97997439006875
5240,0.150549840836103,0.0043269914930014145,1.0597885771094129,25.120598789800585,-8.331764757924962,6.947712017916176,100.00991145198483
5260,0.030129045405804834,-0.034218960098758126,0.980035289048891,-2.9631166197703354,10.924544674583355,13.041626287789798,99.9832594275505
5280,-0.034999303745228985,0.01369338652998802,0.8688957330243287,6.091408234331913,4.4525111682143175,-6.232733229949842,99.98156249886534
5300,-0.017196033533415873,-0.017641456023395043,0.8696470526144306,-11.291204883251986,7.961774630692163,21.65173028079394,100.00011226623133
5320,-0.08593039310741725,0.006225657858996926,0.8953364759753989,0.5491853512480722,9.253659818757608,-8.966983789891954,99.97701518567082
5340,-0.11609906920515935,0.012096079797559398,0.8687401863386011,-12.721427222825842,22.345449037740863,1.6594193581750245,100.00806659729182
5360,-0.10681532560689169,-0.12511028068743882,0.8681316799064198,-2.114293871001512,-0.7251797903409551,4.533022641012563,99.99860069798156
5380,-0.18810710273913578,0.019709215997941065,0.8015529767150639,-17.98593434036321,-9.152891860955307,6.599073732341933,100.01843316539113
5400,-0.16704092057639788,-0.018799370505118446,0.8194219997074397,-20.150061712759843,22.015017896648693,16.26014034743877,100.02037960910258
5420,-0.22152227089394527,-0.06014954647542983,0.8751366640682265,-15.373340206042112,0.3548966382280089,-3.9217137127174944,99.95477652189263
5440,-0.15903713693962304,-0.022993013639240775,0.8957800376130166,-0.2759904961259999,-29.34447192221802,4.054791370154451,100.0551591226289
5460,-0.17175813338269424,-0.037213495041154336,0.8769144409348393,-13.245272365151529,16.00579189920231,-3.18491498097924,99.96819477293245
5480,-0.054226413501204176,-0.03262092652657581,1.0011283670511946,3.5353638004821395,-6.62625125053345,-7.197253734202779,100.01151031034985
5500,-0.17574758346295202,-0.007317400436991587,1.079887662731252,20.156290009637125,-3.9134816173715015,1.7907391301336637,99.99286376623972
5520,-0.11360342169116591,0.10195501900907865,1.0353237320140376,4.520033038826838,13.51418064119393,-11.719701258709687,100.01333577195284
5540,0.07021951747061073,-0.01664548131434824,1.0526903409955142,1.6272136585284136,6.915761249718242,-12.48820058253963,99.98661379103615
5560,-0.06749586852440823,0.0060577125474640635,1.14052604430782,-4.814781923531492,7.045309160118019,13.735599851679044,99.98971419371581
5580,0.1454626607660217,-0.05236066331375875,1.0933032005848404,-14.412663701937607,11.453681459416194,-16.234044288264535,100.01133900083083
5600,0.15234699833431697,-0.07866976577775833,1.1446211407882452,-1.3180848718859182,2.050977167480486,10.5824163230481,99.98439505985118
5620,0.09227703417655206,0.0013113399844629765,1.1275556288523358,-22.094998173215807,5.13185003271627,-2.346718861946333,100.01808839057077
5640,0.17657564300208228,0.014990489928835615,1.072969344600791,-9.390684969564662,2.768708113297137,14.71660106434338,99.97580619055972
5660,0.21054340485703704,0.03049727468089162,1.173509972784024,-15.079843723645354,8.882374615959053,9.975158717902355,99.98545858356914
5680,0.23694018879428336,0.050389975307630945,1.2257659610081928,14.814260802525013,-21.618431805848182,-2.957986849517908,100.03099820670475
5700,0.22603700812077604,0.07940258586037025,1.0660759670685493,-8.947817781316086,-2.2928183131666455,12.362640646141694,99.95700895108233
5720,0.21678834853919837,-0.036363988544959425,1.1306401268036481,2.1235065946081146,-8.852932860280236,12.357564108292458,99.97799058032342
5740,0.2694619460189982,0.016875073828327827,0.9732657910499667,2.3991226225883624,7.406221733184722,10.861560252458226,100.01271125757569
5760,0.05913710543064653,0.005330898955887738,1.037374206573532,0.9122993721400783,12.332855684420696,13.261882352545591,100.00972127306888
5780,0.10681734268754466,0.029173596010082986,0.9619330771829945,12.055833686680717,-21.13554084089759,-4.799972522309644,100.01479272320483
5800,-0.018727823763589654,-0.01510910431729761,0.9971618004834666,3.7974486877676332,-10.861172469538749,3.512517337273887,99.989506763886
5820,0.02259129725500149,-0.10770913948787803,0.8417638509923795,8.090899766391747,7.9247326335458546,-12.674894771487335,99.98612429107546
5840,0.05809607366875036,-0.014766227228023444,0.98943345946446,0.38711370248871113,2.8536169230806987,-20.18848185660486,100.00909220453819
5860,-0.13454311990217258,0.027213146351116838,0.8023495905119342,4.646897929740598,-5.8460341493158605,-16.82732848482835,99.99997808026941
5880,-0.212587515289362,-0.03693248154118808,0.861089329871335,1.9489681240008991,-7.012773682682925,-0.648344951121634,100.01713410845022
5900,-0.11053775296569224,-0.022772176427076088,0.8781719263820635,-21.692375576215806,-12.076669264859255,15.594210014427958,100.0288824633077
5920,-0.13915776242324734,-0.03896477423038472,0.8505895823597814,10.937516699618646,-9.719998729101906,13.546369443297841,100.01252557040954
5940,-0.12383818583089506,0.005855514854965289,0.8526966676715207,26.483915542065134,-3.9997766734441713,7.111295484274271,100.02291160549443
5960,-0.21202920127753674,-0.0018260125187659925,0.730493375290937,-1.1785587719360344,11.512698373789497,-3.0673320972759197,100.02774386006226
5980,-0.21793632580994513,-0.05356203534533182,0.8845011682204064,-0.6932545204672487,9.314074250070448,13.917570790568021,99.97275735043839
6000,-0.06990589699372275,0.043944619040917586,0.8963569612413294,-2.5483194118096097,-14.498908395700774,-9.205929290675428,99.9847593515213
6020,-0.22880077690076353,0.08574886421079148,1.0517370218795663,7.361969191692959,12.131598986650008,3.435934168468863,100.00008090116786
6040,-0.0971102333490154,0.052127874887293216,0.9066214410448334,4.321869531534016,-13.665537620597139,-2.17047741327388,100.00844063379621
6060,-0.1363287073123683,0.01654559870367724,1.0750749058438887,-18.511850061582493,1.2870083605447498,-16.98160268485002,100.01351684614761
6080,-0.17062512894111664,0.06041063581300352,0.9264973492728039,-3.2621822673984395,-9.87751949029022,-2.4170318770192214,99.98706235785347
6100,0.025619559573546113,-0.04109145103692567,1.0256013768050072,27.432700297156998,-21.57398129823923,-10.675655098673717,100.01944793109003
6120,0.15855947705520135,0.058555604060055236,0.9776174092178037,-1.8610419222521373,5.634101980672883,-5.5483116548065485,100.03959185284
6140,0.056920633995875436,0.025741178326723388,1.0420904062698153,-2.7803753799680195,18.556937108800483,3.462642301225349,99.99555965892158
6160,0.05211988076365021,0.03908857432035897,1.0727710498850709,-5.753730705682515,-22.29626256945432,-6.371803364335864,99.98818847667019
6180,0.14777280087171774,-0.0686964238398972,1.1368995688897645,-3.7982069073621565,-13.109629625513897,15.584837282926543,100.02081902343804
6200,0.15912191010059934,0.020724631441710193,1.2352477457643058,-9.568517137483779,12.290599800726813,-13.403084745661266,99.98463244956784
6220,0.22824565901023247,0.01787783844382042,1.0593278845581893,-3.0847757513888974,-0.22736183407768348,11.516771586952132,100.02612436619327
6240,0.27755439102223217,0.06138119640170428,1.179776158877572,-7.383856517726034,-25.08170751160165,-7.005566486632958,99.98479895574268
6260,0.2790834949041009,-0.03499395941014361,1.174444911898135,-5.160590972818685,6.894759677972265,17.278304553250123,99.96174670235554
6280,0.15847471815275854,0.023187357503281988,1.1272324315621138,-14.744811977676154,10.652985787738334,6.963424876646409,100.02481030451821
6300,0.1909469838083059,-0.019164121935953744,1.0240828160627646,-10.698912905246416,0.020459679212825266,-0.19653348877386823,99.99940591202149
6320,0.12541177769033446,-0.05131770418266438,1.0856489872871478,-31.371981695963477,-11.763153683234144,27.053819305766122,100.01548757854796
6340,0.1597080066714663,0.011361530991634759,1.061650756305463,-24.352208041101775,3.016179188428812,16.870413459819424,99.999770209386
6360,0.05471563461061939,0.0312268947875282,0.9689403840777072,19.831970076714786,-2.7741370071471816,-19.731284705228035,99.99683921813525
6380,0.05135127929374619,-0.030406177696835925,0.8993399040324445,-0.08915384770762867,-17.218586927963315,-3.2246103733270193,99.9912461668152
6400,0.03005421753905862,0.0021410275598635945,0.872891026825347,-0.19225794828629136,6.522018006057927,24.081687377337282,100.01906762514069
6420,-0.0925612531574179,0.05335292346933149,0.9167768099432382,2.901432135903902,21.758747253318248,1.1787187278809512,99.97561831617834
6440,-0.09331407111337356,0.0327217583687869,0.8642613698533453,-4.284976989797373,3.41387515343127,-12.54816248342851,100.03329800363029
6460,-0.17020351062411784,0.08472100748727754,0.7786699783008583,-18.91973700477145,-5.782356748618953,-16.24979024132363,100.02119497853415
6480,-0.14364938636740152,0.030353321680297796,0.8028340476260182,-5.048058863936783,-0.2820395523288578,-13.298530369272875,99.96561039311669
6500,-0.1590661600068307,0.07361166676843438,0.8103427399754194,13.439024693862287,-25.224238594689375,-1.890759612088528,100.00263014810932
6520,-0.25996802808804853,-0.04880145175142517,0.928788746817928,2.3260514379713837,5.494979568746302,4.577750954271681,99.98247566441069
6540,-0.08695637289724187,-0.04623763946273275,0.9323404702398169,-11.28928449132791,-7.473979637453852,-10.969581547014137,99.96208599800028
6560,-0.1364981703400567,0.017532993007163416,0.9521063713617258,1.4845887314346684,-16.48108944512949,11.179220761683336,100.01562875249468
6580,-0.21612818945479667,0.014001519497786911,0.9288527593206835,-25.19501524238183,-15.234520480315105,3.931158947715817,100.00991182416483
6600,-0.20877945504043938,0.019582008801666533,0.9437069629753959,18.965344979616948,2.8429957023045507,-6.78332153066968,99.97784548938691
6620,-0.09797928460430232,0.05972528424198829,0.9639038232168371,-22.005429087798973,-18.691666979626042,-5.127060420366062,100.01011991954786
6640,-0.058387890901537974,-0.01204808491803948,1.0181506820429838,11.083935485002216,-6.425519192372129,11.201960831431919,99.98716901912974
6660,-0.07001236181123253,0.03710719210724655,0.9886967451580957,42.02105499001967,4.169517430968756,-4.703737293630057,100.01590725603809
6680,-0.03391796899225498,0.005119827462980887,1.11994119263546,8.638322861563536,-12.653533360130972,-5.590293272452564,99.9892546628756
6700,0.01683876799178488,-0.014925598744020186,1.07811615638044,-7.381136498989415,-1.1051453359564603,-7.846514419048603,99.97497002941267
6720,0.13406139233043296,0.012072047992291099,1.1142641935275654,-9.892899117604111,3.94034310620703,-6.553579275411854,100.02723029097596
6740,0.09343540719749141,0.011505802680861495,1.0281322349780604,-13.342100697343694,7.981669359435012,-0.7879609954073461,99.96988330560653
6760,0.17162431534258635,0.04662734993014626,1.109179598301795,-7.3902621566031765,-9.688362987081419,18.220565135980806,99.96980851825242
6780,0.14983176643038484,0.04755253201445175,1.1189005398871543,13.579072570860703,-9.33462156045418,-6.502778936508497,100.00383220431202
6800,0.2417219017871666,0.025400540742828583,1.1154067008617259,9.100270089688369,7.21035210836553,-8.930759525720442,100.0388124554463
6820,0.2796508376490925,0.034792032434033476,1.1093706216218604,4.354857775383293,5.273120928463158,3.48520684390875,99.96132559337497
6840,0.19621763999767583,-0.04294250541018286,1.1831085641503332,1.937521599468032,-0.133369630911464,-3.8994590884470846,99.9927402864646
6860,0.22216306558762325,-0.04609281962073841,1.065803731818206,28.328409571859908,-5.471927407772844,25.356872630727217,100.02486914262069
6880,0.11635419519241924,0.0001858344624175391,1.009751634772778,-3.6438106960590826,8.56653968975218,3.875197015239024,99.99629505096635
6900,0.10742683254172765,-0.0021431435636704863,1.0290579276157166,5.63626837056296,6.372533277365492,-12.743262240741245,99.98648214779308
6920,0.1069994256132864,0.010154741509946533,1.0030913371190908,-6.697082095028172,-4.4846741494233076,0.5489602047886379,100.01793589695905
6940,0.06629014276841154,-0.014556139637726765,0.9290426606091764,-16.349835565372732,-10.05194740756184,5.608676033964371,99.99633191978137
6960,0.006495210785227072,0.02505696036711737,0.8799637340735966,-7.244056734691233,-6.538928393775418,12.3861841680426,100.00942733933297
6980,-0.09255302769515543,0.0033638512485362447,0.883703330757624,-16.22985719668975,16.25996912374493,-6.236435331597915,99.986868753014
7000,-0.07823002958743466,-0.02478943880571327,0.9944343195348555,-0.7839902680945844,-8.48207344920014,0.9234384694511129,99.99132330662604
7020,-0.12605422460246746,-0.032265534795215205,0.8701094040055872,4.96418296964236,-4.30244507518964,-12.084806535991786,100.01286619564362
7040,-0.04617640007461915,-0.005914229589179355,0.7689375230638249,16.408721294461813,-2.9921748499408043,-4.959860215425118,99.97856866675036
7060,-0.21619500499522953,-0.07571864507910886,0.8843487804910405,-4.584113579402266,-0.6454525256301672,-2.797794077417451,100.0103504706271
7080,-0.1575500895221298,-0.07765867850846013,0.8351049548656583,-10.782785005363156,14.781782829774325,-8.317040805261147,99.99041357626197
7100,-0.241297483491882,-0.039572720692867935,0.9738868116543993,5.418088005080398,8.338067880531707,3.114085859961249,100.02272416934744
7120,-0.2531644855669094,-0.06880604742852033,0.9370057688817862,10.78757408663743,9.392489173489848,-1.1612360784917575,99.9903993330113
7140,-0.12543827451414682,-0.02662761993896325,0.9460006144760962,-12.537038587161913,31.858642603280266,21.77072199851018,99.96069831732518
7160,-0.16966797105017872,-0.04844620687387741,0.9911831964303549,-2.190009299515857,7.256491582654332,-9.304877070207262,100.02028629031312
7180,-0.07863699269439393,-0.039647788235616765,0.9972373585218375,-10.458880860224737,-0.791401807494015,-2.0504526706042703,100.00094876749064
7200,0.02643782548519616,0.08220552188095698,1.066079439412078,-19.212957862648025,4.138265528297848,5.639129466207855,99.96633496453076
7220,0.011677457646501837,-0.034860554472251906,1.0096001382233089,0.34486138660843624,11.583461807002445,-18.28091284170666,100.00246802153058
7240,0.01820412987084859,-0.03596034378044846,1.0956549033271994,-3.3874179974600747,-9.097566954187453,0.6266205943572176,99.96217456689979
7260,0.05085626366003,-0.014674333837398135,1.0889216757965323,12.670394283703088,-9.577801853489149,-7.791438036327227,100.02394644009158
7280,0.13616431255662872,-0.008622637645894852,1.172422453284591,-12.767188176022215,-7.7566326948972,6.849891566708543,100.00742693401827
7300,0.15525893467186563,0.004438830583779865,1.2244202554459678,-4.950492490565524,7.473811953443329,-17.277250940249875,99.97621766646562
7320,0.1344361005257748,0.0826986254479824,1.1120297638983174,-19.293281049118598,16.70830816273974,-7.146510270930274,99.9938706936402
7340,0.17076190865584345,-0.009563976255496941,1.1649954580776973,5.233818740023219,-16.370934568655407,-0.7967751576243618,100.03692519693331
7360,0.196110156757764,0.060821705265850595,1.0678536870375728,17.25813027160042,-3.1242598720454193,-17.135494629984912,100.01397570459814
7380,0.16599730022654557,0.00033816485181109216,1.0943088770251626,7.193100619036879,3.8817528119356868,-14.216999561925418,100.01179970425919
7400,0.14789072383112697,-0.0007958591158097098,1.0984732871088136,5.062785018653166,-1.118137166328645,2.7643760148421808,100.0015354928175
7420,0.10105839909282782,0.051234348094110815,1.0243576446927163,13.131279891084784,-2.425236488305088,-1.768925341021417,100.03130583784095
7440,0.1293890289422276,0.04060788487290296,1.0215613552314213,6.044377218530142,-11.617254756292501,2.6897706291235806,100.0271810285848
7460,0.05006718689347819,-0.017037929947300717,0.9262852344766764,16.371259850430057,-0.49554629169409786,0.7272466140566989,100.01936534833186
7480,0.01799298304918845,0.022203379955683517,0.952946343202878,-28.237420494392435,8.87075908107956,10.47672549096429,99.94996692922956
7500,0.059614043549581386,0.03834486485959998,0.9387400201630317,-7.0245599433353885,11.892427591423004,20.620477475857292,100.00353455847508
7520,0.013728651374670345,0.006105463620626043,0.8983857862347061,20.305442083445367,12.050194842250026,12.834324237041494,100.02474507678495
7540,-0.13644492038755293,0.004479148200401478,0.8203988650063857,-2.7655426512257733,-14.342909435461703,3.709574852621466,99.97267318603902
7560,-0.070613851108839,-0.05292319262493649,0.8293111936048885,-10.560660936440026,-10.026520770096873,-9.318594093267055,100.01856973858595
7580,-0.15871063476400465,0.05225132712065042,0.8274242551348656,5.141383983803735,-4.088429879265214,0.7143105209341956,99.97698509305292
7600,-0.1075937037474152,0.035162329946427345,0.9054545449506392,7.481202640981425,22.69605959459296,-5.530739851507574,99.99608418320743
7620,-0.13848741247181395,-0.07719397648000016,0.7456624827277083,18.106451204103475,23.42428131965158,-10.186473867401839,100.00574086188387
7640,-0.16086505829565625,-0.015226576340230315,0.7621790551309454,-20.099236210122772,-2.407934746125396,-13.128670062437608,100.00897015421143
7660,-0.24597374009364825,-0.11011886228231718,0.8499579511574696,0.8974161167474148,22.326531492025566,-21.646254423767854,100.02448531991654
7680,-0.24384324749546238,0.014339401573297965,0.9998092735289221,-3.099775305574988,19.653904127649096,-12.306859448928117,100.00630202283932
7700,-0.09529274596714017,-0.031665795088720056,0.8770122441244861,-4.463921677782511,-27.4289552376831,-9.021101478566703,100.01265214231297
7720,-0.18159352008916013,0.10211577607213587,0.8952068334910367,7.411026585048825,22.287474005966295,-15.98881896041464,99.98108753826332
7740,-0.16197572711631092,0.11895010041256818,1.0499251426827543,-8.699594084393166,3.1510361035215526,14.033945511071865,100.00324654554164
7760,-0.06893001533245272,-0.012392674090876285,0.986157615166777,-2.6905841672385864,7.437298956407263,-10.635281247799355,99.99302661270009
7780,-0.016739169624093404,0.02892448388551974,1.052462705252142,-5.094523770208291,-4.5929422667595645,4.810033959217991,100.00990508134554
7800,0.052584237384112296,-0.017824654393660107,1.1071243703466014,1.249711704713341,-12.013173814697101,8.110883709610704,100.04279589770358
7820,0.11489881946960756,-0.01822669304755809,1.1298991153219997,1.202191450883922,-2.7922766761882274,-10.215602812442182,99.99684524851496
7840,0.13713078290931394,-0.033999733166068656,1.0347910462402563,4.355058681789934,13.572967232498907,18.375768993891903,99.9996781218407
7860,0.1757177644573612,0.005735494430672751,1.172837548180656,1.8036614391613748,-24.659929901016568,-14.526575687296674,100.00213724774
7880,0.16744543554819533,-0.12950519878708744,1.1635663666975482,-7.381343016627946,1.9620922317247476,19.74381895475276,99.99583941714093
7900,0.25569834615458054,-0.04665262135226788,1.1582443804510048,-4.648349348337343,16.026934267551372,22.56433471257299,99.99046394433414
7920,0.18516722092598917,-0.008616601115160879,1.1805205337849527,-1.5915817714328826,-26.321434004476007,-7.1807362213732375,100.00140314516719
7940,0.2103351725935793,0.026737455477547835,1.052880134940636,-2.342309545862739,9.626934429063688,-6.9278440235970855,100.04322411687747
7960,0.133270651022695,0.03744577132318675,1.0335083702449634,-22.162973075807468,-1.7371897962993192,-3.731066149024337,100.01702766264877
7980,0.16965072106542173,0.0190040331769953,0.9874165102678678,-22.933480046580875,-1.6643346092041496,-0.7218467891516173,100.01219907093184
