timestamp_ms,acc_x,acc_y,acc_z,gyro_x,gyro_y,gyro_z,baro_m
0,-0.040827560150560493,0.06731906057957603,1.0511228149911496,1.2840397499561143,-19.58047911681273,15.861551567803712,99.9905890470447
20,0.003157887894285588,-0.03285017601473986,1.0940367756380525,0.9922382151952103,-14.121468906674075,13.87619382001404,100.02057752900299
40,0.03139007814047446,0.13146927450222853,1.1468205773301283,11.774441472468965,-17.40279155932079,13.316921472731956,100.00684281167496
60,0.10618605505928402,0.11730116031126865,1.0370973863589679,-7.341917530055051,-11.746211567444409,8.802124308438266,100.00061114322368
80,0.26287645894575734,0.026489461754919164,1.2357436320158175,-8.83143447881899,-17.66770024052675,-7.255041782431093,100.03960069705532
100,0.17268280455148205,-0.0974762295540802,1.1970788660189255,-5.309271819111732,-0.4986036263430771,-9.76079936471561,100.00645413581455
120,0.12439082896245827,0.04008958535104605,1.0128616465833198,2.398661995572193,3.6702282831017907,-0.503489193156839,100.01114869656342
140,0.33886447346893545,-0.042065721183987034,1.0710092561619606,-0.5303763228092254,-31.052716408470996,2.344454924405057,100.03389132547936
160,0.2588944627057661,0.0023971520652130082,1.1841290935047537,-12.30434591214669,-19.845462835447467,-2.251199351455586,100.03986966175296
180,0.17913602317129623,-0.04065027462498034,1.0926002147638751,-20.637627324108372,1.4584879181844128,21.013100406920593,100.00610660536329
200,0.20185486047977153,0.014485250784349242,1.1714164493931933,13.896983366936052,-4.573505991166087,-16.518654102861678,99.98715909017558
220,0.07734696773824953,0.06895761098304902,0.9940875708985172,1.6833049702754113,-4.729382296800515,9.810540770910563,100.00001960646158
240,0.13371654303061037,-0.04140091618696776,1.0456288577563002,-10.333302527487058,-8.991560961328975,-7.478317817597439,100.01653904482744
260,-0.04637969473603936,-0.008949214540575718,0.938745340232328,13.544179944523693,12.646053898738312,-3.0464557945240927,100.00412482611125
280,-0.014008133958379625,0.07132833370011918,0.9101374513671875,8.766203276672764,-6.695715908553318,2.9304199454382136,99.99534298244767
300,-0.05118770894381123,-0.07360591335316868,0.8508045474962389,-12.469537586477,1.9851402398588935,-3.698955096921217,99.97139006962551
320,-0.0758638322423841,-0.05312457938609869,0.9364720869506011,3.3118084319660483,-1.7438157493372934,-4.579626934982802,100.01169306457473
340,-0.0863683910593818,0.025594054114551863,0.8711068233022531,14.372871498086475,-7.978977680382425,-18.85745250559341,100.03544102130097
360,-0.20956579294716013,-0.042867369623623884,0.745955424869617,4.364700761465016,-11.007207908939028,-4.461220301207191,99.96361653526886
380,-0.17794240514122453,-0.04023893526121829,0.7804643122671265,4.625834242151477,-7.162429720650078,-7.89407022768658,100.00926580890827
400,-0.2755669336656311,0.007920712013770164,0.8366944849548051,-0.2447266563081001,15.417119682492826,-18.513922988560537,99.98616767869329
420,-0.20537754164105368,-0.005366618057311244,0.8813333411512699,7.0470032182332485,5.326481224918826,3.619601551983468,100.02425382472043
440,-0.12218246670696321,-0.051991487988943874,0.8858446457651462,1.5632982722175992,-17.847690189803465,-2.665870012047675,99.97056913079057
460,-0.28003715781526883,0.017392723781244908,0.9470793319403151,-8.393699457109882,1.7329354481781007,-1.8235966083397104,99.9994760437467
480,-0.13220445259275232,-0.04412123915332136,0.9201196878249838,-14.17542034184411,-14.628143847876473,-12.27989778564763,100.0243985153101
500,-0.04361797583028856,-0.09413285427128742,0.961481298580634,14.288674594019824,15.265924376707197,14.110313163858024,99.99584743010278
520,-0.10034882812536573,0.0024478419381843064,0.9386083243434074,5.364547180054541,5.0927415106506535,8.189251587939001,99.98939879437118
540,-0.020585163105995355,-0.057297086829573345,1.071689110497366,11.469017135019147,2.233184157337477,11.99910490239187,99.99149179603786
560,0.05427040008042086,-0.025111990276439733,1.2145994465142476,11.775567692690476,-9.44287689104043,-12.729082850306902,100.00875706894968
580,-0.004187726447808217,0.06181916372857571,1.110402288645878,-2.866516615525012,-3.4688876892104092,3.103729761518616,99.99494075251198
600,0.11318879087141812,0.08564621390567356,1.0521513510632412,18.111351774318923,-3.2305874755902115,28.405196529588522,99.96964831959664
620,0.07310186643057087,0.10119862959398117,1.1194543435342794,-11.298535848404516,2.149129996698818,-17.023805048493937,100.03593636110108
640,0.1432554821384523,-0.06112896385034672,1.1420428227916235,-8.08268436005826,3.4964359826161457,12.845415683071531,99.99920532414114
660,0.15168660708509488,-0.12528871004424513,1.1577399486738056,11.097716995905113,-11.366328628761064,1.9515645134109536,99.99183246920575
680,0.23973808416839784,-0.03754232788130301,1.10988180225324,23.296345719287423,-19.375032496321985,-16.810876683855263,100.00492892021865
700,0.17893881768955938,-0.10945738892841093,1.1700053350686161,0.2514740940275917,-5.531622419944171,-4.700235896747591,100.00267559098099
720,0.11090134423041441,-0.05104133960613988,1.0736143573986825,-8.138054921059672,7.467826367140683,2.5978063871136756,99.9976386293703
740,0.04444958865578835,-0.05156273249345148,0.9634802615549806,-4.1905250709293576,14.507805746903884,-29.798917401198068,100.02085435431589
760,0.16937610208067766,0.030633358582252468,0.9599902511230185,6.811163417426069,-7.036226483266251,-4.310907599213849,100.02890055566955
780,0.09466382859624087,-0.06590910074620702,0.9460522181024978,-7.5328829521025895,-0.03841161457686245,-12.338662216825472,99.99532622394781
800,0.09705413134956951,0.040057838662638866,0.9052958360804632,-2.805072577637433,3.544462898400103,0.08188655730041183,100.02809678716184
820,0.09494141649620691,-0.043587723982018295,1.0259732617260773,5.592294771376611,-2.351309397997101,-1.3979262216066157,99.9528104576071
840,-0.04761240165240297,0.08047659190397458,0.8839358766309673,-7.750080742502622,-13.601414901140718,-6.626511105968327,99.9813231114877
860,-0.014327843431322457,0.012381831865605578,0.8336108039767586,0.4053112063854744,-0.4253145823159553,0.3506913339756678,100.01116947353556
880,-0.12255327925334489,0.09483567383937623,0.8642153620311605,-3.2990163160806163,-4.513202444416381,-8.300197188716254,99.98920857858221
900,-0.1435467680697631,-0.008239829098558587,0.8559260612799103,0.3137194188647192,-10.282480387958952,-5.5009263583024985,99.97589723982264
920,-0.18180128307725482,-0.06180446780455054,0.8898613302835979,-10.56680483798781,11.79673322567497,-0.27797531174996776,100.00627554839117
940,-0.19935792392400048,0.04025480205934231,0.8957620970789032,1.0066145426675954,7.821502196229168,-5.1567191224819515,99.97821729549678
960,-0.3249378346007456,8.5992064591051e-05,0.7586415184711871,13.310265692471551,-3.9657908896588348,14.647210946357408,100.00556535793216
980,-0.21946383470590264,0.06416952388857365,0.8234426115507192,-14.764097567764797,7.611257840817432,-9.017705403530229,99.9750283432535
1000,-0.31603126798367964,-0.04691992044594742,0.9628648431968587,7.629463878741253,-5.675660523930797,6.287276479302308,100.00745941617274
1020,-0.16842915204736514,-0.04912823912415638,0.9681080450578458,-9.971444937684964,-13.725855623123568,13.43810757925598,100.01911014058446
1040,-0.05458060980050465,0.01626866937911802,1.0151246918766261,19.514566605871554,1.2153889862769864,-6.8999381722731625,99.98610320364321
1060,-0.14597776765426895,-0.057740799395138,0.9785811171440761,-14.415451176923485,-10.421795868826447,-2.998455742215418,99.95189129355812
1080,-0.009269504160030584,-0.021767475108935744,1.0617742381243476,3.520466724278182,-16.597253801087252,-16.318766898930093,99.98924479759185
1100,-0.013348770193847701,-0.12384292397513322,1.0080201526272612,14.87078292406045,-0.4699188384337145,5.908303519366367,100.0010227817262
1120,0.01068112151934911,0.03816712651971977,1.1284222862118711,-7.2552914033216656,5.5024941504591744,-11.121915904886492,99.99295420264366
1140,0.09552581417436926,-0.016219757141003804,1.1741694340450144,-15.192051990526547,-5.901414232648426,-0.3012317323945417,100.01096201491296
1160,0.08733308638219545,0.0699514081852874,1.1260602361511458,0.44927100787102403,-1.940393623635079,3.365552188508498,100.02461572899728
1180,0.12080180124450711,-0.05310122812965931,1.163343200979784,2.863935665158556,-1.5017046253454525,-6.048156497368717,99.9880661957072
1200,0.21417761724196022,0.02238413810050993,1.1160717241086138,-15.334880676711373,11.742460201987953,-7.054054702091712,100.02661080600951
1220,0.21113313625241584,0.054205621665721015,1.166263317176517,2.7147623787722868,1.3657291078666636,-8.64641814639946,100.0126270313238
1240,0.24357396075062274,-0.04239623059960415,1.084841650717695,-25.87553390829929,12.785671475389819,10.385274041185875,100.0016232736104
1260,0.24186781155454823,-0.026343920071358946,1.0902018972764147,24.578931993588302,-9.793073193656236,6.981397932904146,99.98192123286233
1280,0.1517056204238779,-0.040724526298228744,1.105586489376095,3.015203808062345,-17.577554145147356,-2.677973416991431,99.99497380977404
1300,0.2364744836776908,0.026961764610341193,1.081291526107038,-1.0662891664079466,-10.258082961558067,11.837013274829603,99.9758026166742
1320,0.1072906662956814,-0.05986386925290578,0.8793003038532954,15.053471398393905,-7.7867904224993465,2.672271461468166,99.9928802028996
1340,0.06083304329883277,-0.030434603091498653,0.9721492388886862,-6.463147966883287,-18.236867083661426,-3.2709170089131625,100.00757235037356
1360,-0.020708747312038076,0.09123686469636776,0.9321965057696592,1.927655702884579,-20.471194211334243,-9.589390929266637,99.98837748091502
1380,0.060735025653666404,-0.02635986192591567,1.0086930697141057,-5.885176457506501,3.610170431536237,-1.5380432475793289,100.02976510610097
1400,0.009912766846113842,-0.01839257447336122,0.8824757362997404,0.9670416617201376,1.7193768546426824,11.269642238015813,99.9817785816876
1420,-0.0508318898248348,0.007154982725214604,0.8426856876018749,15.135195009330538,-3.2484008430448057,3.193955175516482,100.0123078477964
1440,-0.061641885043934475,-0.007903190417967068,0.8921009302089074,-11.773891189476213,-14.048880678583512,4.805592046898552,100.01827024345705
1460,-0.16659658307555955,0.13088198077159702,0.8843606284875821,-11.357530388673663,-10.506673145945175,-11.13475907649753,100.02852645060027
1480,-0.27487978367671795,0.1321173459357496,0.862248502697178,-4.324350624539945,-3.226971002622945,-10.676857018519996,100.02486633292098
1500,-0.15840347625668028,0.002002699325247724,0.8641588624643934,14.94571719935378,-1.625665117027341,-17.105750053245156,100.01889296071617
1520,-0.2193396060407226,0.017280916235423795,0.8597201912648761,1.5960764177706266,18.819144510667275,11.393325405763122,99.96502571094963
1540,-0.17541998612699586,-0.013977708409609407,0.81490164776965,12.786850419249426,3.991615272351223,-10.161110593078304,99.9963640054174
1560,-0.17924255632928005,0.019588090611966764,0.8869067182353283,17.106649211571465,-11.606581094514969,11.295555216557572,99.98902952946175
1580,-0.13710472790201533,-0.03149125511351954,0.9080296837044598,26.841572549511476,22.431671245113776,-0.9253986001631109,99.99308766596546
1600,-0.05104048361276242,0.0231780334225716,0.9852010656380034,2.875370596141935,18.281268461742272,11.33022958655521,100.0241977857614
1620,-0.16086387921138567,-0.004979471376139671,1.013366425148348,11.27384395627126,-20.024353678300024,-7.613136905910648,100.0072193909352
1640,-0.004878171897221006,0.06714160885520981,1.056634214101844,14.042915992672597,2.1087968818730443,-10.67513796948261,99.98914206293264
1660,-0.06345663938667474,-0.023983872260537623,1.1470317741903704,-30.627031662392824,-13.999775649165944,-6.7613394251299175,99.98107981303751
1680,0.05852631975587688,0.05249157859767284,1.1230821889809877,1.7834660497686505,-0.6932100428804935,-16.00071357103513,99.99738212355429
1700,0.1302577525807791,-0.05188381457966271,1.1401773600121003,3.1453571127662623,-3.2511425193474404,21.552938869857595,100.00614914377495
1720,0.12377969330714579,-0.01904807702102175,1.116861817527676,13.878274156453983,4.704069617791182,-1.1924848057217226,99.9990669508361
1740,0.12817131130751558,0.07114031189543932,1.1261540427369015,-11.578905714179099,8.696794262361124,10.080412976547882,99.96118323716198
1760,0.1928485545272687,0.024392906611769703,1.0825810377498455,-12.86065235481972,-0.7914730000546586,17.329994203150285,100.02620094625567
1780,0.24846969212430997,0.11408333115405392,1.1038752166340529,-1.2766347842542844,-8.383854984685117,-5.3575766438346974,99.97959511513139
1800,0.2162486006066954,-0.09371640841634582,1.1498277229865872,24.65947171762337,-4.393926165094763,-14.039824051863373,100.00178056241704
1820,0.22946414898682765,-0.012334544849415985,1.2087430633627685,7.215755767148375,-0.6200659268638418,2.987120986155005,99.9969479837782
1840,0.11550995822324357,0.03557768641727349,1.071247822371089,-2.0491726191288735,-8.344719368813237,36.65458600745045,99.98882181190426
1860,0.1500584027115366,-0.0991817712022223,1.0074817223399337,-16.108651040355014,-8.765236436277736,5.962841542187471,99.99612029153987
1880,0.17101026863153052,-0.016435160124938075,1.0475920149871263,22.9843869373793,-5.097789636525248,15.220608835719128,99.99106595646738
1900,0.06328347530475432,-0.10326276539446388,0.9893334865709665,-8.262355614003502,-2.3551330009370877,-0.17508296620619207,99.99641106729165
1920,0.041318421414965986,-0.043101597255324975,1.0368894162544184,-1.8823239859860021,17.333156989797075,-10.555739603462056,99.99506326595649
1940,-0.012525864885756317,-0.02098467852565491,0.9727187081906941,3.4350425097020034,9.962139045240356,-7.777436014269437,100.0053829394485
1960,-0.030916442291552618,-0.06746205979906632,0.9107075518398086,-6.638588178386561,-2.3903726991935006,10.639170631738493,100.03069224325759
1980,-0.1631578661786201,0.04971604967912521,0.8882462859311239,17.718521843337207,-11.077851236541079,-1.8950648458109114,100.00056260664151
2000,-0.18533891642259892,0.0009493072412841716,0.8123123877547206,-1.9064791775425953,4.52738820731144,12.159686265744302,100.00907916658244
2020,-0.14305093676665837,0.01943189229223724,0.8890367017928453,-6.291054176204343,-8.389952469522054,14.848425017016385,100.00289695450408
2040,-0.15842525436180754,0.02444424076306259,0.8259522729713079,-11.8117598733822,-2.236125011357058,1.3623666616148582,99.98814166337245
2060,-0.110599764607461,0.06789116020316548,0.8145262238127352,6.513234966804767,-8.084485597200718,-4.563923001348714,100.03250315900874
2080,-0.09038898156771721,-0.010863499644857617,0.8206173492700973,-2.222100070695547,-2.14491651990158,9.957412717611977,100.01295467845705
2100,-0.2024816497333725,0.04155014898212529,0.7515540428462284,-15.853135444306538,14.756966507277129,5.995074112191169,99.98825222806094
2120,-0.30562754280736637,-0.09879108105758837,0.9095131385826417,2.9100007423388248,6.22777574537275,20.53147569758616,100.04926267481481
2140,-0.159595629166643,0.01574751880635056,0.9753411243869295,3.184718174587867,31.273436540301784,15.034906186313457,99.97439987185011
2160,-0.21213647443249792,0.0011935045314747997,0.9455136523818388,4.003884524168559,-11.116994048639855,-22.099646508996013,100.00348745799079
2180,-0.1625175914765749,-0.015370655907797749,1.028763473198312,5.832547489221765,13.800774154337155,-23.464177930476325,99.98539935885354
2200,0.0010640347552056464,0.010658399395131041,0.9568483977676274,-14.008041085914737,-1.5939386346442888,-1.7554094226636128,99.9891795408085
2220,0.023684958067924488,0.10296510973939746,1.100524138956874,-2.1810614971275557,-18.705345729321362,-19.42021885572814,99.96975623125834
2240,-0.005668341761977606,0.04901663783161712,1.098020501499582,-26.471954566461942,-8.115246426860535,9.222448140929696,99.98052506010823
2260,0.043535556913466375,-0.07549363769287842,1.0632317942054925,21.3712700159422,-8.817917854073404,-14.873705159046429,99.99591850475942
2280,0.17399274918534588,-0.006924642558768012,1.1243452719361324,6.17119688032049,14.262291601509109,20.001319661565677,99.98032409492399
2300,0.11603724993000515,-0.08936981014094697,1.167265650327577,3.5165134364431987,-1.02924483943935,-27.167002272632015,100.01316960153667
2320,0.18907531779490555,-0.055578496191706864,1.133208420637857,-13.764959915413586,-12.966742332858823,-18.501900391141636,100.00744484556309
2340,0.27730865797828963,-0.039926671704645256,1.1434497980815819,3.10757427928273,-8.845466805297866,-14.79599533376091,100.0271888736129
2360,0.2767212350678703,0.03785911378178916,1.186901359903842,-20.813156040099166,6.902091841289463,4.204321117897356,100.0182036277094
2380,0.1856219681055627,0.0004315694943908102,1.136689616271426,11.999528435486933,-6.17654131333655,2.6186602214398205,99.98883342292862
2400,0.21136010306754235,-0.013768860129091013,1.0898579754238984,7.372069760192394,7.079115702313318,-32.81155782934054,100.00977244861741
2420,0.22355119404559842,0.014408089984263382,1.0134706970691207,28.67292232215811,-2.6830905321752643,-15.42980791591852,100.01134899271796
2440,0.12804578264278788,-0.035047850171851656,0.9441562080387662,-10.601430097456788,-4.983361395445002,4.323780352858477,99.99837584767529
2460,0.06936276204515807,0.02657287722817918,1.0380107900820295,20.229002402508538,-24.137896062669164,-2.4076460656308747,99.9803984797301
2480,0.013642960429444365,0.00043337300703465153,0.9222197846499016,4.437079450871006,-13.343604879365822,7.4692509077491565,100.01657491040623
2500,-0.05092086018140523,0.11876234109743167,0.8984973455579608,-6.124626779227415,5.9845103758176315,3.5390255713582333,99.99217177988767
2520,-0.03903116641532045,0.02599415405786247,0.8073372300983994,11.374407053873998,-7.439857801542377,-31.79147987705832,99.99562240920831
2540,-0.0826247174052318,0.022031321438927134,0.8851187703018432,-20.471567997177814,5.617651716663248,5.33525684833768,100.00190793525728
2560,-0.22397311283605156,-0.055332435002888085,0.7894986460293292,-4.231039515319694,3.5578110976018866,-6.759204657006041,100.01781738940491
2580,-0.15972202284915052,-0.013963902565471021,0.8362967361153527,3.519549811438294,11.982771085679898,-10.962428167385887,99.95793327044221
2600,-0.17540256470366877,-0.05910578690226566,0.9201366539584481,0.187019176153448,0.14179519918735484,-12.310785996508328,100.00422701106125
2620,-0.2196298197017298,0.04920038204356671,0.8390569316243063,7.172062763129714,22.97227651334882,-3.1261917359980522,100.02592409171223
2640,-0.3328179586276165,-0.05447619305753958,0.8795317577881355,23.395057205295608,4.644626220874487,1.3159957131932103,100.01801856603409
2660,-0.1965401857621894,-0.04205061965125746,0.8621711767910041,9.212002382261247,-2.93739270596607,-3.1353193991840382,100.00890013977579
2680,-0.1117961285509906,-0.0227285510858054,0.9270964317478637,-14.003038485944373,-10.78002434039148,-2.227028332619732,99.99699412111592
2700,-0.14066452474072014,-0.008912002355153223,1.0157434902955773,8.787725541370968,7.218508733499444,-9.779331398389372,99.99782043247535
2720,-0.19329652150634857,0.008666405547995217,0.9175319879252144,-3.635420194057263,-13.028248384866448,-19.400825278162475,99.96509198277892
2740,-0.06845068429790124,-0.06678393386712064,1.0438816527707737,1.9023626027580032,0.568340636470653,7.735499919860249,100.01930177033188
2760,-0.034950875729075154,-0.012680764730817166,1.0525105962602201,-1.99212016792755,12.951782878063558,-7.905795958582653,100.01864914690186
2780,-0.014243213863611284,0.05161659182107995,1.1329976087692788,-6.643003728167551,1.4890369107150845,11.67914467210859,100.02970350378712
2800,-0.07515525280369517,-0.011694156245309692,1.077795136856522,7.991170188110752,-2.9646517041384657,5.214005696643121,100.01984059763251
2820,0.0834984526438018,-0.055773979672656196,1.1438945981430844,14.10577114266048,9.806857865741048,-20.8515921394432,99.96175969999257
2840,0.06255029626079073,-0.0006444777997627907,1.1055215813514305,20.49926423887819,-2.35830275164582,7.67952137980204,100.0105351976927
2860,0.08092636233689027,-0.03587230317177982,1.066828007831156,-3.946395889062893,-6.105234258556232,4.052187006741178,100.00585719223405
2880,0.17600711126824742,0.010451627046694209,1.1863435585598276,-6.8428801047928065,9.557306794983766,-15.8860174816956,99.99951515621207
2900,0.09747453299736612,-0.032290435530475156,1.1675779512151372,2.787990608090758,6.070917611703347,17.80820438326362,100.02647688498801
2920,0.16756534221331248,-0.010906852570376942,1.08742125194121,-28.19383254101574,11.94724583805946,5.04544655582343,99.9960096466687
2940,0.12617802338653433,-0.005362927681446011,1.1411526147581548,-13.13197927763468,9.569267983892633,-6.941950152197023,100.01566337621941
2960,0.16893397199462082,0.035526661892730606,1.067078248736382,-16.967492940912738,-6.392930304191019,-3.6816154081400176,99.97801720875448
2980,0.14582997992858954,-0.007017398889358758,1.1073624112442795,-5.631411433766973,4.997292519239174,-8.59174182700339,100.00665856593643
3000,0.09181594193499966,0.14556445094087642,1.100709362132188,9.842450937189264,-21.71376730675678,3.6818700410354976,99.97292664776447
3020,0.09384845544701621,-0.042984601858605656,0.9408675858463015,-4.085807798807282,4.537108956049831,6.346115627616915,99.99402131762032
3040,-0.014000662777502962,0.031643034390594627,0.9249360538559321,-10.66703781529559,-5.277151436426944,16.940552085418652,99.97317679778467
3060,0.07051674280178853,-0.014620528492089821,0.9444194356745715,13.033519335539127,1.4582080939606985,-19.464295575230732,100.00037286995516
3080,-0.07764244751279975,0.016441378102282068,0.8947871239919473,-0.7300383549213392,9.80448421467111,0.38229047392881044,99.98640144610529
3100,-0.0586691071175491,0.0029273873989412473,0.8019294673630148,-22.879993254028978,-13.925904495005915,5.7077255591607585,99.99159950060559
3120,-0.114511783673626,0.08255721304264836,0.905110582062841,4.227747015092001,5.997944241177601,1.227664879767607,99.99344875145198
3140,-0.27770631580511684,-0.0025880600065304273,0.8662381626982242,-24.58104175906704,-2.7929415500045174,-21.493678919781768,100.03549867591745
3160,-0.1421398528908036,-0.01650626435306461,0.8115000198992276,8.135670863392336,1.1817639529141966,-1.9328899629339247,100.00342564951487
3180,-0.17379569338522663,0.01092190947848222,0.8353990733503863,-3.958612709727867,15.493349589154949,-0.8841862366453694,99.99777520241499
3200,-0.11630749978072003,0.03750755319166768,0.92310366882199,2.5874946775534102,-4.62349950904399,6.748260032258949,100.03012248490718
3220,-0.23077971044651324,0.03640061548928746,1.0014371341243724,-4.0600334309733075,-2.774061609943879,-2.8840800303333087,99.99286001589145
3240,-0.09762782279925036,-0.02213340255666808,0.8408292242963367,1.5647971787994024,15.272460056341544,-19.558499528756467,99.99781197024225
3260,-0.1765762393101717,-0.012575049881695798,0.8872553608710654,-10.49830645493692,-29.856428396346967,9.465494645046311,100.02430577018777
3280,-0.11142390488728861,0.04718985638910367,0.9444844954495712,23.603945097836835,-13.411560871345145,1.7480055150617897,100.0177813119484
3300,-0.0868571387445711,-0.01040594135175392,0.9602534426194508,23.36542895100833,-13.937673921890012,4.2851069396113015,100.0368870152065
3320,-0.02305083562776962,-0.028074374337271408,0.9987524556950242,4.670150590553643,-12.859207583200863,-2.581041539633883,100.01911722644667
3340,-0.010212760179638162,0.0692921120231583,1.021738307244362,21.838593581984235,-3.461712172737801,-9.406620707768429,99.96814160730933
3360,0.0759878665669055,0.03960266888079129,1.0715467679623163,-3.943668521376209,5.803662867985552,-0.008678466123427712,99.99708759864129
3380,0.16069694354911562,0.02073443119065074,1.1743727529065342,20.250015521973644,4.824021410513081,-4.556583775873942,100.01615724481078
3400,0.25581813918777263,0.011734529750719737,1.1516809364378733,-6.403255766015416,-3.0555410777558665,-16.163724844218653,100.0223789052463
3420,0.21738436255418925,0.0778530408696693,1.1924465877077381,12.310286782826276,8.125451649241537,5.710469607409015,100.00261777410894
3440,0.23972416122414353,0.0642175874450545,1.1259007215806676,16.263594169400985,-3.6077604090333,24.33403792803662,99.99610789162762
3460,0.10784428256420475,0.04049459181150705,1.1678748705175659,-12.248862341329586,-15.75975327937422,-2.088800274789828,100.0041283512539
3480,0.14403769758021498,-0.10527121690459876,1.0729829262398438,-15.330967985791684,-16.49277286637726,4.267478359835712,99.9859308339694
3500,0.24393629808652645,-0.016862732859321997,1.0209915741776485,-4.225375047511215,8.974668258297822,4.511753404215749,100.00887915568683
3520,0.12811594545370125,-0.010953996327710989,1.1215812728420615,-8.072774818932855,-8.15716697015958,5.89496101333508,99.99870271144425
3540,0.0536253361065161,-0.12497722861067123,1.1408119800489713,12.342629960681268,2.4030045982657167,-6.238195732256958,99.99526071105349
3560,0.13109602097979967,-0.05067569129352814,1.036488154612151,-8.34074304804086,0.6836354685418513,7.539457610942854,99.98767155229287
3580,0.1488111074847559,0.11010188358412179,0.9584514207636446,9.760021325683997,13.196311093865713,12.16941034498642,100.00423300573054
3600,0.06356737746834903,-0.020763072905263177,0.9165567916003019,8.336471684486167,2.813342086894763,-4.558070086778489,99.96149468433724
3620,-0.05704846391284122,0.055317916375299425,0.9026031764410354,2.089344121697388,-2.4573358521853503,4.334697169758178,100.01867155503577
3640,-0.08239593469815716,-0.04925034260202711,0.8509068113214558,13.469214041789023,-15.026406541056279,-4.77369371578853,99.99338668059507
3660,-0.10906284288564443,-0.007565845473225314,0.8977390881032432,22.167174232752785,3.568831697577768,13.766064162737289,100.02561600916997
3680,-0.10925678217428411,-0.10363711686813928,0.7740767685230875,16.43677512505462,-13.468589337733455,-0.6842604562451655,100.0358951314715
3700,-0.12723822337267815,-0.007528009772679836,0.905326016226864,-7.957207926691758,-20.880652185338196,-1.088987185433205,100.00683001961715
3720,-0.2371720250836022,0.07561125555553462,0.8505665966327862,-6.8683212673928455,3.7802239816841263,4.551008142601164,100.01276610854585
3740,-0.15466833190834142,-0.044527246927052344,0.883423690786087,-2.318301072979127,4.302911730369127,3.175390245460954,99.99708869225559
3760,-0.2535089847508567,0.030884083944381538,0.9042739167564162,9.592159951934203,-8.281807248287105,-17.607441642539776,99.96767927297421
3780,-0.24899059839446888,0.0249248879460508,1.0152821357774025,-7.776528519210486,-4.557513828557056,-9.636476953417214,100.0044509986141
3800,-0.20235282782708378,-0.01815369700570775,0.8937540894109279,17.234000017337742,-3.9385132542260317,-17.950103234087514,100.01101595251374
3820,-0.06976552917292733,0.039500001029957287,0.9299146320005219,4.52118855063189,0.48836134095617184,1.024688019991765,99.99903822500974
3840,-0.14772487505629278,-0.04880603851224678,0.9832033538139618,1.54029617364115,-20.847865111346866,18.788427228716564,100.0324620352709
3860,-0.06929187717162825,0.01660475222315283,1.0389404165434042,25.775340829071435,-10.835618798097656,10.240867851230888,100.00697208902886
3880,-0.03727823715497082,0.010995679030383424,1.1124112279298997,5.093834163000975,5.090518401987551,7.014527857561989,99.98692346283781
3900,0.11698764046747757,-0.06202147057869828,1.0579986215617188,-5.666250514320145,5.8525672484058395,-4.559649849699827,99.99353649539232
3920,0.030600937343234054,-0.07472762091941748,1.1096203427613294,-13.245453858606655,2.826524333067048,-0.7971503074421825,99.98787392402123
3940,0.06352659443198311,-0.02305437193900126,1.2622333769221277,0.6304622774475981,-35.03102918622762,4.009193963054689,100.00311423532145
3960,0.11343014290912604,-0.07654727136444141,1.0659727172584788,23.69782912425955,0.40932263089481985,20.07043376906177,99.98339576262944
3980,0.15217697294028765,0.00015058516065084317,1.1793780025785066,-5.783036987309308,-10.673342677290918,-5.112935918762091,99.9800118286421
4000,0.1999626685775933,-0.03559847209559027,1.1013851984151666,7.064589446868763,-6.273983564795263,1.1693721397923176,100.04759893161734
4019,0.19300035262640852,0.01810388120244027,1.2055775235979167,-21.059500299589093,-11.822623101772521,15.540442414673862,100.01241661309648
4040,0.07478310433615254,0.05651438275459369,1.2328417819276305,3.1997275307013173,-6.107724965009677,-7.850380081752968,99.97461741963774
4059,0.12679197521843422,0.13381349338221285,1.1180769844137288,-3.5483840560019124,-4.990848128127876,-16.227278188045645,100.00461104381453
4080,0.2126697901222261,0.07997412184371067,1.1454020037829111,1.577013125604653,3.2267227826212626,-6.3374217524712115,99.97485069651401
4100,0.12163063790564795,-0.028564224822488257,1.0130623003979968,-5.032365209389561,9.299786123495368,30.578625177326813,99.98892806021651
4120,0.09238920977117876,0.016605895831782413,0.9672120739133465,-5.361202503276559,-10.732728094761322,-12.511332471964893,100.01397894876243
4140,0.04031543763125209,0.015567040572880546,1.0792159742780456,-4.513586435930639,23.023008554712277,11.039219611514671,99.98871086747633
4160,-0.0014815440429565008,0.030195572524792193,0.9371720099838209,-9.18539731994475,14.846364966384854,3.4382742535947712,99.986561627542
4180,0.0005226600242402707,-0.040430673741082716,0.965104797446407,-5.26091087613495,19.206773426276058,10.639257969547858,100.0483954752935
4200,-0.11941229655599277,-0.006029607283132264,0.8764927010806148,20.642820725565677,-10.17483345029152,-2.3451347934638433,100.01886215347346
4220,-0.12628587761889548,0.011460148041617126,0.924553755646525,12.848717688678441,-29.720146805832268,-9.923650162024472,99.9814381249078
4240,-0.15974468893005173,-0.0782438154562212,0.8122155160282077,1.278621485397629,-2.995035357234473,4.618745690112643,99.97941905827703
4260,-0.1934183598724192,-0.0009430357664959625,0.8773275604325578,-4.350767408768418,-2.4429927140821874,-7.489386362187544,99.99699969768524
4280,-0.19040871973581847,0.07136271855901356,0.8805154148343155,-5.100858921222498,17.80623764419635,18.365490799799552,99.99875986815341
4300,-0.11167592920037311,0.04647954021579761,0.9395893356266091,4.744109363955173,-10.763401969292095,-7.994815072666921,100.01589727105465
4320,-0.14787182514005287,0.08613352660962098,0.8726496203656581,-10.393159268715415,-12.054478862442632,6.230542672789417,99.99330816992324
4340,-0.24791656189473993,-0.11261242521013909,0.9012604507419156,-10.466374812203815,-4.149654864849495,22.942627205155752,99.9965356057741
4360,-0.2671441771636263,-0.048572018011558526,0.9056780614698828,-17.504733395114137,11.583962921531363,-5.707071367564415,100.00659671262983
4380,-0.18956590868090864,-0.0832511575670674,0.9773874521594841,6.753636110882821,-19.358488684969707,-7.612927045977367,100.0242424542297
4400,-0.01429112276850697,0.021108944665304625,0.9746094564330724,-20.769294696877736,-28.23917236244673,1.1046101443495946,100.00942003527263
4420,-0.08381846756990236,-0.06010081472644066,1.034751478633803,-4.968383964440397,19.02902751281569,-14.141401904130019,99.99757210653468
4440,0.07614553683661728,-0.024214345127615656,1.008909007158052,-3.8835089821114472,-0.011838210919196764,-4.484427820081977,100.02012964654679
4460,0.014926449308809875,0.06666011492521155,1.049618124877543,-3.4617064297573257,5.24394160702488,10.019471918387714,99.98954299505202
4480,0.11493794012553929,0.01585336480680534,1.1381923351364944,-19.957092615426646,-3.5126358016031807,-5.688391259918339,100.04632523751002
4500,0.12606900216800307,0.004352013375025127,1.1393516011629612,-3.9776771605914227,9.541579545196836,4.290696350282834,99.98300780139819
4520,0.11212562711135934,0.01636245556691467,1.1101672105848828,11.563890837618894,12.283852615018109,-13.871531634386518,99.99673864492995
4540,0.10656114438605227,0.002601865761996156,1.1316121590400525,-11.995017760524034,14.48844322906995,-6.817283554806345,100.02759092271918
4560,0.1914380785311181,0.09079610171796115,1.1139097190977958,19.177311760291822,-11.168575440115136,6.635132025471037,99.99521780042335
4580,0.16256580300350937,-0.04154698334761315,1.172523888155279,-6.136528636757823,-14.162736742997325,16.213404336559964,99.98332691430497
4600,0.1950126209937909,0.02193313308550149,1.0541248673599128,4.417690475064881,30.331348061231484,-5.387399758989458,100.02181546732098
4620,0.10995425929047284,0.044574478145134794,1.2444866455151216,-12.518563612195322,-1.9069036359843474,-1.279093209130529,100.00558842695332
4640,0.13680063335065062,0.01807212697737998,1.0394992307978803,-9.798799340885179,-11.490623826031472,-7.776411794249794,99.98801489385365
4660,0.18378523208922323,0.014259661742435502,0.9534317542345213,-2.7192266780794947,-20.969284075675375,4.3172011247500945,100.01903211859604
4680,0.13471790507646597,0.007898121254764414,1.0393479101029366,11.470577339011381,-14.447059326846711,5.789896335445694,100.02428751708841
4700,0.0011972648000889707,0.0255207878870853,0.9820283100292083,4.351394320622537,25.501273778087658,1.5542765164815684,100.0087169103785
4720,-0.030514334356590483,-0.02106985060201152,0.949115672088845,1.967391708574548,4.067369326845435,-0.2890910314227339,99.98694758628838
4740,-0.053798672615997536,-0.009970172268481922,0.90390444526008,-4.290175034000752,-18.747070225103716,10.737582571188383,99.99921109835068
4760,-0.1641264591246439,-0.11764750116144063,0.934087938546563,-5.152623409125557,-3.3045673138646334,-4.766588993325354,100.00821484673354
4780,-0.049246503191341134,-0.013676954221768706,0.8459597323329948,-32.08479349828767,-6.567460386320219,8.246425169762535,99.96481199858086
4800,-0.0729931468661961,0.02397549613154722,0.8658416882084302,-0.8356912886471117,3.746541337026592,-5.169915222315916,99.98897281120698
4820,-0.22038281824507203,0.051722182067920314,0.9023592388931118,14.399301588903484,-14.978252568879508,3.892326641646423,99.95921814747732
4840,-0.2519072668892795,0.02392702879234518,0.8275502634586126,13.743562393961586,4.068368624387315,-2.164455202559306,100.04613035217417
4860,-0.22690069240040833,0.12417554978249559,0.829985162038548,0.6004837922298226,-24.713316926459964,-18.152222322249845,100.05003051469764
4880,-0.14524850849836304,-0.004000210684450001,0.9968768149915694,-1.2510658666190377,13.596227795779306,-9.772242334814745,99.99370978774394
4900,-0.09634544568803353,-0.01970483685707024,0.9187789971545898,-24.086923049288174,-8.99349998704911,0.1912955259329021,100.03017866873702
4920,-0.17018004868131598,-0.10614233548483797,1.0034294603721772,-19.146721816736648,-13.591405420916274,12.66388253991113,100.01424077176867
4940,-0.16510461676557492,0.01862507204380244,0.9426321771349242,6.959863753968978,14.57055447984347,9.439279368173231,100.02072787464503
4960,-0.1341820248759921,0.05486761574854511,1.0033147966474023,-0.35531610222128773,-7.708836158814503,6.675921088102632,100.00727247993119
4980,-0.009141092101657311,-0.02645067289043594,1.0703710452144495,-1.4568601770192995,-8.206448434818052,-2.087472375587101,100.00626795244773
5000,-0.014231068020645197,-0.08693262066132058,0.9937140354680762,-18.879601963369822,6.365390738630375,-2.832367394297357,99.99836589530413
5020,0.058700674532365396,0.06484017141286255,1.1264830100479923,3.3495775537164802,4.001936518151487,10.089773015629929,99.99104079760103
5040,0.10829785924313644,-0.012288862988783544,1.0825197578022645,21.58714541452244,1.1775120466829732,-0.4409808935769299,99.99078140837305
5060,0.1599011849895423,0.0634133838292231,1.061249615248151,10.287840624177498,3.540857784970423,-0.08140103715248388,99.98454904132277
5080,0.17788992332510462,0.013122127074775551,1.203626474578782,-0.5237937803376506,-8.680079178969226,11.782776288901944,100.0290669315925
5100,0.2258631834856676,-0.10427838184584091,1.17298607131419,-2.6312885624817026,5.419452356620768,0.3905687935450539,100.00905563501027
5120,0.19151108975694345,0.14127478365765025,1.1315604389268317,6.015755648434361,2.1142531103726188,-12.046834233024375,100.03670405869764
5140,0.2611814284239705,-0.04299499625820527,1.1482427116570224,-5.48010503525198,-7.958470839406974,0.8304439695619628,100.01325173956891
5160,0.19171794056024685,0.004999693844833408,1.1196159636356267,2.9989358836535387,10.28928635484616,3.808491599008061,99.95423389399609
5180,0.13308793124015056,0.005002625496978153,1.1832880550750267,24.614018215718186,25.18842120699069,-2.8012708707922487,99.96760885062665
5200,0.1154387579035589,-0.029221071026273707,1.1678214762334622,-8.277204054838256,1.644859121300644,13.126465409452301,100.01574534371693
5220,0.08464567835601014,-0.05931204101844772,1.0348667154252744,15.990765101591496,-1.5784273418469894,-4.555017178352559,99.9989708611795
5240,0.10487008394630064,0.026134857477630415,0.9911018646037261,-2.407009218070155,0.7742463046343357,24.335481226634506,100.0036422692295
5260,-0.025146103476133427,0.09114574954898293,0.8772498962796377,-8.069154177134568,1.1323175494311526,19.306837172878666,100.03526282787296
5280,-0.0044488792888331095,0.04355594806692283,0.8480099200585163,6.048181844301956,16.239554503672185,-4.701026875667749,100.00914105140211
5300,-0.03110664844558458,-0.04535751614098358,0.8937098682346143,3.8649251798560202,6.716285077413032,-11.25317989879731,100.01386177918653
5320,-0.13433582217045043,-0.037587743874778395,0.8863284667028473,-9.363447058080451,-13.176644670793063,22.27931922990143,100.00896291570339
5340,-0.1704271708690212,-0.06545769502421332,0.819309417809097,-4.742029271421133,-2.7166735039436753,19.251431500895986,100.00541281209874
5360,-0.20642227782859343,0.016398982163406947,0.8705035649661976,-2.5654608363646325,20.074982989341173,-14.358353865299392,100.00574152796024
5380,-0.17469033907323658,0.03117951433912068,0.8684452702377129,-12.60438852618136,0.9146058919731266,-21.905633418860226,100.01683540500558
5400,-0.10573967350581057,0.043373115669258167,0.8566051281997866,-1.6008262313700197,19.243544794970845,8.974060737052248,99.98669118385895
5420,-0.19826077170105857,0.07975426744310664,0.9338471690352972,-3.7254289885098193,-1.0146784913474138,-4.801259256778668,99.97102304566722
5440,-0.2797067309929254,0.007533137326123121,0.8607952851330682,-4.479310287247253,-13.05524775247623,4.481512145160693,99.99938593900279
5460,-0.16855973151635556,0.05238332369636092,0.9587438532234305,-14.578470297875045,-5.933484293572004,17.042927066253437,100.01568300755736
5480,-0.14036468496385351,-0.10393613152056323,0.9709191137957816,-10.345342605335473,8.240074929285285,-4.52227461338887,99.9829934159212
5500,-0.12913818642294667,-0.07657094806859283,0.985349807181326,-12.429146546458188,-12.081565815821634,12.386431800526914,99.98811341727684
5520,-0.03397023877061093,-0.003292034230133592,1.0238917954568871,-16.89920887503964,-14.383151761874437,-6.2278570668357585,100.01971446059056
5540,-0.05236322910905351,-0.0772134251467148,1.1326461466550475,-2.4665270224505162,-9.120220053881548,31.37883928682968,99.9989617163547
5560,-0.04221151625766996,-0.0012837791409506024,1.111113151134865,33.51402330489343,-3.9025231523505663,3.0902601854930047,99.99653570907334
5580,0.13175077912727207,0.0137339050091334,1.0637998121788586,19.837445414129732,17.045777399394332,22.95803315092632,100.01613610107945
5600,0.0841533362165063,-0.06757846988052833,1.200724534504803,-10.866207840187927,-16.290259540420067,17.914331289329162,99.98985565629694
5620,0.18874366253631275,-0.0001523307842595521,1.1916884072802427,1.7331907120062662,20.95109208455547,-1.2091451830872044,99.9855238916214
5640,0.1634004668311125,0.025611372197427713,1.1300083177464604,10.0603537393729,4.7737706341112816,17.749600953252298,100.06612582004715
5660,0.22239102578250955,0.01618658935606728,1.1107157412225601,-5.767360773503039,-18.496897310224522,13.65364723539735,100.02307712537954
5680,0.21377208772497805,0.09996443451629651,1.2316130732274164,-15.784251593032536,1.3924725829543096,-10.854165530453422,99.97855408272592
5700,0.26859180658154713,-0.050970844008259034,1.2173342763196173,2.3321820377842544,-16.78852607713822,15.39825343760332,99.9855632472117
5720,0.1050592381415068,-0.041859106088542264,1.0998726043121116,-15.861202714509602,18.55850138665354,6.435009728587529,99.9874407570237
5740,0.16751798071893872,-0.02061748512350957,1.0569902626105168,17.029997713959393,1.2719821122800004,-11.972179666720765,100.00163007192894
5760,0.14994439485073857,0.018343378141897217,0.9927046601214997,-11.352584323017886,1.3880918934539301,-17.308771510972637,100.00891777732457
5780,0.15385558163729066,-0.010777779569358931,1.069927823069499,15.528213682740521,-8.894097568588194,9.47217105544846,99.99181397824364
5800,0.0877657048433986,0.04618095624171618,0.8872842299110217,15.454931052365371,-17.282558672724505,-10.418130731648882,100.00207425275961
5820,0.05755336632090222,0.01642952497344503,0.9507911436055897,-6.474030966525428,13.33092054720069,7.947086456874008,99.97370585235929
5840,-0.055222469962704704,-0.013210423370774538,0.9356610901990915,-19.4490550665413,-6.9492085497288105,-5.088887729681375,99.99416514441542
5860,-0.04529476344328491,-0.043197987202804766,0.8653756671507268,-7.862598169583288,-4.233237597512097,3.3743131218938993,99.99522535527322
5880,-0.09079420316691693,-0.035400804773643345,0.9140969229834048,2.729129454810223,-17.632532519304327,12.869059022660263,100.01733476029078
5900,-0.1132641303556854,0.012493111951889261,0.9228387230886863,12.113719486232878,10.178252906946925,3.8242520358158583,100.01719226726344
5920,-0.20969197320247787,0.02241905573505617,0.7294583969290415,-10.034620546036471,-1.585657273019165,-8.290204337738373,100.00922040523928
5940,-0.21659028261384522,-0.02651021504291963,0.8656219074589547,23.866334347681295,-16.895531535494523,12.233056741962843,100.0210512451939
5960,-0.15720455189000215,0.033966164399135114,0.815031550565383,9.460807127958677,22.05268774716726,2.3578916317885694,99.9727520110063
5980,-0.052060436662048876,0.06764990328886157,0.8976033145322659,3.029464842955647,5.830223469837064,12.682202510831301,100.03251126649401
6000,-0.19602021466081884,-0.012858885995891314,0.8496092399499001,21.944764193492972,9.316227985788098,-26.504399672505556,100.0170743079553
6020,-0.16234694607950745,-0.07295492127594315,0.9216041448051056,5.144975260149803,6.409295665499528,1.3724174652829173,100.00384042854157
6040,-0.1916818619857144,0.0029062024186314174,0.9085814186412713,-5.175397898206819,6.701816066082031,5.357313296375031,99.95408181124554
6060,-0.09248310585959861,-0.03350476797562823,0.9371007519341412,4.991345533467537,23.703096128447182,-4.492498949032268,100.01981510533666
6080,-0.07477140037601643,-0.009615977065552263,0.9763332030336124,0.6915330524029073,-12.832908262138147,-1.0469727181517616,99.9751498160876
6100,0.012767962535674068,0.0024144193627455264,1.0181539966606363,-5.886014561725727,-0.1949538889274,2.7884883856176605,100.01917590520851
6120,0.08712820711284115,-0.1259466835539936,1.1619711879737584,11.579668759893485,13.497833854661428,-23.743728582611823,100.01178906633976
6140,0.14638511781739094,-0.02617783190370017,1.1256217533446813,3.153312876914087,-16.872626705764933,-18.94474940697201,100.00879559550185
6160,0.1261183057932987,-0.05549935377804754,1.1969836653969104,-1.284225516657036,4.241836373677005,1.9703145621476985,99.98373009032142
6180,0.10899313391376425,0.010754172243762693,1.186284904685429,-6.08781691983096,-15.337176368165057,-8.777652030409202,99.97030434122875
6200,0.157663380356604,0.009119107535287274,1.1115455994462726,-3.031459660445149,-17.66507485503184,-15.020473377839304,99.99274869702192
6220,0.18535369895161677,-0.037790663999846534,1.2454510781373802,-1.3310819570274173,3.327798145806126,-7.454369664451134,100.01661683103515
6240,0.2234279193972807,0.03326540246653745,1.0189993934603123,0.35176689855099097,10.908859938417796,6.237285117280354,100.00165607374052
6260,0.22154662063408126,0.06999936137087087,1.0995411166387943,4.412026798368718,-11.782603898602105,2.6273381681138055,100.03967627464326
6280,0.21316452285180548,-0.012971407911354444,1.1221219931353403,-9.141217626321929,1.8202123435783224,23.680644529561903,100.02093247166682
6300,0.10913364157845064,-0.10793668625738706,1.0637755157443922,-5.533615779831024,11.90343340456084,-7.000342324833823,100.04019172730618
6320,0.2555542886560177,-0.10398262712228763,1.0833990483627312,0.4555961979903828,-6.241031192028965,-26.890213275408307,99.9567809288853
6340,0.07009877286387778,-0.055363688497740905,0.9710491140397626,-7.694299487623064,8.045894180443074,8.258192711410663,100.01806296090004
6360,0.055725519921224445,0.05975617449246223,0.9633489849274659,-0.3553890433904471,-6.056918441029092,13.68841887941331,99.99154747332463
6380,-0.07087048299847229,0.03393891243801082,0.9702853193434254,-3.014070619784146,12.177041813112861,16.689237201714388,99.99279126122602
6400,-0.060762849440119095,0.09840607560242844,0.8594499685232158,11.612239895118002,-9.534105986362842,-0.22946032366084881,99.9655052648677
6420,-0.06331052987210295,-0.008051259930155038,0.9547534982176775,-9.473545726790162,11.232600158116762,-22.71050513532488,99.98261218366339
6440,-0.1810895253923382,-0.04679054486009848,0.8831356204600841,4.5339032287243155,-9.585617746525129,-17.32483700203196,100.00374582258202
6460,-0.13782877593150986,-0.04805575499395118,0.8440126646994195,-12.21356324152722,-6.716859243863599,-0.7616762996788747,100.0188035698319
6480,-0.21583372556684446,-0.03172120369537659,0.8307180990632685,-8.022603025980386,10.17864621701895,11.969234862567179,99.96210694373158
6500,-0.14605146866742819,0.024723700189916677,0.8443655535061454,9.13495189464037,12.410128820691037,-13.410900593362516,99.98365640153933
6520,-0.24247378857618157,-0.01897314871675598,0.8944353620516594,-16.342305548502797,4.540839966308129,28.411552666377066,99.99132794368934
6540,-0.22519177327221057,0.0012426508045586156,0.8133826204811351,-9.558382378900909,17.37880672599282,9.987134341762935,99.99679778927836
6560,-0.14736449652691197,-0.045554586393898325,0.9693746310067536,-0.09619844220664633,-17.001300292668155,2.5187626248602357,99.97129678437639
6580,-0.12866418941389163,-0.01591605540966166,0.9333215342396158,-1.600967072220575,-4.83611077447387,19.44753595087333,100.00643920478869
6600,-0.1536035905291144,-0.02921858867216162,1.029231482803477,-13.553334653630849,21.68491423577689,-3.3894068613524113,100.03971915602088
6620,-0.12283028252420884,0.04207796662410049,1.0482289441707413,16.35211529008711,-3.7901883422580065,-4.479433667582852,99.980842102052
6640,0.03584732087338009,0.001051435468776818,1.072651099376183,1.0904737444886328,-0.5344779057529951,-20.836575597619877,99.98286433782222
6660,-0.04491590626197882,0.013828002413017786,1.0638506951724553,-16.79721156674988,34.198704536910064,6.086437120528079,99.99702521615869
6680,0.08081856686412316,0.032189898054577115,1.0891483450061643,3.2325603914585956,8.344076567109784,25.059752476135458,100.01571947041695
6700,0.07867606696964986,-0.0991799299545335,1.0778488990601163,-4.356026794505549,-2.0368705033904173,-5.509825633939332,100.01861113975613
6720,0.15314348360894692,0.07475108773153553,1.1254600078723471,-0.6148504939762477,18.126359623790744,0.3146747337130143,99.97437814030812
6740,0.048047921884523295,0.017908856962673997,1.137365244431527,7.313636637884595,-16.18363487904432,11.145598862713785,99.99841893707179
6760,0.18750745250057876,-0.014578382699058787,1.1612077182506229,20.29025700424238,9.841794895247642,-22.675741260135975,100.02242727339402
6780,0.22547700099678583,-0.03169709082172404,1.1777870863138733,-3.8711518811619534,-24.36963631083188,-15.933484566568218,100.00590388423198
6800,0.16681185756807587,-0.005885435536703218,1.1428411406718713,8.58493859421068,12.065517844018988,-20.825042493825368,99.99158073928432
6820,0.26186974111628336,-0.018983812580444726,1.191844064339889,-5.621815190443605,-1.3613285099388006,-10.261391275177559,99.98441986925472
6840,0.1800428081178417,0.0010313262566590514,1.0942935377402312,-11.599807865855533,2.59090006630686,-16.1148377928135,100.00477713639022
6860,0.19844487180674708,-0.09634270974486342,0.9846695404514155,16.35548004408051,-8.307197667682914,-5.06592962756003,99.99988069425072
6880,0.15153466756410333,0.0123202855535625,1.0049992236822063,5.249365459019177,14.054530964302968,16.03824185708874,99.98878204092773
6900,0.14096694884516858,-0.01175777470527426,1.0304288474528271,-12.502652729276914,-14.68816155741581,6.934653386113484,99.99289986883765
6920,0.10880331225315741,-0.08224968020310977,0.9539382612698051,-17.183653636462576,-12.08430451383284,10.474599917882186,100.02468470445058
6940,0.06817016997424827,0.025548261205320902,0.8525025009657148,0.633326168093119,10.651840038113336,10.961865583471033,99.97468054294625
6960,-0.08893875334810096,-0.03082204389361067,0.9910093079086836,-6.070908759710431,13.958634328091193,-9.593052043241237,99.94610621726451
6980,-0.030461372432332774,-0.16248034140580908,0.8917732017193518,-11.246898065319478,16.551684880848647,-10.115700885904264,100.0019556641836
7000,-0.06420927377626785,0.07699491056799519,0.8729209156769403,24.790156860837254,1.9694957706223528,-7.180298805235498,100.0247608778804
7020,-0.040627491597664586,-0.05059880577546704,0.8486837205557418,23.214397156210694,-5.934409069273625,5.3228747904641365,100.01509558533193
7040,-0.15014639203298535,0.027919219520023998,0.7813747742263455,6.831794798040029,5.885626700679319,2.800709200656008,99.99701020589163
7060,-0.2211336876328096,-0.016813644719892086,0.8037960327622038,1.0962634885417235,2.0416739053554647,-6.613259847246723,100.02001818411699
7080,-0.15270654320840618,0.06225899310684751,0.8928080297644179,1.1887190443194813,6.524378265218761,-7.999947699170882,99.98219282521687
7100,-0.2041384759751851,-0.06565434154374761,0.8450765853137712,3.468296120212851,-16.77361706676297,0.7946457353719165,99.98873178970673
7120,-0.18617383807617396,0.019956269315895097,0.9387419357783985,-9.032849938756573,-9.265476116392811,10.28182969425519,99.98528384839162
7140,-0.2035571548214307,-0.03319660562243353,0.9406921959886777,-7.559178992300572,-6.384900536901911,16.347650415781725,100.00043073652448
7160,-0.04834529116964076,-0.02229589248006716,0.9164613074064508,-18.53351364498963,-13.433973458192693,-9.049230002070935,99.96998528872234
7180,-0.15472051362473876,0.09723165376137782,1.0802781280698504,6.133188094528887,13.25062956293494,-1.797218205958863,100.01002664972512
7200,0.05494060795381206,-3.2381111409683206e-06,1.0471209815379512,0.7156542514397058,13.294622025320297,7.360379530597285,100.03792304116767
7220,-0.03269529286841572,0.02980581152713138,1.0098852355691406,-14.950525044923928,-23.20063864400554,2.727253751271183,100.02259635634044
7240,0.041178383700312154,0.0447466919818676,1.1358052249583868,-1.8802003820049158,-38.59798250110692,6.396387036624695,100.00716765439189
7260,0.08088418806019215,-0.07418979608343847,1.1288411072914413,11.22703121576518,-9.673189982638265,11.919718341829398,99.96529828140129
7280,0.12964408939291894,-7.019822100699478e-05,1.0528545868519985,-4.564536821922677,-7.048654722823185,-0.4780587059116834,99.95750451515022
7300,0.1189056539083324,-0.019638426058958748,1.199979588971464,2.0478401825110177,-2.8705142108481736,4.0655290387587595,99.98478916754271
7320,0.21479636215001435,0.014232636307678213,1.2242798947378546,-6.499978765726215,-8.72598797478411,9.082371313881424,100.02299305256557
7340,0.21750829761824025,-0.04694456922444338,1.0963559158268812,1.3394813015204081,0.8552400842450865,-14.182525624134769,99.99770646498327
7360,0.17233470574340348,0.0561970625620851,1.1190991924164182,7.858438412650489,5.779917275958982,3.7209953804376514,100.02823414123459
7380,0.19440587514531793,0.13814301993043873,1.0857085068147276,6.907830843884644,-12.044350249870277,-4.1110591540898005,99.97108385291904
7400,0.19421930694180412,-0.02198722260783753,1.109984808324007,13.659162697786833,24.981843544045937,-9.731977048057164,100.00269877359115
7420,0.17494489198112367,-0.031834036180567654,1.147213345046427,1.653842789413388,-7.45424863922919,-23.794975977268063,99.98271616016144
7440,0.1027614953195639,-0.012725262267163287,1.1369451282817802,-0.17091417573587933,-1.426581381798155,26.139020629294208,100.00807620698724
7460,0.09463136180215635,0.06968013574356297,1.054825482321708,-9.698948265810948,11.366253807892466,-25.973517470521216,100.02081231513172
7480,0.03269266089432722,-0.07696549369513149,0.9878742969057603,10.220833832887902,-2.6584608748551877,-30.39288879179116,100.04898572959924
7500,0.09412149713185525,-0.05381559131105317,0.8104770283250404,11.249575129355264,18.428421302548866,2.936926719707687,99.98277153208358
7520,0.020009436974293596,0.00798835610392195,0.8593788788467648,-10.630225629535436,15.296387728388432,-6.312802718198315,100.00885549759033
7540,-0.09077033948685789,0.05183373635649399,0.8921196540984657,-2.220272917542159,-0.8121144663761082,-23.322643969930045,99.99297112343667
7560,-0.051013282571567994,-0.009947780563689966,0.8801896486956777,-21.91981068618795,-10.73250984505924,-28.54361795521001,99.98315561600195
7580,-0.19987491431809487,0.012064759385658404,0.757268447571501,-14.491856775261269,-11.387623001676229,10.804904888253354,100.02250683977907
7600,-0.1982200103149908,0.06328721312835586,0.8737641972893256,-26.017849038349432,-6.996261689016823,4.096083956217412,100.00325626254616
7620,-0.2326834204532426,-0.079661492640858,0.9312294953812165,-3.927086220188655,-20.35877544358112,3.413133285911598,100.00962266699007
7640,-0.20342891087745615,-0.06027646614472883,0.7674952686859888,11.037654712135263,-8.874957934824025,20.49538608238474,100.00168520988977
7660,-0.1492727765137411,-0.0076886505361236385,0.8612998384613005,11.53623202299251,-17.695714256251694,0.5110404459019218,99.9673771969664
7680,-0.19092028036607453,0.09095281963033008,0.8453713996156477,-14.722650623338286,-19.027223826438867,-10.33563330822337,99.98923589458597
7700,-0.16675882265712855,-0.03133634217139663,1.0054607263889352,-0.9103637113116381,-9.590032875621558,-3.009915592217504,99.9789487902586
7720,-0.20049931706334806,0.018762040527920062,1.0536759138485445,20.85624613522829,-20.984563014256263,-5.940666241000734,99.97834286043054
7740,-0.2411734875264838,-0.015573452106320322,1.108308517018892,0.7375590773789477,25.768270708106115,-19.036440675398488,99.96899341399761
7760,-0.019387733072166922,-0.06672620131962674,1.0136640972678064,-3.6858673313387067,21.531580170910974,7.47977021315476,99.98526413473287
7780,0.07793130802795098,-0.04375934728483636,1.0310085743013297,7.587568501197094,1.8396250302259651,-6.042280028771393,99.996071699142
7800,0.07070319409637349,0.0024475209458397025,1.0178809653940268,-1.5490522945431322,-0.9003209365444133,-17.082637519541027,99.99277665265919
7820,0.09359398985486744,0.043342829593670675,1.1748312160634067,-16.362317439433752,-0.3136746003399655,2.3892293647819383,99.99802186945944
7840,0.19415164398903934,-0.11096867061719876,1.1345638610662863,5.1346153280636955,14.17263484232842,33.75304080925459,99.98044487914314
7860,0.25589891414266064,-0.04506293869125819,1.2123492562559253,4.490067503221246,9.944073833879116,-15.949042583163763,99.9988299156185
7880,0.23130232038026943,0.044840062321886594,1.2411727632365024,9.322349126789788,-3.083183641524456,5.71060718045191,100.00302790750644
7900,0.22194564664966715,0.0882022183770512,1.1541294045016732,8.454670793366645,7.60352230202821,-4.661469359200833,100.01185443276047
7920,0.18787682212928875,-0.04144449335497352,1.1322469611865593,-8.947047381599665,-10.074499711836538,1.1824376987172749,99.99768996883844
7940,0.16414433305997064,0.020813364695666872,1.1837569956543412,-0.2937422881098655,-9.98728456668927,5.2086746918431714,100.00247019127593
7960,0.20868302185701823,-0.04706561160421962,1.1287684322654723,-14.481381810386424,-2.9487160547634907,1.7975099742442535,100.02328080542188
7980,0.0849204096487837,-0.020271932298819705,1.0750614842289141,-1.6968164500499179,-0.10438495990129237,-5.997405051067826,99.98841543544853
