timestamp_ms,acc_x,acc_y,acc_z,gyro_x,gyro_y,gyro_z,baro_m
0,0.005030293864062619,0.14511112774876783,1.0652703818941414,-8.533279944729397,-2.178329703202231,-6.931362499863363,99.99782709848692
20,0.08989630910968645,-0.01747803294594388,1.1766411896538427,-1.8845335697297183,12.277728171157165,-7.535446464530426,100.00718021782912
40,0.10750477025392567,-0.07228823564404482,1.1502311320096406,-6.26964019521299,23.578657436582244,-24.08972806864619,100.01412774318995
60,0.1390481085863948,0.014183175185751067,1.0821904609400717,-7.6261687152345505,9.941820228369343,-6.1902509996444826,100.00356701727385
80,0.13611619329541758,0.011522450004451285,1.140164091327922,-5.892572738242056,-21.02283937348724,-22.96952818939549,100.01276024514902
100,0.20473870690689758,0.058279922920068505,1.0599383180117847,13.732144103018602,19.81517603941719,3.4970700959140997,99.98631645371549
120,0.19040959660623902,0.0272939837133583,1.0475292453253515,-8.648142831555568,-18.4922940201636,-2.2610196034347156,99.99967335842454
140,0.1894534729257119,0.024920724914537375,1.1015366611074746,3.080787224505431,-22.79050461454998,5.497686426779804,99.99707401674203
160,0.13911203494610053,0.007316304585111973,1.1080257358993906,-5.542816736930991,16.864361990684017,6.282105838567073,99.98971561693945
180,0.18101947042582464,-0.06358886012596608,1.0190400844465493,8.622466561008958,-2.596903450954621,-6.92672966307188,99.9978167222249
200,0.24041155879407206,0.06418291754099771,1.1903916190232926,-10.35748569270603,16.021788928139063,6.994758825687484,100.01197114945501
220,0.06499054474860501,0.0132349730134714,1.03445809467219,0.33767089103583975,-1.6877318445679057,-1.96161780777372,99.98383244374351
240,0.04905776022443437,0.03143375928678639,0.9422276183649346,12.172055588947686,15.864664339807213,18.251590556542546,100.00062606582732
260,0.049502045892422984,-0.024613750912314505,1.0566431185644907,-20.88493474355632,2.685837493880002,-21.125223321339632,99.99615577309254
280,-0.0025720885437984704,-0.032307377219115,0.935038131575664,-1.938753041802074,6.5433518352502915,-3.345524455541966,100.02314599503576
300,-0.072575614824303,-0.06688328506523121,0.8845942111766671,-1.7546740765440583,5.314693289811871,15.677747412614575,100.02570906137261
320,-0.11653083680019256,-0.028981829022751718,0.8961772334115478,-4.398924905702273,9.045721796161002,-13.193736521584288,99.98762757867983
340,-0.1313848555152035,-0.08770522603164671,0.9425597207625347,-7.983807719635216,11.173451578941599,8.423309188478699,100.0211673748356
360,-0.18319997644926614,0.009831749210916046,0.9688179760555509,-5.359077253404733,9.012362002264522,-8.791672977304891,100.011188309275
380,-0.27643017418525817,0.1060400682677357,0.9103440966158779,-8.476097225702334,13.475051638866724,-9.686765735125451,99.98562293939085
400,-0.17026920234840562,0.036148099125431765,0.8750128238558494,-7.806254843262186,-3.7508727580541565,5.106065647575825,100.00434380661933
420,-0.2113422824371951,-0.06722125256832155,0.8678510517263989,2.34496595211649,7.981296144537728,6.040999991360666,99.98595293273736
440,-0.26113918718452656,0.045108504968846636,0.8386986936718669,13.41659790218338,-8.1964473735606,-2.6217767415579436,99.99228642699313
460,-0.2218080791635409,0.09465043894338462,0.902205153885573,-5.235428325643655,6.250901761686821,-11.776292754863167,99.98887095521107
480,-0.23205548597062342,0.054708077228823794,0.9095801871071963,2.2528942042594506,2.6689700348305685,-3.8081973523449726,100.01326895733693
500,-0.04555922461365838,-0.05430212210083485,0.9613983719876065,-39.15120725322255,-9.959216160395947,20.284505844647963,99.99783100237856
520,-0.09700724396770057,-0.00019361219363083596,1.0777836070190303,4.227799154458628,-15.116183133923233,-10.603190685596246,99.98218529441077
540,-0.02415083854849167,-0.0013366789183651246,1.087607961795837,-13.060800632235804,-21.664500569533367,11.780408550497661,100.00857230674696
560,0.01604520872580253,0.010592211709038804,1.1155756319298897,-0.3583014230774264,1.0712528373857766,-0.7150215934158145,100.0185443305553
580,0.02039898648426796,-0.016442875547877225,1.0706347739393218,-4.494473743240839,-8.11344765840524,3.3687792886004866,99.98147629551036
600,0.106594137128214,0.045695190157996946,1.1489717214096502,-12.975211576031008,6.191699842153035,-25.010741431802465,99.97329740375635
620,0.1499818409351254,-0.01387736576194401,1.170129714300725,-9.593317015124978,10.787291391122501,-8.45657472847458,99.98812421090804
640,0.2356053640317285,-0.02044719690083635,1.0608861368821523,5.065219492915501,-2.896481691138141,1.9431069213764176,100.00299982702893
660,0.23038685579016263,0.1517511922232906,1.214219896928784,0.7087027514246704,3.258407002789049,8.385803345960653,100.02536853178279
680,0.20891414914750858,-0.0027441450687322815,1.1161192912872366,5.713275945360604,2.2027217416306195,13.40256606852616,99.99749958924708
700,0.17062492546312927,-0.001327365645355988,1.1223832527133537,-0.45588650152633026,-8.79696655904428,13.45473738144103,99.96323463804066
720,0.1650184168536622,-0.10655564232115916,1.0528740794102014,-12.469481199349447,14.332723922742456,11.887959749862379,99.98094146812673
740,0.1857606883038766,-0.06615924278387429,1.0803341826017112,2.4105222423154546,-15.06900469919329,-5.749356558547885,100.00562027205676
760,0.1383923379042233,0.048689857030774726,1.0160471218585294,-5.587087269675324,12.117204418706827,-14.183169282661433,100.03458356313767
780,0.16348592185862348,0.021416355438184535,1.058070386186289,-20.838028825068314,17.126587091568318,1.0568951350165774,100.00898788172819
800,0.09546024942309811,-0.041566603468559594,0.938578532072954,-29.51844382155536,10.499186204799507,-8.739756425972745,99.99074253825566
820,0.09744352957105504,-0.04066043786033305,0.985318042649648,12.80570930475621,-9.80175617331798,-1.60502015112797,99.97059498009264
840,-0.022744449806268538,-0.034976042474683416,0.9418926706603746,1.8162916076349642,-2.298085693904155,-17.243820571929366,100.00656693241885
860,0.005555160533309525,-0.05099704438082075,0.8723666154659416,11.406763874625653,-3.4969296041923155,7.650288891632069,100.0100814171179
880,-0.18394640920023933,-0.10885440685616526,0.8643052115251976,-0.009742826770518085,5.999077744689252,19.284040913523075,99.99734641499936
900,-0.14832798725057028,-0.03180220776307604,0.8905070837421829,-26.350528831286653,-0.010716387707839739,-7.9679510645612055,99.99441705874133
920,-0.15722361530163192,-0.07486887644065429,0.8797128696338852,-3.6205336929588228,-11.690659660118385,2.5768489969855515,100.0163333613613
940,-0.18715517218652708,-0.03163548147762699,0.945614242954059,7.665501469423219,-9.354704288300054,-14.326682456979249,99.99901323543361
960,-0.16360813819492553,0.025813795375503996,0.7548812757965678,0.8607874993811055,3.9333181370032944,-17.976345031579914,100.02364842700014
980,-0.198561837835099,-0.07494946600881253,0.8838885380537099,10.859032860712482,-17.807518778388154,9.508952037696218,100.00548890356994
1000,-0.21292341606722742,-0.012144938506463004,0.9867956395630676,-18.66926163514068,-25.610377364018134,2.3533838824892706,100.00293415003684
1020,-0.2591689379378212,-0.004781624887719104,0.9091457048972617,-1.2795181672055715,2.824808377149629,21.51334375383725,100.00155137655197
1040,-0.21300882346170058,0.03830415803076043,0.9252387312889555,-15.123071090744274,6.496185881850259,11.913783908218928,99.98938676930976
1060,-0.15197297753106345,-0.0140543288117937,0.9095515750416945,-15.787638623131048,1.1744143580408317,-18.00613688291878,100.03853258757768
1080,-0.1412843218528128,-0.02691771852721952,1.0658993517062647,4.393175812085537,17.139097779131948,-4.627173602175715,99.97730408063377
1100,-0.01277235700494792,-0.02582223320577472,1.0151491332839964,-15.017890770782623,-3.295503879978713,-3.676976913092262,100.00090476625411
1120,0.016681579899271173,-0.056429567778261996,1.0030316818637635,-1.4945373298186944,6.19866516397803,-3.665730823668061,99.98965098024551
1140,0.14126504119243816,-0.013336897751792705,1.0253072603388895,-29.26842710932456,-8.013762884070541,10.644516303420914,100.00198209078552
1160,0.028657845286981398,-0.046064783333848475,1.1339867200178584,12.2547146465601,12.295774598926652,-10.310800883399256,100.01049741015339
1180,0.09914425309777618,-0.03841089827313651,1.0573389588285518,-12.66687156106737,17.406859575540686,8.001480838026625,100.01676888099364
1200,0.14299419430298332,-0.0023416739775579715,1.061034325769371,18.182668736298815,-7.306243612783503,4.152179301282626,99.97944608127217
1220,0.18716246201072867,-0.02889322727532701,1.161444023842147,10.240225880439212,7.711446407494905,28.719743139981148,99.99395828210382
1240,0.2608489999672835,0.09237369099118407,1.1149759586671217,-20.180052843966124,-3.1730888115856826,9.212703548201754,100.01678286427872
1260,0.27274267290201415,-0.01135448823967606,1.123260679032394,-23.357640826414393,-0.4974984152966071,-23.36409542258794,99.99737872710965
1280,0.16346735201945517,0.07203833850785835,0.995239665062617,9.40601902555347,0.734750590107257,7.445370101940411,100.01438505327528
1300,0.14112568143143345,0.06719856876947188,1.1598682484176819,19.065784529875444,18.090981861712784,-18.43097992863189,100.00602781028935
1320,0.1329347406885959,-0.1098093911013107,1.01705888133969,-8.03163618933371,-7.59060574932356,-1.7299840706532086,99.95282812450509
1340,0.09653875987285417,0.07018021158845783,1.0215169984942754,-5.798528677293582,-3.1856172967344785,-25.12716564242446,100.02146350184721
1360,0.05090897990068797,-0.023235876115347463,0.9887812046656135,-8.159005916515744,26.298830119528922,-28.289697085990902,100.01001839028135
1380,0.007225711775449707,-0.028041464203931346,0.9990554838649385,7.872573762176936,4.467263197465213,25.861206841176255,99.9780009218496
1400,-0.04006421226516175,-0.025217646563792565,0.9528465082220335,-0.3146508633570616,-5.820221520160214,2.0524019918421823,99.96827308021051
1420,-0.1339134525852481,0.07115662798875684,0.8411391223278428,-12.43590034341836,-10.369523096350775,13.320225458798788,100.04013614485551
1440,-0.12457013023465967,-0.015215197610564375,0.8797190134552602,12.696743445252022,-10.043797150442916,5.7725445825451285,100.03246933800138
1460,-0.055879952791797416,-0.037183953055753984,0.8188753935791152,-0.4879050218014224,-11.264768931031602,17.88948037021006,100.011616425769
1480,-0.25803703429175334,0.046538677779228654,0.8100688026297772,7.1339797790393185,-11.489820815146318,-20.414277727708786,99.97639708962446
1500,-0.2121672067071731,-0.03779420147140786,0.8859271391340584,-13.400181862431609,14.131835688451357,-11.603638366112287,99.9940778539639
1520,-0.1925461730409149,-0.01952506842136101,0.8486293438053547,-8.01409461759901,25.853514735620447,-6.228230215343342,99.98850569505666
1540,-0.12940182718983884,0.04315575471956323,0.8487660537402956,6.423125032457037,23.36628543383062,4.7324548182588355,99.99523563199914
1560,-0.28854269206492233,-0.013613535218179339,0.8907871771915161,-2.844686494010917,13.726593460955986,-7.2378567785988555,100.00726251699906
1580,-0.16376833187147852,0.03711150803031878,0.9287234355945067,-15.964537727725023,10.602807337242758,2.27792197847954,100.00759857017131
1600,-0.16331475048199826,-0.022314214966333776,0.9833165290232411,4.8361411870302735,-16.395661919243327,-9.47099253467991,100.00936238267279
1620,-0.0502393965762727,0.05540638110521803,1.020788391923516,3.2919672335387684,8.674922053460733,19.547104575872478,99.95435048361514
1640,-0.09625158769189567,0.01863348266570668,1.0468920537350594,-0.2145677567030712,-10.444036292066901,9.841533978691734,100.0119750235777
1660,0.014219508888576234,0.0722071545597894,1.0203677356364174,0.509020110893712,5.777403827147525,-1.7732151527955677,99.98173531920389
1680,0.04123790574256192,0.008129126781631265,1.1508487070400488,24.087688780064408,1.9302806673192854,3.4515733663178105,100.00741773855768
1700,0.07132270662233643,-0.08438347231674241,1.1701548371837454,5.118059758941248,17.997844778866202,-3.082873155706096,100.01832075217979
1720,0.0825061218313908,0.0691426888112279,1.06188846360929,2.6011862300846316,6.112106753262731,-12.221991300819845,100.02104974010591
1740,0.09689657461577444,0.07150813793748888,1.0780229315225112,17.66119691948512,-1.5611252961401094,2.1954527362912,99.99508807639542
1760,0.18363896122166534,-0.009836106881086056,1.1287312797230082,-6.684949536037314,6.450822712205486,-8.262733439106533,100.00974094040605
1780,0.24557562051935394,-0.020081402079236435,1.1688095550450996,-18.32985480701248,-6.981994459988641,-19.907158322834874,99.97117605437529
1800,0.18695893863862006,0.035507140164946625,1.1759981182440782,-12.944595532163671,-7.021352015668896,-8.722674067542918,100.00167998432924
1820,0.3071884150903306,0.07481198682046732,1.0410365196347018,-2.891091115190124,-6.058142561059688,-4.1944389490197915,99.9801837811277
1840,0.13127710225689385,-0.012719722664618663,1.1635665243402278,-10.920704919164587,16.84385367818975,5.7966960416286,99.9721483898203
1860,0.216134181161674,0.08564925101967684,1.1241523138942784,-17.22189660745073,-5.336756724507215,17.78355345880963,100.02362349894362
1880,0.06809934709237293,0.026340033216918548,1.0710511605794901,9.726262389713828,6.693098942920888,12.973448032462034,99.99684817187247
1900,0.13080625915215163,0.10223714492708047,1.0153546572327183,1.8606922932864702,6.789356944668896,8.678328145709202,99.99999940710114
1920,0.10793922978863557,0.013191178907898225,0.94566359994765,0.2803695635105136,4.497330926576601,-9.195652718039,100.00514318058902
1940,-0.07790251348420951,-0.004047604171832816,0.930033997306144,28.99808500809879,-2.9499456905242236,-1.2089511595794136,99.96799410796474
1960,0.037056223769866725,0.1367189634702278,0.8302679872539771,17.43678296204078,-25.607266934540224,20.10019121903037,100.01781707669396
1980,-0.004888399351299241,-0.07219361274890512,0.8359002388048503,-6.145631874245698,-10.482522371508486,6.3336064198789295,99.98356860559761
2000,-0.07477240009789435,0.016979520003371804,0.9170819540783716,-4.570767447915723,-2.5093187318668293,-11.9013260774502,100.01541922679665
2020,-0.11649355658016328,-0.08068901436904821,0.8949248203504188,-1.6867301116451168,9.801585749848206,13.978385481441597,99.97102719984811
2040,-0.15066038958952518,0.03460015714380522,0.8069933832090885,12.940393545362275,-9.398886180399781,-12.145608412306686,99.98046078654046
2060,-0.23752811253753575,0.011012370640741363,0.8299501085976528,0.5314392676696162,3.891591385231487,-4.343502702219056,100.009929529342
2080,-0.1583717779980163,0.04108458268667265,0.7710538017656406,-12.842681562502682,-8.07441152595016,-27.706454498870848,100.02339016414827
2100,-0.20994481119068933,-0.041174471517613116,0.9442867818840865,-30.25942399744782,-12.748346915852764,-13.06148477878224,100.02983155559025
2120,-0.16369970675955003,0.04114169830312057,0.9294359572719749,-14.82456643935533,0.4401170403732161,16.49532764275781,100.0107326922396
2140,-0.17156056476099418,-0.03428934154459245,0.9263898265306328,-1.5504523833565302,-0.887668945387927,-0.26115370350700357,100.00540643413673
2160,-0.19668843484167658,-0.01682184939271568,0.9724480078075983,10.175289917655975,-8.993082628421721,5.6889835603764585,100.00478020612358
2180,-0.11538116861537334,0.016150933673204654,1.0022234762330136,-2.7364493130428134,4.760815197420985,-9.004840207306462,99.99396241703074
2200,-0.07213594495105713,-0.0005431352273808765,1.0378095332519912,0.6522384328816736,12.71010925271252,-3.2425055828115044,99.97513036593195
2220,0.0446440536867918,-0.026311342701320517,1.012464223833082,-1.5262675153091325,6.457348473993509,-23.162102971638262,100.01799689290877
2240,0.006824636186776506,0.06088769600261889,1.1253264377651817,29.079534901017325,20.311550999772077,7.787358372416933,100.00796269722947
2260,-0.0018785137112405509,-0.022926150324097214,1.0925206249228292,-3.8179402677786953,-16.768583520781945,-4.811754846478033,100.01309367645406
2280,0.09829439486670358,-0.02153239220295261,1.2080427157084568,-5.251769127881879,14.60164717690169,6.30065697675483,100.00223099971727
2300,0.14683361733896882,-0.01487817146348208,1.121760468120618,10.934382824129202,13.1006132775787,-10.522099236042056,100.03920413378418
2320,0.18002554821981745,-0.009527766944193737,1.1320130118501521,6.270123400616278,7.911665806355428,-4.762133364427267,99.99504192044569
2340,0.26096019907797463,0.04453336235660358,1.0901120008234175,1.5094884902483154,-16.047129937903765,-3.6771555652505454,100.02005397570878
2360,0.15668433035462148,-0.07527374376003383,1.132114644351229,9.678410786870586,-8.596618983409602,9.682670658751718,99.99738818800368
2380,0.18384778004606447,-0.024944475310745444,1.1536437812162248,-15.367133057772513,6.696137976639692,2.175694909272341,99.96907058950158
2400,0.17886637568990052,0.040522894869323624,1.0591587774110658,24.72153711452298,-10.209952485517423,22.554944271916074,100.01475926687839
2420,0.10362031951523443,-0.07057072376133404,1.1168798682798922,8.771198070374297,-4.795818900581515,11.491309033038474,100.00391812533138
2440,0.0618955108358184,-0.040046870331729406,1.064012433597059,-12.332025588796924,-3.858976469341008,19.07254351276437,99.9787203589463
2460,0.07494489796284051,-0.08582268957913193,1.0025403097172632,-7.443450964311464,10.807260593175064,18.62288424003838,99.96505353005428
2480,0.06379439332911699,0.015375497579782972,0.9532787594806998,6.381071552467521,6.006292318946109,-6.7066985419873015,100.01829840229998
2500,-0.09582700773374114,-0.002361472339512078,0.9327307841991643,-20.06139541740434,5.784395358211166,6.10862462955107,100.00267918504294
2520,0.027095306880754955,-0.0069314490931602375,0.8531431020120787,-11.56586952722769,-13.068691296968847,-17.976363648726046,100.01830097383909
2540,-0.16268446888344443,-0.0852171044355134,0.883577535276464,16.669205872194915,-18.736084123584078,-9.863395821527824,99.97427687465029
2560,-0.0578942528804481,0.017399863038740502,0.8008804010902746,-8.933339888515732,-21.90579275559457,16.359167964783225,100.04598406644574
2580,-0.20783116918679806,0.03181574831764546,0.9029241657586543,-4.1296776618986515,-25.33158225316347,2.5559161834154334,100.0200487243817
2600,-0.25506468732274074,0.03437898781588126,0.8350208824619033,2.002179114198873,17.604280443120377,-24.893257579330392,99.98328804365315
2620,-0.16323171490631008,-0.05009341419660773,0.8459597292325544,5.858441604853213,0.6080772435813611,13.806051742249835,100.00930730693419
2640,-0.17843446604639715,0.06935407162424302,0.871874277178505,-8.450340407498993,4.563440456135649,-2.8521065978837146,99.99467715567083
2660,-0.22157157933474808,0.022056968661664268,0.9251150711788683,0.08651738162441404,-3.0525295160401575,-14.211768857621681,100.02296884765771
2680,-0.18700033003579225,-0.039586881219685795,1.0054315354856946,-10.304344581907058,-16.325591544377996,-7.1235033559744005,100.01403033558337
2700,-0.2234828613189234,-0.018942371532489424,1.0008254426931353,-11.36892891509507,-3.2885126225654773,4.826705275618208,99.97597821081018
2720,-0.24656213697122156,0.06560914636883279,0.972537581518478,5.392318397280195,0.12217338935483617,-13.950948504613233,100.00134331728182
2740,-0.06596958601772698,0.01711176409627214,1.0443213781511547,23.685829270327037,2.2146074669229585,15.583340264139643,100.00274104466092
2760,-0.14768090134923803,0.056305416312166505,1.1021400172016629,-12.67898811749425,-20.558193728899447,-7.326834813157459,99.9859953707165
2780,0.03170108966764482,0.05193778496175543,1.057797034709125,-5.702736544151184,-9.461950673994542,-8.851206800307233,99.97994979937496
2800,0.07867887872815997,0.0577307654390262,1.0775896500691478,5.733046782089753,-12.032906497451291,12.805225681597111,100.01285164368814
2820,0.04747400870874588,-0.053594658369007286,1.1673381219388155,1.7034989090578687,-2.7879967407242363,15.645644898009742,100.0015532782077
2840,0.19312568743085012,0.013055287114471091,1.2357320430671561,-10.679322516535438,-11.3186031455411,8.727821780746588,100.01456553373282
2860,0.10030707943512951,0.05248276626180799,1.1336655784532785,0.06963722989897916,20.816008919251974,11.989728791259525,100.0146589162624
2880,0.15934831416787354,-0.03208117702485016,1.1604017182416262,4.889735379892756,-1.932051817137658,-0.9392331301291006,100.00347652206766
2900,0.18459681774660475,-0.033734441505201655,1.2349802073147333,15.759065851988225,-10.082170315154055,6.681867056551027,99.9810489838112
2920,0.14747872368375714,-0.014401434954152205,1.1655875781060012,-0.7624816545315772,28.78067043792,7.568580921561301,100.01464817224351
2940,0.1516687203818384,-0.011814627867867626,1.1991004120953643,-12.994138134600691,3.7262235223350664,-9.748995790652211,100.00418237720234
2960,0.18433697953396982,0.059501658801422885,1.0868677339744577,-5.636864797917017,0.8768440256799508,-11.376395759012311,100.0182834969381
2980,0.13055593331613072,0.07826358590507082,1.103430517808068,-32.20857116225675,15.4570144876064,-5.304774776484292,99.98100270291921
3000,0.09636554610769046,0.01965401650693952,1.0209256256569421,-16.97703858397827,-10.548632408329865,4.541999513519524,99.97933657945505
3020,0.0030354497851338563,-0.08571546182043295,1.06781022272749,9.67541285677618,16.52554276216616,4.484917842223238,100.02951771450628
3040,0.05845672754057784,0.03223404077012187,0.8408952125791953,20.016523527425633,10.886490645101604,22.314667868252187,100.02897290344025
3060,-0.04019339173427589,0.047350125229274766,0.9483587528470574,4.778544516360429,0.1454681576778899,-1.9338555589590594,99.96414178332937
3080,-0.06512578740653512,0.07690345274040228,0.9117130438303206,-25.51411863287644,17.262748534949957,0.7692154573901553,100.01837484887766
3100,-0.051033529878261645,0.14243360660622867,0.9509192333113934,5.57901823140541,8.328522389546304,22.412916651203766,100.02906476112621
3120,-0.1838757968542386,-0.004357014052337949,0.8925120479320454,-4.045258175262225,-0.4442843875195399,-7.640404210227191,100.00519502348276
3140,-0.17832792067473788,-0.004133483626891158,0.8893937794196125,-0.9862299892454054,19.466431815279122,-0.5812518770994102,99.9854106975733
3160,-0.20411474045373992,0.0426211916734871,0.8840238383858847,4.675199985084981,-2.275964342773205,4.6114064793219445,99.98974738299867
3180,-0.24470012714112627,-0.005716926723562413,0.8600882076985594,-7.576454063370607,25.82157800374608,-9.33986209456475,99.99989451506961
3200,-0.14551735391076664,0.003433514543297676,0.9423234915068139,-6.748692906755723,-12.428645569327845,-8.61610257492883,99.99911700961175
3220,-0.18408244621781142,0.06793261181281814,0.925861298233717,0.1471148497699126,-1.1997181505740515,7.427219274339901,100.01407494151219
3240,-0.11196046971621813,0.03896896935319277,1.0031674663194543,-20.794474734717188,3.1758677008845755,-6.923336123115119,99.95815278905509
3260,-0.13189848238020696,0.042178793425655864,0.9378258681035854,-10.159127312731222,-4.762746413419914,5.123178174048295,100.01964367355916
3280,-0.1665164484522278,-0.006672416803375464,0.9656000244149441,21.687166146374512,-21.39331914182737,5.7721188046615834,99.98758925739283
3300,-0.005267396646702963,0.012247010837441862,1.047586300765596,-13.704855760222491,1.29451609779865,7.8949502781254814,99.99025824758824
3320,0.03710944232457028,0.027301549590973525,1.0325216520619804,17.607696179390256,7.8272535723582415,-10.058517928550241,100.02886732166701
3340,-0.006881229453780528,0.05652687238465595,1.0600781156983874,-3.112225769612157,12.641120125039826,-1.029243926608881,99.97303143658192
3360,0.10866522196215847,-0.0230682099830401,1.0977407628608224,-5.827372188706429,-5.105277522871014,-6.786258658654885,100.00475312745311
3380,0.11655586045340129,0.09342944683808684,1.1983139384663268,15.694044963164147,3.411152510401793,-10.491525351750935,100.00760462962663
3400,0.03202996169103284,0.006403909807263857,1.2079777784873533,-2.5990948224293655,17.778086597554775,-13.63546484442757,99.99373634127689
3420,0.12749748569169123,0.04045067754313824,1.178795670770019,1.769659895633496,-14.699080344718208,-3.5908080089914556,99.97501109961865
3440,0.2031056316100319,-0.09092087149081549,1.1210883516183192,14.120743688586671,7.7284135456053855,-10.517688559090498,100.0144268087328
3460,0.2313883620127142,-0.046555614589390476,1.0918460180497704,-7.2737512591078115,3.370851512879579,-0.05935476471656366,100.03618093000213
3480,0.2380398984262247,0.0009113090053981974,1.1129108965372632,4.303474843393172,10.502521618570874,1.047403502785564,100.00355660092377
3500,0.1953127922539641,0.012663928323617811,1.1523060136709167,7.546601956377996,-2.8379817276617954,9.016707191561935,100.002098629105
3520,0.19389595265353674,0.028877709134979862,0.9503549015280374,7.137166346807013,-0.7692436654910992,13.08230886381174,99.9883643041095
3540,0.15357675550859898,0.014008697610523042,1.1596691748698391,-1.6485493253830725,10.556957323018265,1.5290286908291537,99.9989973918932
3560,0.10404404674980344,-0.12007915348978578,1.0504406217389188,-12.147994895874115,-16.808476476560692,13.216269382545246,100.00919145121209
3580,0.1176188671846367,0.030132173072008068,0.9005707234573541,-20.174413291070607,-25.990053919764986,3.354909580388173,100.02161514514509
3600,0.030318932840825756,-0.0066765238403841565,0.9142208005331296,2.2278443370525975,15.056337980688529,-14.382341226351048,99.98035339543657
3620,-0.003356161230488132,0.04272245660950443,0.8466369687465404,-0.14791439146710295,16.157975417950404,10.932914419229876,100.02063829812604
3640,-0.07346230398973293,-0.0053843856382341905,0.8951134748468322,12.848295402674701,-0.09730909470328505,6.079326314097101,100.00095095873456
3660,-0.17767430446850405,0.0052287373890496066,0.9142409514202828,20.016534170033154,11.60108403683775,3.1809677596519705,100.0193863829418
3680,-0.1780968447986028,-0.04742846656750708,0.9252962197837686,-8.455805935403081,-12.496137302995724,11.002112441930166,100.02461019593777
3700,-0.1376419043414061,0.03404648802087696,0.8730637812606038,6.841053229265876,-5.434492777958539,-7.999125232969952,100.01123458064636
3720,-0.19342937752967995,0.08145276468652146,0.9231745896228531,-9.605820006231987,24.814849103128573,-9.166763669301371,100.01434617048751
3740,-0.08673525538668929,-0.045022620620551,0.9233890737493042,-6.7902501893923,-12.81462746204487,-6.87878951154552,100.00896132867739
3760,-0.28005854134427466,-0.04773882809865676,0.8200530985371387,20.168298800282162,-6.559171706121182,3.729580714487853,99.96198696127382
3780,-0.1928402661653305,-0.010087920143560854,0.8425444403371418,13.078778476579137,6.815639050320749,1.915590894240463,100.0486708773448
3800,-0.14591846890634746,0.04922884470587704,0.7869580302519644,-0.3424594365918856,-7.441819239783409,14.267204103464245,99.99651225723046
3820,-0.13943528657062818,0.03130298976444163,0.8491162174603503,-5.793115177458354,-5.882100201282645,27.146408463343874,100.00527361207797
3840,-0.1538327831556827,0.0006249844945130862,1.0510912631667275,-23.474784238126027,10.521177292364351,7.700594308066311,99.99739262666542
3860,-0.06798489351185677,0.09378312764363216,1.0362718894123701,0.6154070205276321,23.400496324360198,17.263862365675948,100.02330248155225
3880,0.005108241105073241,-0.023802593683538997,0.9973339155972646,10.971710307718611,-6.390929552200183,-12.452584353487495,100.0319503759161
3900,-0.011497343259725023,0.024185182863149177,1.1285541543862634,4.009867900790365,-14.530146256058913,22.61166218199849,100.00254472113237
3920,0.035812367933913444,0.03403276750812613,1.135215858312486,18.015461316888334,-14.198398381020194,9.52880252384399,99.98939591816658
3940,0.0734713425520255,-0.049585028765864916,1.1454933410320502,7.596948950314632,27.571489659383325,4.651550596265832,100.00889862865904
3960,0.06308516425281255,0.07970559877995573,1.1224096212734007,-15.074171416874822,-13.24415265746215,-9.925157208130546,100.00782834544827
3980,0.15802933024469223,-0.003954679251819738,1.1703008679725488,23.522842289904624,7.348585336677479,4.4793132838982475,100.02889822493023
4000,0.18177024629125058,-0.09396754457839693,1.0998553205904968,2.1890497736052663,-8.811512241864676,-2.806537650784505,99.99614920998545
4019,0.1782461036317129,-0.03912367389874635,1.1802318456215615,-7.103624322390865,-15.861733257167781,26.882450970813487,100.01249026993735
4040,0.2227941313981478,-0.057195673977907674,1.084368818830282,10.665973209840534,7.707016450125451,-11.547719973574456,100.02058817709774
4059,0.243084015365453,0.03321934093057449,1.0231471017469425,-4.8713391979390614,-7.802081687949028,-1.0631227536206416,99.98458756270483
4080,0.23284511041003567,0.0530977358430408,1.0936648494693209,-10.393958949910626,18.905963086253468,-2.3034231033463097,99.97976709020405
4100,0.1308284892120454,-0.045609449495099465,1.035664246453567,-15.05154679556063,-15.68529713500781,11.901881504005873,100.00152784796828
4120,0.1639950714534219,-0.017884546813987493,0.9774457661930459,2.7863502622931424,16.714090666243433,-7.197056166160268,100.01555573481974
4140,-0.002944402286122097,-0.04978582218229677,0.9981484270523191,-19.17794505441898,2.201970587415233,-8.218006682162615,99.98420015643998
4160,0.08237673204821455,-0.0068257937725637935,0.9174979393518243,8.282715429980836,18.204253112866756,19.83602680841279,100.01714525183002
4180,-0.1486820502982003,0.019201945263990258,0.8840287522793618,1.6326580448244652,15.588030090351712,-8.252721033951616,99.9939527336918
4200,0.0018488167323010979,0.02947073873273062,0.8775454661239949,7.205204791266139,14.91722690374143,-13.875279131018647,99.9975666560436
4220,-0.04284245827478994,-0.03785653538122605,0.9151690609450391,-7.302324031078934,-12.699776614614894,15.942793324177321,100.00519896889506
4240,-0.2181360632978524,-0.0558095319860224,0.8349674212842506,-0.3515471183265236,14.433271605383442,27.23957524782376,100.00830326087441
4260,-0.18161707586674408,0.01995006440042535,0.8074943220274037,6.003754462050161,10.647441592025194,-4.990806921782606,100.01225333022235
4280,-0.13879324334888116,0.017478138171795166,0.8734019636105851,7.374584671891955,12.127691998759548,-7.481354221317292,99.97805817577161
4300,-0.14114379870585578,-0.02859900172440857,0.8533704453063236,-0.8824837652724947,21.1553891397696,0.9458042137136509,99.98407839536513
4320,-0.2620372808978061,-0.08187224426475649,0.8436271929283655,-5.904908085965422,-11.106810046381637,10.841452036850036,99.99470140463194
4340,-0.13985613511203213,0.018941696032064498,0.939054551522839,-10.129874859922934,-1.0330496521646513,6.9641111087416,99.98241706693841
4360,-0.10392286523761024,0.06756239173426105,0.9709374538881245,10.545693936656708,18.13126070080068,8.630234705605083,100.01240057538105
4380,-0.10433292684830987,0.055216507671570915,1.0060292421595245,22.94938663731212,9.586537019200906,-9.50701894099847,99.9967911468201
4400,-0.17041532544209137,-0.030175729589524622,1.0359107585819927,2.2413672242320186,5.508835981940466,-12.066019526306796,100.00156687789803
4420,-0.05676812092253003,-0.06598981857702516,1.0474434189440414,-17.05442989553095,13.364973917288255,-4.77749756928133,100.00153254297662
4440,-0.011952192336357829,0.004263223964852413,1.064756510452732,-2.678954577191428,-8.275287615746889,1.0388537809836484,99.95820344102184
4460,0.03673338351079664,-0.0540378646456309,1.075595362762086,-1.1686800388460332,-9.52560534154952,-16.700776350567686,100.00508802875764
4480,0.05516305815839548,0.021523172605015347,1.1050224350942761,-8.233334962738411,9.265051531418314,14.208348905277457,100.0389075379016
4500,0.10934494319740688,-0.018152658174298092,1.2034274410401473,-21.327920740614804,-2.9712294079797075,9.054287238145674,99.98088134869978
4520,0.0892941806606388,-0.019092087991510534,1.0621211696399622,0.15725358283679003,7.612315672058947,-1.4954729820102535,100.03242921122046
4540,0.11196228381666957,-0.0857887356169149,1.076870224770481,-0.1408357973756069,-12.395879986449252,15.795655560248626,99.98340483572792
4560,0.2699636182854448,-0.04356817142270898,1.1103065648093562,4.349570979146582,4.27129077663752,-38.85884913390419,100.00274040274259
4580,0.2283368771194449,0.026357121629237003,1.1152433314764212,10.170428305397309,-4.4683201538500645,-8.06357953119335,99.97953655072405
4600,0.1425230101983688,0.02796635537349922,1.033392243021526,20.235891022581686,15.547787743831638,9.049648810307847,100.00371410068124
4620,0.17935715440043853,-0.006916220946203366,1.1402677150512548,9.162981134628932,-10.757075309142836,-0.49783710438088924,100.00462907948989
4640,0.1872442523292865,-0.01271332897147243,0.9968428237238858,-12.15217917663452,28.84450792057485,15.32208731185195,99.95811970234057
4660,0.21253789110477359,-0.00783358514778641,1.0485043638085743,-23.66786581698945,2.543851474474407,10.490646718930899,99.99767043456312
4680,0.07154250673543508,0.00464951972967765,0.9416194147044374,-8.334746195012519,-14.247251056976122,-19.962519422301238,100.0281734503175
4700,0.0947885068029223,-0.008593493006579416,0.9993445138440771,14.897801832063301,1.460359175608608,-0.06486738788506784,99.97818203560985
4720,0.06490667525692347,0.004284664820037215,0.9907900529489838,-1.8277175519650872,-9.332243417292359,-4.94250173289866,99.98089822573269
4740,3.06693437358424e-05,0.008900319172917292,0.936458785923493,-3.2477603742721985,10.60124310485792,3.1457587601491097,100.0022583033284
4760,-0.02087929717780869,-0.001494105244307715,0.8771023915619712,-1.831968260248505,-7.8035761091229725,2.498789758351002,99.9952024439189
4780,-0.14338021779819105,-0.08431377218282075,0.9109695360417938,20.018026314775348,-5.523349544741572,-4.573838315793956,99.99888493125945
4800,-0.12160870636816304,-0.018898776023633882,0.8500344684570047,2.9924009420751014,9.592082903560025,8.588929703502338,100.00683343931223
4820,-0.2329018110724757,0.04927524297831043,0.8061974731727154,-7.439377427758355,11.431790684599907,19.75149829588974,100.0237190387151
4840,-0.19510322494387436,-0.010592149638517519,0.7267928152300748,-5.138391544013078,13.959059342078138,-13.366889839693837,100.02209499331902
4860,-0.16153725892708318,0.05380705424509428,0.8844367962834634,-14.628030879126754,-29.685585467986854,15.450872204286938,99.9934899593362
4880,-0.1720207084660792,0.011064072543808496,0.8440096538045087,3.418913533253588,-22.450366161881988,21.23193655448748,100.02289586958113
4900,-0.19613199271226273,-0.07249215448805092,0.9522147402780968,-13.298226286389752,-11.615230287970485,-6.247112781431452,100.00147895584128
4920,-0.02890055848315612,-0.03774625871374154,0.9271188930413538,12.124881981566029,12.58678038076365,-9.05683015779327,99.98846354999604
4940,-0.10817768642497688,-0.08866995400000999,1.0507511197568455,13.903691178493716,-13.057286206257805,4.539005379304293,99.99743409607028
4960,-0.050041448823163734,-0.037739256700905804,1.0337613998471042,-8.445348389919692,3.593548830803287,-8.015432994994475,99.97160806110429
4980,-0.14386594303228883,-0.12502953846292003,0.9159621783158575,-12.147339052548656,9.355327129718791,-10.169892677338424,99.9971954923244
5000,0.017598494825747865,-0.019519780772451947,1.0559145994223438,-25.19225051074818,3.3655699471559437,-14.960833569381577,99.96882721774303
5020,0.052345487160698825,-0.005364659570440893,1.1495840135956814,2.0400273075122106,6.131325539847182,-18.235417949220576,100.02472719477238
5040,0.05134005206205836,0.009953643043265934,1.0998893448897096,11.089750906471584,7.367446912693429,32.55592460721977,100.03398499236324
5060,0.1215262263322499,-0.026238339469912993,1.1099276933419133,2.949032389318618,19.65047929580527,-25.303995095963508,100.00933703024404
5080,0.1538885337520512,0.046417331670781596,1.2100764099759433,-23.866292304830637,6.724312982928346,-10.496830286022739,100.0237870254726
5100,0.20932489072655075,0.10228128228888732,1.1132992462235052,-18.53490585205313,7.439489116470876,1.7054815879023408,100.00668914946166
5120,0.19104997869046716,-0.049417857516068336,1.095071379644627,25.547221486041245,6.933488329436411,5.00323580686284,100.01171345562078
5140,0.2514436211539569,0.04954035215548666,1.1055647929080286,-16.707441686819386,12.249333771442709,-23.649765096714994,100.01297906360742
5160,0.1959466170359924,0.03733224952233182,1.1006021158106098,11.09289697108945,4.057958240749161,-6.153509296262132,100.02171633695367
5180,0.19636004354511571,-0.09030949498997518,1.083975090149598,1.4591516633648736,-3.9581658349177924,-11.49718898839135,100.01644589353185
5200,0.0901282269511141,0.055716830703697574,1.0483217657653043,13.509280634775765,8.429370354620795,14.534130287860307,99.99065218098264
5220,0.2011059283375621,-0.028337145002226394,1.08163818132914,7.3918423112015486,16.883377640339685,16.5180166525883,99.97756277465466
5240,0.12208876880558858,-0.03732820756270168,1.06718605678329,8.728068988920256,-9.62478874653955,2.0051366945996802,100.01551176403196
5260,0.04168656955333844,-0.017726263644049733,0.910852213370897,2.403699286211576,-28.25947071543088,0.37388835663190595,99.98904170545066
5280,-0.05516716988296674,-0.02678762463035513,0.9272151614395081,-6.5583289902217405,11.40233274374256,-3.5491910634340345,100.0313385359547
5300,-0.08657275191587521,0.07219353955337902,0.921340417199857,-19.37110056326097,9.62069243623973,-5.627791604394966,99.97662513252116
5320,-0.0518822051024687,0.0018789883055244363,0.9466062398034149,-10.066877578378486,-12.569313501354932,11.427361762408262,99.98753242038025
5340,-0.1302637988534802,-0.05473474300071436,0.817695553127905,1.4582358749183877,-0.41822762947720016,4.385024847640214,100.00519957389122
5360,-0.1348343462806596,0.06686780010716661,0.9072505792953557,10.896296589608932,7.969614709011363,-1.4495912430830444,99.98230727388089
5380,-0.19391731492994543,-0.021314520190839972,0.8607413101445781,15.234762158452135,-5.987864297298733,-8.619167764412333,100.00457787401277
5400,-0.25604895485762424,0.017337412706135754,0.9655558129068924,25.759296142751918,8.875857226326552,0.7841224129213356,99.97116507206759
5420,-0.1691918971941719,0.053789432116146355,0.8431950613488816,8.58125544281688,1.2457715171023998,-12.74399343460764,100.01116887649998
5440,-0.28237539998555733,0.018154459054895895,0.9380418131463094,33.05900039637343,-2.420993024614085,1.1210001827504232,99.98755122647542
5460,-0.09127735224534157,-0.02568337381380614,0.8939575320707653,0.014256179079262172,13.087167546484814,5.737459516437037,99.99983055063193
5480,-0.08704386184650159,0.028237807324970356,0.9705129273813006,5.360913852322742,-0.024273317351553695,-14.13407494288375,100.0085713172957
5500,-0.15185068682702377,0.021102951599628366,0.9850340149281284,0.4512555457730507,-26.041373901298655,12.540599438720383,100.00923157892642
5520,-0.03513790518044847,-0.029069229997104193,0.9531236849190541,-2.102636925689941,5.690687205253784,5.209651026380753,99.99934937960639
5540,-0.04045058764779237,-0.02211031641610959,1.0543935065189933,-6.416508754656526,-2.0808908393894203,-13.869638965713532,100.0275425308858
5560,-0.09180166782054515,-0.06225084905012939,1.0586115927405246,-5.051423620591342,9.482707077332355,1.2343931784858033,99.98859481577344
5580,0.003827907196404287,0.025424492548959527,1.168897969120342,21.832649664940952,-0.4588985021342784,-11.614605182986342,100.03183798781177
5600,0.08115322823648352,-0.09041442420456725,1.054416097730754,1.6207073505289655,7.444199278994407,2.42094836210334,99.96679728020841
5620,0.10160401700535845,-0.038835626243022975,1.1985134491480378,-5.286975658992235,7.328839745410418,7.227337905470469,99.98167184500285
5640,0.05824532780329773,-0.0743562646160471,1.1735189924455955,-23.340883662303476,11.845694467016617,-0.6396540720397451,99.97967893713567
5660,0.1311289243436553,0.015393265861495507,1.2187410128893157,-2.9032775644389206,13.231389715077198,-12.665146282857009,99.9956316314591
5680,0.21911902051384974,0.047382063642465166,1.1594754644063794,3.0843576132514356,3.2155176783729758,17.57565035268137,100.01270105493437
5700,0.23440642668587208,-0.030037500601367707,1.1784391742083258,39.69793490403115,27.780802793868837,0.6322308407159634,100.0130200353111
5720,0.2404354465647569,-0.017346028613736714,1.0275129120903057,-13.344575261860243,17.968300959666934,-8.955609626562705,100.00434806756553
5740,0.16072213840698216,-0.024609647806259582,1.0587822690500375,-7.317017455515321,5.769295896540081,9.128528240047022,99.99334489777924
5760,0.12588335790994903,-0.0027523319337017715,1.0521781986600138,-0.5444082139358879,4.719614731626437,19.048626448953513,99.96352562316378
5780,0.14825326740570416,0.02936801410467381,0.9845074755231829,-4.4624310420143285,8.220777844864385,-7.979911188647744,99.98822858935934
5800,0.0755544256816698,0.01139265889111122,0.9881489948651087,9.527503147097033,0.9212595593463043,-4.039385249641322,100.00622017212274
5820,0.0692567972709322,-0.02218506130180574,0.9813505202891792,-5.86504236095756,-5.566885558377858,6.543800269261402,100.01457284014681
5840,0.05992563859509273,-0.03746425589003926,0.8537241951272821,-8.47733369234539,3.0782070295527846,15.716061752128388,100.00852843112602
5860,-0.0025001084573431434,0.03904774782370711,0.9089253988599227,-7.082190202728993,-0.001521346072024359,28.176219462421365,100.03248717491839
5880,-0.04393500488078296,-0.03442973959311303,0.9202160788962747,-19.20412060002694,-11.466422129755856,-3.404066892715732,100.03401357933126
5900,-0.1817955323204271,-0.015768969234933716,0.8800040429021757,-8.666287988950025,-3.2047639640087944,-11.259740784992413,100.03678869369095
5920,-0.19716122916448825,-0.04042943751309441,0.7943250367515688,6.6296430367767005,3.495452983848991,-5.010680574057484,100.00425219334886
5940,-0.18810266992223684,-0.02122074013259484,0.8652728575548301,3.657303049789915,-4.1502439662235195,-3.4443289384582245,99.99156718753534
5960,-0.22665428188834902,-0.07910682447253206,0.8728324268572047,-18.316815264949987,5.785756066443236,8.18277595905549,99.99253147551204
5980,-0.11053321942422804,0.07968083404072593,0.882053935861399,6.759410355484887,-28.796369112025502,9.24641868904832,100.04940180630942
6000,-0.2571270087145803,0.008566505462485047,0.8228741414044382,15.259825490210632,1.0842504599848701,-23.028073238396402,100.00333496200518
6020,-0.09994642997884715,-0.004532710358886066,0.8718960084486143,-11.560427924086081,-1.8115812726718366,-18.86117126884197,99.98665155989949
6040,-0.1837265933399887,-0.02164333470581254,0.9261771437437947,-0.18238158937620663,10.062799854078134,0.8682146979566585,99.9746145143772
6060,-0.047831076206262264,-0.04759991048185093,0.9110481937433458,2.0347872365636395,1.0590284737645015,-1.7934387260322273,100.01795741496156
6080,-0.1024338755378903,0.025504315648282767,0.958463274826408,-4.732835349729868,-3.3753812943814965,-12.312926713634454,99.97390381797757
6100,0.06061235769652888,-0.11089311062074417,1.0812067389002409,3.258719220094359,0.17633896549804162,-2.68814526469195,99.99324471681705
6120,0.04569391412520922,0.03786770739880015,1.1204924609252762,-6.109960304752435,-20.419444713766087,-2.241985270301919,100.01763051935667
6140,0.09339383159428735,0.08702472093929853,1.1238502883402202,1.6463285092646873,4.93004815333813,5.750392506269904,99.967588358914
6160,-0.005457975450514865,-0.015372330094752135,1.101042032146004,21.623037660180806,-3.076851159350377,4.944868988123318,99.9827500022299
6180,0.28706101242998705,0.0033738084255026685,1.2089214828703325,8.637203351813458,12.424425980306987,19.823517297814846,99.97808376788308
6200,0.11997587513658337,0.023640549234927498,1.1295780914403004,-15.947196148198795,6.2994674170780804,-2.934684216325408,100.01363288754057
6220,0.06071381005062951,-0.003125108651740021,1.1868581963683789,-11.299291389796926,-1.2711833739637193,-8.583252062197866,100.02844135229164
6240,0.244375009532534,0.02013354137182738,1.1537465049962519,-11.01096639323724,-0.7827201973729262,9.590307943279473,100.01769280648037
6260,0.14106798855880465,-0.05854630479663006,1.117186568972625,-15.99827032929133,-14.304894405377333,15.028657949132892,99.96417502475254
6280,0.2850329987486411,0.022860599230535635,1.1613207216159618,-2.7613306418404546,2.5461931239142874,-9.399132186711423,100.02014923939998
6300,0.13750655750116497,0.0005776570924530078,1.023949259501435,21.050398639446605,-1.1240015668255852,5.618033977752294,99.9993512946421
6320,0.16747343186776883,0.03186170840777667,1.076757190825955,8.267551945322468,0.11474302752008822,11.267330837889023,99.98983509943828
6340,0.06805642051016142,-0.030526493834369173,0.9403432980525103,-4.285062403825217,-4.544965972731068,-5.449536927992975,100.01254070567998
6360,0.09067420043185843,-0.04067415532656334,0.9512060638872069,-11.08768122843331,-2.4742749455933337,-1.1936919862191564,99.99817240195091
6380,0.0035492251137442914,0.014195052363636346,0.9595295054893124,14.365051204013772,-11.081430175361708,-7.332659544571051,99.98282823569748
6400,-0.052207633881015694,0.05508853520308343,0.9676117007158823,-15.034871368456447,6.029586970097965,-13.727590954647017,100.0257026131265
6420,-0.14598609984037383,-0.017824078650232455,0.8729306538820935,10.39728408656173,-12.480242913338031,-20.825510496876753,99.99960798565337
6440,-0.15193563842556018,0.010608589678591367,0.7928855298516163,-2.9134474464269324,5.147091284328985,-14.499428845554151,100.00020735913667
6460,-0.19880555709657632,0.0652668301486542,0.8093040653079082,7.027670245694555,-3.62012942410296,-16.81231721819334,99.98025285098888
6480,-0.08004815620020604,0.04052109038506497,0.7777059472168133,-16.062009685110922,-13.22596868963916,14.665262532962586,100.01472896085703
6500,-0.1690473960487062,-0.14148053305820155,0.8883965848591671,12.938739326377668,7.024426386475287,5.430521839414004,100.01633158828885
6520,-0.1878658698653231,-0.0345405273633154,0.8510796579266405,-8.11085518041398,-8.262523979816525,-4.673635723842226,99.99247952291822
6540,-0.1405933214635763,0.0408523660971994,0.9125279921369351,1.4572863506061844,13.820072837077417,3.5638768972583152,99.99121628289457
6560,-0.1148833745144982,-0.04958002921141916,0.9652462228424207,-5.892826895563492,-5.962114132702393,-0.9264683725682936,100.01192062114116
6580,-0.21566761877068968,-0.07983635131876421,0.9786591303245953,-9.27101452242731,-18.056920216165814,-15.775745596481794,100.02403883643595
6600,-0.16378740158950944,0.0727463570175961,0.932049856549968,1.868712107852125,7.2091474493326295,-12.876762905779696,99.96397900017827
6620,-0.1551585026550608,0.04423424669506702,1.0287259779187747,-2.421952654118028,3.8727534302045736,27.259900365071136,100.0187671976137
6640,-0.020314334721108822,0.025623870782029975,1.0129886814141957,-4.1543102574147,8.361969017358899,1.131951948270529,99.97102664902263
6660,0.001063786608380149,-0.0036454328772083464,1.1162511769177672,0.8143168184324965,-9.178743207792873,-22.576139843701196,100.02238505718942
6680,-0.021351710743439927,0.05935222296883666,1.0322963919365926,-9.686240473871695,-3.402609024592621,-0.8728127640750863,100.01301510203957
6700,0.04428590376683997,0.047290110488492944,1.1463864742906005,2.6007970654959887,-4.155316919283633,18.276968425319197,100.01287745504558
6720,0.163896920481136,0.039411439746077165,1.166398266635792,1.3000275087253719,-5.246758402168634,-15.60684097567582,99.97366511593951
6740,0.1922182682247561,-0.01586833459125068,1.1289464824000084,3.277358466353469,-11.789859578635184,9.550549660774411,100.0076844979753
6760,0.1870314863999687,0.021297814521602367,1.239887802312289,4.972208138120972,-1.9885658160539916,12.100897845420285,99.99659590865379
6780,0.14986148605864347,-0.003951680760657972,1.2498852360273467,-4.524039403475154,14.9697222385157,-1.7681405645300488,99.96068033246257
6800,0.25890083670348896,-0.035114918244556814,1.1275683632701294,-4.258121489921115,-0.43756765084045346,6.783957797435742,100.01740146199576
6820,0.2304082326991775,-0.043398733820968885,1.12449696216817,7.658019676826555,-1.6226595210970516,14.522908549923638,100.01027625264977
6840,0.18591576692657233,0.03712597870127654,1.060798560604003,26.832904700170502,-1.7833827363727304,11.463838247446333,99.99651580328822
6860,0.14824059604529416,-0.035547689883471345,1.1412767672897943,7.338000190102261,21.87117979847727,-5.41067673586326,99.98625280105975
6880,0.0718630817598638,0.08795408694614626,0.9366637878958894,2.020120284978714,-12.945605421125236,-12.664572668015381,99.99110517531851
6900,0.1283324176657034,0.010952340978567576,0.9183851443500382,-12.176778501736802,-1.0311451807206962,18.323245280404397,99.99051905078831
6920,0.12768623427208137,0.10913472965555858,0.9152598995608464,-1.3345259080566971,-5.94012741724317,4.127842192090451,100.03030427205377
6940,0.0024890044635482523,-0.023211122893795955,0.9208353023472641,3.4256910738319943,3.426582255008754,-3.7726426991001145,100.02103306461143
6960,-0.029672239744076227,0.11302904082956322,0.9413628438402128,-9.234440570309173,-6.896219236514327,7.004121024878803,100.01098570630758
6980,-0.10289206893765664,-0.04024221896247344,0.8145200679307113,1.3442163897107258,7.175855106412092,12.4522251098633,99.9902439151338
7000,-0.1297231544016157,-0.05032722586675247,0.8886034945737106,5.5277898217112735,-19.98355860841895,-13.270168113192222,100.03634703803573
7020,-0.09697518800310677,0.009279449835015092,0.8711617314604326,-17.813058910972046,22.71764051828187,-8.618397174442714,100.05266286341019
7040,-0.20212630570936527,0.06447955204993282,0.8758211059486026,21.18226051853048,22.868920213691776,26.216778257193518,100.00596765819635
7060,-0.10340729824502125,0.03240819275001091,0.8775964014014098,3.3981752640181124,-18.33491919504568,3.223700661062342,100.00617507469855
7080,-0.10948964235134453,0.008149068746504432,0.9056723629977538,-3.4619732022799727,-10.743256556400993,-26.566015076541788,100.00534451700088
7100,-0.21779760618675828,0.028347737232092857,0.950420193998555,8.187901351801596,-2.363722597602888,-5.435177797096011,99.98381630702694
7120,-0.07593290332646786,0.0684124027956045,0.8880718471260028,-15.41189646396257,-3.1263529343173015,-0.9103429169341519,99.98759776448229
7140,-0.20984352851745705,0.06161844296143781,0.946113484825851,10.67629514644711,10.709578637627516,6.034229081194996,99.96576726812499
7160,-0.03007044748657073,-0.007177912334715885,0.9063535487294518,-7.112095686759804,9.4972162278039,12.124074064350015,100.00022806847839
7180,-0.08590656920516493,0.06584324065016457,1.0642958723706586,13.383314715736645,39.467414302965274,2.1178877943419456,99.98313007052117
7200,-0.14501852689930256,-0.03878412751715594,1.0307232823618107,16.043045582497342,1.472015414503327,-11.237990115955142,99.95582096434855
7220,0.014166936804576959,0.0633192218401881,1.1008691623526656,-6.476870551808399,9.353922089947627,-2.772858809109296,100.01730852759411
7240,0.0908788790652844,-0.06005656017077171,1.0775301153959913,5.804332027944546,28.31187422861179,26.05918237565338,99.99647238573807
7260,0.04026295419021922,-0.007159037672643347,1.1627275388430394,13.657733270696294,4.78237629700996,-3.079963893407702,100.01433631131299
7280,0.14237240966720632,-0.029326768798575625,1.197570479567145,-7.092566969861822,23.2122959489328,-1.0425469373065757,99.99523118929818
7300,0.10165403403062312,0.07097793552177899,1.1266870685200712,-9.019365029866321,6.276650563905716,-1.4394984647081293,100.01383118570416
7320,0.20803389835614977,-0.04886197799023213,1.2023313197278842,14.484797824814132,-4.729679111419298,8.859944388713727,99.99214157095658
7340,0.2202916502622843,-0.12180975653360367,1.1877925276317702,1.304468635707222,16.818996572281584,9.568900199837323,100.00044196276558
7360,0.2789180028035647,-0.007568524882071207,1.1483678515401767,-17.5760791587491,9.748908422426505,-14.157992269943671,99.98152509259091
7380,0.11021231133483969,0.024856812181777016,1.081750752539021,10.687271216109313,-4.972657521561661,14.912991987027624,99.962579693106
7400,0.1585698493709921,0.014073213522576442,1.129086383608601,-0.7018267874765831,-4.031139217601707,2.700802567504411,99.96063501502829
7420,0.10713914973134542,-0.008550029341798064,1.0890200708088185,6.550567923727399,-23.94682847690058,-2.7825238890183823,99.98866310517998
7440,0.1860349412379158,0.07254945570761019,0.9855812019426207,3.2870635643815067,-3.2990953304253106,-3.5246779148263703,99.98450914127098
7460,0.054273107419685405,-0.05615826723637088,0.9521985104033349,-5.5996922642140206,4.228132958522778,-16.907170238564923,100.00467253501348
7480,0.15918716137095115,-0.03768263823339059,0.9939487048266421,6.693043517114502,-3.7360697649988714,-5.02443106230319,100.02433587252703
7500,-0.021186401997690247,-0.05042361781606704,0.9243349244966598,-9.75159537542211,-5.180456362063251,6.9691531195303575,99.98276285810118
7520,0.0025503513368209524,0.019460227582497786,0.8297156859997846,6.593508958539504,6.681012523305543,8.117354416495756,99.97046483368649
7540,-0.06984805018515387,0.0528305583553752,0.9659650419594482,6.249624166711442,-1.0020686305580675,-5.780859027113314,100.01911515320731
7560,-0.11767100883997883,-0.05203750141603197,0.9411459480450706,-13.436732790242546,9.420091555850997,-1.5378216374174527,100.01659092329805
7580,-0.23032277026703257,-0.03305491312861741,0.952447349282805,6.840828325883306,-12.199009552366165,3.064307368828354,100.02306556132012
7600,-0.11527620594005604,0.049499294436908835,0.7591448065571788,4.544007417840131,-2.2181426464819762,-11.885996253354191,100.00169699259857
7620,-0.19394070722922857,0.09948284213147546,0.8440384352288488,27.497299061812413,11.722796710584257,-20.147446221074738,99.97920680236076
7640,-0.15985740214045277,-0.07348661404697349,0.8488351609971321,2.7284366112872966,17.495488344015243,6.979865756594462,100.00183065508631
7660,-0.15283568352024382,0.02478088320339858,0.8544204087621042,2.181152821887166,0.03444654322648264,-13.023132079655072,99.98366816415272
7680,-0.10566877001970233,-0.022242569446124807,0.9424419706496033,3.9082423359485494,11.524507050012652,-15.861497263161954,100.00268284529463
7700,-0.17247222365123718,0.03352914433946293,0.9583114165565264,1.5998153038295626,11.083752097127238,-21.117041398373683,99.97489617957362
7720,-0.08002721869919437,-0.02859923128915226,0.92661553122414,-12.21470347294715,1.4136487286120618,-20.800823761871577,100.01623395211185
7740,-0.18877061526603156,-0.022160062513426133,1.0692636543452658,3.478311877434722,8.44039021834903,-4.614788723921372,99.98221799516685
7760,0.000273914925253152,-0.012773268530645646,1.0230556168429659,-9.67350461816849,-2.0557778117535785,16.558597617512397,100.00876842911
7780,0.00576815782018425,-0.0009288408667537,1.0500951559934693,-7.002600485305253,6.939050239915719,5.452194740590297,99.9862455104637
7800,0.09718459060839893,0.0078005772971192645,1.0617437640515575,6.667674566863598,19.04754194390036,12.249690640341207,100.0294449436015
7820,0.12151471161325085,0.0487664358019949,1.17323592604224,-8.293179398971938,5.48793065397124,-20.409454627376228,99.98664796841916
7840,0.10744134541798958,0.012472802544587318,1.104679292153374,3.49781950129353,23.65588080496625,-1.476898894050199,99.99403979946409
7860,0.1406644526762424,-0.0671692649864903,1.0914290005237821,-19.697630721073118,23.647100267817,-7.777668748409636,99.99548715230561
7880,0.18841835305279536,-0.0253998645355837,1.146223763848631,2.000478899949114,-8.159855263942386,-4.01315951609905,100.02296799807048
7900,0.18605455322256317,-0.005476795592552117,1.1521974633368044,1.0779716873661616,8.451624096881853,-3.7042380323777557,99.98538082499691
7920,0.17525974804232708,-0.07781205264387406,1.0548987977233277,10.425533243126825,23.962766340861084,2.6089258378559688,100.01037936756377
7940,0.17817170968571366,0.07169197366590904,1.1300650360506126,4.750008280127654,1.6971268058590412,8.8552805271882,100.00704908008255
7960,0.2726674401364261,-0.012298922350824063,1.1030626613252896,-1.901774562867431,12.075973718554373,16.767728903953245,100.01596581227894
7980,0.19631689958206835,0.04991982073861296,1.0676046772640515,3.0858795477551695,-9.774832940728677,-3.975936895620264,99.99156992834361
