time,seconds_elapsed,z,y,x
1776228781820300000,0.064300048828125,-0.828826904296875,-0.145263671875,0.1667022705078125
1776228781840151000,0.084151123046875,-0.5631561279296875,-0.3646240234375,0.275482177734375
1776228781860002000,0.104001953125,-0.718170166015625,-0.5092315673828125,0.1021270751953125
1776228781879852000,0.12385205078125,-0.6314544677734375,-0.414031982421875,0.1103515625
1776228781899703000,0.143703125,-0.5892791748046875,-0.3233795166015625,0.0636444091796875
1776228781919554000,0.163553955078125,-0.499298095703125,-0.2484893798828125,0.1512908935546875
1776228781939405000,0.183405029296875,-0.555145263671875,-0.2542572021484375,0.1269378662109375
1776228781959256000,0.203256103515625,-0.735260009765625,-0.426727294921875,0.047149658203125
1776228781979106300,0.223106201171875,-0.7301025390625,-0.5534820556640625,0.0529327392578125
1776228781998957000,0.24295703125,-0.7557525634765625,-0.4144287109375,0.214630126953125
1776228782018808000,0.26280810546875,-0.58795166015625,-0.1903228759765625,0.4388580322265625
1776228782038659000,0.2826591796875,-0.561859130859375,-0.3376617431640625,0.462982177734375
1776228782058509000,0.302509033203125,-0.77783203125,-0.4091339111328125,0.450653076171875
1776228782078360000,0.322360107421875,-1.0186309814453125,-0.37371826171875,0.4547119140625
1776228782098211000,0.342211181640625,-1.0895233154296875,-0.332366943359375,0.44696044921875
1776228782118062000,0.36206201171875,-1.145904541015625,-0.3091888427734375,0.3859405517578125
1776228782137913000,0.3819130859375,-1.246612548828125,-0.2763214111328125,0.09454345703125
1776228782157763000,0.40176318359375,-1.3740997314453125,-0.3868408203125,0.06207275390625
1776228782177614000,0.421614013671875,-1.3635711669921875,-0.4671783447265625,0.188629150390625
1776228782197465000,0.441465087890625,-1.384552001953125,-0.552581787109375,-0.0601806640625
1776228782217316000,0.461316162109375,-1.521392822265625,-0.698272705078125,-0.1908721923828125
1776228782237167000,0.4811669921875,-1.3917083740234375,-0.779815673828125,-0.21533203125
1776228782257017000,0.50101708984375,-1.3136749267578125,-0.902984619140625,-0.0951690673828125
1776228782276868000,0.5208681640625,-1.3670501708984375,-0.782928466796875,0.2046051025390625
1776228782296719000,0.540718994140625,-1.3553466796875,-0.9087371826171875,0.3287506103515625
1776228782316570000,0.560570068359375,-1.3460540771484375,-0.8657073974609375,0.497833251953125
1776228782336420000,0.580420166015625,-1.33282470703125,-0.7657012939453125,0.53997802734375
1776228782356271000,0.60027099609375,-1.2735748291015625,-0.5171356201171875,0.6412353515625
1776228782376122000,0.6201220703125,-1.180145263671875,-0.4973602294921875,0.69805908203125
1776228782395972900,0.639972900390625,-1.014495849609375,-0.4310150146484375,0.89794921875
1776228782415824100,0.65982421875,-0.815032958984375,-0.3281707763671875,0.9720458984375
1776228782435674000,0.679674072265625,-0.52935791015625,-0.2380218505859375,0.841339111328125
1776228782455525000,0.699525146484375,-0.2653350830078125,-0.140289306640625,0.7769622802734375
1776228782475376000,0.719376220703125,-0.00323486328125,-0.0599517822265625,0.63275146484375
1776228782495227100,0.73922705078125,0.114501953125,0.01983642578125,0.4217987060546875
1776228782515078100,0.759078125,-0.0619354248046875,0.207733154296875,0.3721160888671875
1776228782534928100,0.77892822265625,-0.0588836669921875,0.3721923828125,0.2979736328125
1776228782554779100,0.798779052734375,-0.0516510009765625,0.3258056640625,0.2564849853515625
1776228782574630100,0.818630126953125,0.1157073974609375,0.2723388671875,0.380950927734375
1776228782594481000,0.83848095703125,0.176361083984375,0.2216033935546875,0.47991943359375
1776228782614332000,0.858331787109375,0.253204345703125,0.1774749755859375,0.6900482177734375
1776228782634182000,0.878181884765625,0.2551116943359375,0.2101593017578125,0.982086181640625
1776228782654033200,0.898033203125,0.024749755859375,0.041656494140625,1.0674896240234375
1776228782673884200,0.91788427734375,-0.2520904541015625,-0.267059326171875,1.1788787841796875
1776228782693735200,0.937735107421875,-0.5103607177734375,-0.579193115234375,1.5256195068359375
1776228782713586200,0.957586181640625,-0.9080352783203125,-0.8401336669921875,1.9418792724609375
1776228782733436200,0.977436279296875,-1.6208343505859375,-1.326751708984375,1.8429412841796875
1776228782753287200,0.997287109375,-1.7802276611328125,-1.64544677734375,1.43780517578125
1776228782773138000,1.017137939453125,-1.5241851806640625,-1.92315673828125,0.763946533203125
1776228782792989000,1.036989013671875,-1.3613433837890625,-2.3053131103515625,0.3144378662109375
1776228782812840000,1.05683984375,-1.6045989990234375,-2.2005615234375,0.3778076171875
1776228782832690000,1.07668994140625,-2.0192718505859375,-1.9997406005859375,0.56982421875
1776228782852541000,1.096541015625,-1.86181640625,-1.7272186279296875,0.872406005859375
1776228782872392000,1.116391845703125,-1.2106781005859375,-1.4105224609375,1.15283203125
1776228782892243000,1.136242919921875,-0.72784423828125,-0.97283935546875,1.25225830078125
1776228782912094000,1.156093994140625,-0.401214599609375,-0.5297393798828125,1.166778564453125
1776228782931944000,1.17594384765625,-0.219879150390625,-0.186737060546875,1.108734130859375
1776228782951795000,1.195794921875,-0.295440673828125,0.0345306396484375,1.09283447265625
1776228782971646000,1.21564599609375,-0.417816162109375,0.212738037109375,1.1956634521484375
1776228782991496700,1.23549658203125,-0.2990875244140625,0.41058349609375,1.134307861328125
1776228783011348000,1.255347900390625,-0.038665771484375,0.35833740234375,0.7516937255859375
1776228783031197700,1.27519775390625,0.2430877685546875,0.26776123046875,0.5077056884765625
1776228783051049000,1.295049072265625,0.386749267578125,0.19732666015625,0.3824920654296875
1776228783070900000,1.31489990234375,0.357757568359375,0.136871337890625,0.4035797119140625
1776228783090751000,1.3347509765625,0.32037353515625,0.2014312744140625,0.557861328125
1776228783110602000,1.35460205078125,0.3811798095703125,0.2357177734375,0.5239715576171875
1776228783130452000,1.374451904296875,0.4141387939453125,0.239990234375,0.3984222412109375
1776228783150303000,1.394302978515625,0.2836151123046875,0.1396484375,0.3866424560546875
1776228783170154000,1.414154052734375,0.0821075439453125,0.110595703125,1.0435943603515625
1776228783190004700,1.434004638671875,0.032318115234375,0.0584869384765625,1.75750732421875
1776228783209855700,1.453855712890625,-0.000030517578125,-0.1786956787109375,1.9294586181640625
1776228783229705700,1.473705810546875,-0.16693115234375,-0.3868255615234375,1.8477783203125
1776228783249557000,1.493556884765625,-0.2265625,-0.3671417236328125,1.6453094482421875
1776228783269408000,1.513407958984375,-0.2873992919921875,-0.3560638427734375,1.2852020263671875
1776228783289259000,1.533259033203125,-0.3995361328125,-0.438507080078125,0.9211578369140625
1776228783309110000,1.553110107421875,-0.6112518310546875,-0.7651519775390625,0.764617919921875
1776228783328960800,1.572960693359375,-1.1441497802734375,-1.1864471435546875,1.08905029296875
1776228783348811000,1.59281103515625,-1.253570556640625,-1.50103759765625,1.310760498046875
1776228783368661800,1.612661865234375,-1.1901397705078125,-1.7180023193359375,1.2403411865234375
1776228783388512800,1.6325126953125,-1.028228759765625,-1.8301849365234375,0.89306640625
1776228783408363800,1.65236376953125,-0.878814697265625,-1.7742919921875,0.6498565673828125
1776228783428214800,1.67221484375,-1.0461578369140625,-1.586334228515625,0.5308380126953125
1776228783448064800,1.692064697265625,-1.432708740234375,-1.3641510009765625,0.5507659912109375
1776228783467916000,1.711916015625,-1.3070831298828125,-1.2187042236328125,0.557098388671875
1776228783487767000,1.73176708984375,-0.9079742431640625,-1.1379852294921875,0.4301605224609375
1776228783507618000,1.7516181640625,-0.7677459716796875,-0.9212493896484375,0.55615234375
1776228783527468800,1.77146875,-0.884857177734375,-0.6055450439453125,0.872650146484375
1776228783547319000,1.791319091796875,-0.9299774169921875,-0.5729217529296875,1.0926971435546875
1776228783567169800,1.811169677734375,-0.47296142578125,-0.338043212890625,1.17596435546875
1776228783587020800,1.831020751953125,-0.2466278076171875,-0.1669921875,1.024627685546875
1776228783606871800,1.850871826171875,-0.18994140625,-0.0995635986328125,0.862762451171875
1776228783626722800,1.870722900390625,-0.2246551513671875,-0.03955078125,0.7133026123046875
1776228783646574000,1.890573974609375,-0.2652740478515625,0.0907135009765625,0.593597412109375
1776228783666423800,1.910423828125,-0.3665924072265625,0.2095794677734375,0.3928070068359375
1776228783686275000,1.930275146484375,-0.215728759765625,0.2082366943359375,0.4612579345703125
1776228783706126000,1.9501259765625,0.276397705078125,0.2005157470703125,0.4163360595703125
1776228783725976800,1.969976806640625,0.473236083984375,0.2349853515625,0.3292388916015625
1776228783745827800,1.989827880859375,0.0950469970703125,0.4260711669921875,0.76446533203125
1776228783765677800,2.009677734375,0.09130859375,0.4301300048828125,1.1668701171875
1776228783785528800,2.02952880859375,0.40777587890625,0.2964630126953125,1.1083831787109375
1776228783805379800,2.0493798828125,0.24139404296875,0.2305145263671875,1.381011962890625
1776228783825230800,2.06923095703125,-0.3145751953125,0.0821075439453125,1.7695159912109375
1776228783845082000,2.08908203125,-0.666534423828125,-0.11328125,1.7390899658203125
1776228783864933000,2.10893310546875,-0.82464599609375,-0.27862548828125,1.4465789794921875
1776228783884783000,2.128783203125,-0.7520904541015625,-0.3603515625,1.2359771728515625
1776228783904634000,2.148634033203125,-0.6612091064453125,-0.464080810546875,1.0607147216796875
1776228783924484900,2.16848486328125,-0.844970703125,-0.7398529052734375,0.8268585205078125
1776228783944336000,2.1883359375,-1.2828826904296875,-1.0819854736328125,0.762664794921875
1776228783964187100,2.208187255859375,-1.6459503173828125,-1.51226806640625,1.0712127685546875
1776228783984036900,2.228036865234375,-1.6401824951171875,-1.67431640625,1.5236663818359375
1776228784003888000,2.24788818359375,-1.3933868408203125,-2.01910400390625,1.2908172607421875
1776228784023739100,2.2677392578125,-1.0498809814453125,-2.2694244384765625,0.738677978515625
1776228784043590100,2.287590087890625,-1.379241943359375,-2.138580322265625,0.2707672119140625
1776228784063441200,2.307441162109375,-2.24371337890625,-1.6082305908203125,0.331695556640625
1776228784083291100,2.327291015625,-2.45098876953125,-1.2219696044921875,0.7493133544921875
1776228784103142100,2.34714208984375,-1.7694549560546875,-0.73858642578125,1.2469940185546875
1776228784122993000,2.366992919921875,-0.8039703369140625,-0.2988739013671875,1.2866668701171875
1776228784142844000,2.386843994140625,-0.195526123046875,0.01141357421875,1.140472412109375
1776228784162695000,2.40669482421875,0.0339813232421875,0.25054931640625,1.15594482421875
1776228784182546200,2.426546142578125,-0.060150146484375,0.4633026123046875,1.182525634765625
1776228784202396000,2.44639599609375,-0.140869140625,0.6463623046875,1.064117431640625
1776228784222247200,2.4662470703125,-0.117095947265625,0.680572509765625,0.9467620849609375
1776228784242098200,2.48609814453125,0.064239501953125,0.7580718994140625,0.8877105712890625
1776228784261949200,2.50594921875,0.341522216796875,0.678314208984375,0.5049285888671875
1776228784281800000,2.525800048828125,0.5475921630859375,0.4608306884765625,0.127655029296875
1776228784301651000,2.54565087890625,0.5942230224609375,0.318756103515625,0.1081085205078125
1776228784321501000,2.5655009765625,0.52081298828125,0.3019256591796875,0.3784027099609375
1776228784341352000,2.58535205078125,0.2926788330078125,0.5316619873046875,1.008331298828125
1776228784361203000,2.605202880859375,-0.0027313232421875,0.5447998046875,1.3428497314453125
1776228784381054000,2.625053955078125,-0.113311767578125,0.4224700927734375,1.3970184326171875
1776228784400905200,2.6449052734375,-0.50335693359375,0.2406463623046875,1.7528839111328125
1776228784420756200,2.664756103515625,-0.8336639404296875,-0.0508575439453125,2.09075927734375
1776228784440606200,2.684606201171875,-0.5955352783203125,-0.2739105224609375,2.039276123046875
1776228784460457000,2.70445703125,-0.4588623046875,-0.46514892578125,1.7761993408203125
1776228784480308000,2.724307861328125,-0.4327850341796875,-0.557525634765625,1.361785888671875
1776228784500159000,2.744158935546875,-0.522003173828125,-0.6410369873046875,0.9734954833984375
1776228784520010000,2.764010009765625,-0.7293548583984375,-0.7954864501953125,0.801788330078125
1776228784539860000,2.78385986328125,-1.032012939453125,-1.162994384765625,0.8767547607421875
1776228784559711000,2.8037109375,-1.4533843994140625,-1.6342315673828125,0.9891204833984375
1776228784579562000,2.82356201171875,-1.753448486328125,-1.987274169921875,1.1356964111328125
1776228784599413000,2.8434130859375,-1.492095947265625,-2.169036865234375,1.3266754150390625
1776228784619264000,2.863263916015625,-0.9461822509765625,-2.107330322265625,1.3323516845703125
1776228784639115000,2.883114990234375,-0.8961334228515625,-1.8600311279296875,1.2270050048828125
1776228784658965000,2.902965087890625,-1.2320404052734375,-1.517486572265625,1.2977142333984375
1776228784678816000,2.92281591796875,-1.388397216796875,-1.1907501220703125,1.199676513671875
1776228784698667000,2.9426669921875,-1.2167816162109375,-0.824737548828125,1.161529541015625
1776228784718518000,2.96251806640625,-0.892181396484375,-0.457763671875,1.1983184814453125
1776228784738369000,2.982369140625,-0.5134124755859375,-0.1400604248046875,1.21258544921875
1776228784758220000,3.002219970703125,-0.2738037109375,0.0845947265625,1.2837371826171875
1776228784778070000,3.022070068359375,-0.143218994140625,0.2924652099609375,1.3586883544921875
1776228784797921000,3.041921142578125,-0.045562744140625,0.4958343505859375,1.3311004638671875
1776228784817772000,3.06177197265625,0.055938720703125,0.6518096923828125,1.166412353515625
1776228784837622500,3.08162255859375,0.2128753662109375,0.64935302734375,0.8796234130859375
1776228784857473500,3.1014736328125,0.4041748046875,0.5483245849609375,0.454742431640625
1776228784877323500,3.121323486328125,0.6019439697265625,0.255035400390625,0.0167388916015625
1776228784897174500,3.141174560546875,0.610931396484375,0.138580322265625,-0.0157623291015625
1776228784917025500,3.161025634765625,0.483734130859375,0.242156982421875,0.1258697509765625
1776228784936876800,3.180876708984375,0.4243927001953125,0.3956146240234375,0.3392333984375
1776228784956727800,3.200727783203125,0.305267333984375,0.498565673828125,0.58880615234375
1776228784976578800,3.220578857421875,0.1038818359375,0.390838623046875,0.7503509521484375
1776228784996428800,3.2404287109375,-0.304168701171875,0.202880859375,1.4049835205078125
1776228785016279800,3.26027978515625,-0.4125518798828125,-0.067596435546875,2.0664825439453125
1776228785036130600,3.280130615234375,-0.0406341552734375,-0.243560791015625,2.285003662109375
1776228785055981600,3.299981689453125,-0.0214996337890625,-0.4562225341796875,1.7856597900390625
1776228785075832600,3.31983251953125,-0.2102508544921875,-0.5217132568359375,1.2996978759765625
1776228785095683600,3.33968359375,-0.4048614501953125,-0.60186767578125,0.9415435791015625
1776228785115533600,3.359533447265625,-0.5610198974609375,-0.7707977294921875,0.7867279052734375
1776228785135384600,3.379384521484375,-1.0047149658203125,-1.032867431640625,0.821258544921875
1776228785155235800,3.39923583984375,-1.6368408203125,-1.532257080078125,1.1665191650390625
1776228785175086800,3.4190869140625,-1.6282196044921875,-2.031341552734375,1.5764007568359375
1776228785194937600,3.4389375,-1.1941375732421875,-2.297027587890625,1.700469970703125
1776228785214788600,3.45878857421875,-1.03485107421875,-2.1895751953125,1.7635955810546875
1776228785234638600,3.478638671875,-1.0941925048828125,-1.9028778076171875,1.550048828125
1776228785254489600,3.498489501953125,-1.128143310546875,-1.5868988037109375,1.168304443359375
1776228785274340600,3.518340576171875,-1.1483612060546875,-1.2271270751953125,0.9817352294921875
1776228785294191600,3.538191650390625,-1.147918701171875,-0.871337890625,1.0947113037109375
1776228785314042600,3.558042724609375,-0.8772735595703125,-0.48504638671875,1.2491912841796875
1776228785333892600,3.577892578125,-0.4781646728515625,-0.1201171875,1.33709716796875
1776228785353743600,3.59774365234375,-0.1030426025390625,0.1759033203125,1.3226776123046875
1776228785373595000,3.617594970703125,0.1644439697265625,0.4172210693359375,1.2014007568359375
1776228785393445600,3.637445556640625,0.2585296630859375,0.5877227783203125,1.012908935546875
1776228785413296600,3.657296630859375,0.3191070556640625,0.705657958984375,0.784759521484375
1776228785433147600,3.677147705078125,0.4036102294921875,0.6523895263671875,0.40509033203125
1776228785452997600,3.69699755859375,0.459686279296875,0.4495086669921875,-0.0287322998046875
1776228785472848600,3.7168486328125,0.491119384765625,0.1940155029296875,-0.322479248046875
1776228785492699600,3.73669970703125,0.56304931640625,0.1595306396484375,-0.1733245849609375
1776228785512550700,3.756550537109375,0.476837158203125,0.2880706787109375,0.0841827392578125
1776228785532401700,3.776401611328125,0.3752899169921875,0.4911651611328125,0.4629058837890625
1776228785552252700,3.796252685546875,0.2094573974609375,0.531036376953125,0.6649932861328125
1776228785572102700,3.8161025390625,0.095611572265625,0.5104217529296875,1.0345001220703125
1776228785591953700,3.83595361328125,-0.04962158203125,0.3723297119140625,1.69598388671875
1776228785611804700,3.8558046875,-0.08001708984375,0.11181640625,2.1399383544921875
1776228785631655700,3.87565576171875,-0.14459228515625,-0.12353515625,2.1568145751953125
1776228785651506700,3.895506591796875,-0.1981964111328125,-0.3855743408203125,1.8931121826171875
1776228785671357700,3.915357666015625,-0.14697265625,-0.532928466796875,1.4277191162109375
1776228785691207700,3.935207763671875,-0.23394775390625,-0.6522674560546875,1.1141204833984375
1776228785711058700,3.95505859375,-0.4486236572265625,-0.8876495361328125,1.0653076171875
1776228785730909700,3.97490966796875,-0.751129150390625,-1.324371337890625,1.458770751953125
1776228785750760400,3.994760498046875,-1.072540283203125,-1.784820556640625,1.8681182861328125
1776228785770611700,4.01461181640625,-1.038421630859375,-2.120391845703125,1.840545654296875
1776228785790462700,4.034462646484375,-0.8777923583984375,-2.2207794189453125,1.5986785888671875
1776228785810312700,4.054312744140625,-0.879791259765625,-2.0426177978515625,1.40118408203125
1776228785830163700,4.074163818359375,-1.0047607421875,-1.787322998046875,1.3401336669921875
1776228785850015700,4.094015625,-1.0202789306640625,-1.535369873046875,1.3563995361328125
1776228785869866500,4.113866455078125,-0.904998779296875,-1.253021240234375,1.3077850341796875
1776228785889717500,4.133717529296875,-0.6711578369140625,-0.88458251953125,1.1697998046875
1776228785909568500,4.153568603515625,-0.4355316162109375,-0.52740478515625,1.0302886962890625
1776228785929418500,4.17341845703125,-0.2451324462890625,-0.2570037841796875,0.9884033203125
1776228785949269500,4.19326953125,-0.1242523193359375,-0.0040130615234375,1.0665740966796875
1776228785969120500,4.21312060546875,-0.0276641845703125,0.1978607177734375,1.07440185546875
1776228785988971500,4.232971435546875,0.0509490966796875,0.36810302734375,1.0691375732421875
1776228786008822500,4.252822509765625,0.05352783203125,0.57415771484375,1.065399169921875
1776228786028673500,4.272673583984375,0.175872802734375,0.6018218994140625,0.73553466796875
1776228786048523500,4.2925234375,0.3932037353515625,0.450225830078125,0.2616729736328125
1776228786068374500,4.31237451171875,0.674102783203125,0.2225341796875,-0.083343505859375
1776228786088225500,4.3322255859375,0.844146728515625,0.0632781982421875,-0.0673980712890625
1776228786108076500,4.35207666015625,0.747100830078125,0.201324462890625,0.2665863037109375
1776228786127927600,4.371927490234375,0.5601348876953125,0.348388671875,0.629547119140625
1776228786147778600,4.391778564453125,0.2584991455078125,0.3450927734375,0.7916107177734375
1776228786167628500,4.411628662109375,0.075775146484375,0.270599365234375,1.0316619873046875
1776228786187479600,4.4314794921875,-0.1005706787109375,0.113006591796875,1.4556427001953125
1776228786207330600,4.45133056640625,-0.150543212890625,-0.0198822021484375,1.9205169677734375
1776228786227181300,4.471181396484375,0.070770263671875,-0.0283203125,1.9992218017578125
1776228786247032600,4.491032470703125,0.092864990234375,-0.05963134765625,1.5568695068359375
1776228786266882300,4.51088232421875,-0.1090545654296875,-0.0697784423828125,1.2401123046875
1776228786286733600,4.530733642578125,-0.460479736328125,-0.034454345703125,1.2577667236328125
1776228786306584600,4.55058447265625,-0.8464813232421875,-0.0533599853515625,1.3448486328125
1776228786326435600,4.570435546875,-0.936370849609375,-0.3058013916015625,1.2565765380859375
1776228786346286600,4.59028662109375,-1.0036468505859375,-0.78741455078125,1.3950958251953125
1776228786366137600,4.6101376953125,-1.135711669921875,-1.3041839599609375,1.8687591552734375
1776228786385987600,4.629987548828125,-0.9714508056640625,-1.5790252685546875,2.3775787353515625
1776228786405838600,4.649838623046875,-0.70672607421875,-1.6971893310546875,2.274566650390625
1776228786425689300,4.669689453125,-0.6808013916015625,-1.70941162109375,1.653076171875
1776228786445540400,4.689540283203125,-0.7241363525390625,-1.5199127197265625,1.2022857666015625
1776228786465391600,4.7093916015625,-0.896820068359375,-1.2591705322265625,0.896240234375
1776228786485242600,4.72924267578125,-0.9449005126953125,-1.0174713134765625,0.6539154052734375
1776228786505092600,4.749092529296875,-0.7714691162109375,-0.760772705078125,0.5082244873046875
1776228786524943600,4.768943603515625,-0.3973236083984375,-0.4569244384765625,0.4350738525390625
1776228786544794600,4.788794677734375,-0.0092926025390625,-0.1062469482421875,0.38446044921875
1776228786564645600,4.808645751953125,0.250701904296875,0.140960693359375,0.320343017578125
1776228786584496400,4.828496337890625,0.3487091064453125,0.3851470947265625,0.408416748046875
1776228786604347400,4.848347412109375,0.3519134521484375,0.5367279052734375,0.49188232421875
1776228786624197400,4.868197265625,0.3878631591796875,0.51788330078125,0.3629913330078125
1776228786644048400,4.88804833984375,0.42608642578125,0.4381103515625,0.121978759765625
1776228786663899400,4.9078994140625,0.3756256103515625,0.420135498046875,0.0231475830078125
1776228786683750700,4.927750732421875,0.1620025634765625,0.2173309326171875,0.150177001953125
1776228786703601700,4.9476015625,-0.16754150390625,0.2501678466796875,0.988006591796875
1776228786723452700,4.96745263671875,-0.339752197265625,0.1458892822265625,1.597259521484375
1776228786743302700,4.987302734375,-0.009735107421875,0.053192138671875,1.5948486328125
1776228786763153700,5.007153564453125,0.258209228515625,-0.08935546875,1.4002838134765625
1776228786783004400,5.02700439453125,-0.009490966796875,-0.1182708740234375,1.7537689208984375
1776228786802855400,5.04685546875,-0.64300537109375,-0.222930908203125,2.22344970703125
1776228786822706400,5.06670654296875,-0.600738525390625,-0.3154449462890625,2.2680816650390625
1776228786842556200,5.08655615234375,-0.146728515625,-0.4936370849609375,1.552032470703125
1776228786862407200,5.1064072265625,0.1978302001953125,-0.516387939453125,1.1811065673828125
1776228786882258200,5.126258056640625,0.0093994140625,-0.4720001220703125,1.1700592041015625
1776228786902109200,5.146109130859375,-0.3233489990234375,-0.4985809326171875,1.213623046875
1776228786921960200,5.165960205078125,-0.4609222412109375,-0.655029296875,1.1768035888671875
1776228786941811200,5.185811279296875,-0.4181671142578125,-0.885162353515625,1.2937164306640625
1776228786961661200,5.2056611328125,-0.378448486328125,-1.1677398681640625,1.3957061767578125
1776228786981512200,5.22551220703125,-0.356781005859375,-1.3132476806640625,1.45697021484375
1776228787001363200,5.24536328125,-0.3527069091796875,-1.39788818359375,1.3867645263671875
1776228787021214200,5.265214111328125,-0.3708343505859375,-1.4043731689453125,1.142913818359375
1776228787041065200,5.285065185546875,-0.4965362548828125,-1.3566741943359375,0.8670196533203125
1776228787060916200,5.304916259765625,-0.7181396484375,-1.3523406982421875,0.5860443115234375
1776228787080766200,5.32476611328125,-0.72198486328125,-1.2532501220703125,0.558013916015625
1776228787100617200,5.3446171875,-0.50238037109375,-1.0629425048828125,0.67242431640625
1776228787120468200,5.36446826171875,-0.09765625,-0.8249969482421875,0.71722412109375
1776228787140319200,5.3843193359375,0.2118988037109375,-0.62811279296875,0.7824859619140625
1776228787160170000,5.404169921875,0.32476806640625,-0.507568359375,0.860015869140625
1776228787180021200,5.424021240234375,0.2979736328125,-0.496856689453125,0.8868255615234375
1776228787199871200,5.443871337890625,0.14129638671875,-0.60345458984375,0.8591156005859375
1776228787219722200,5.46372216796875,0.015960693359375,-0.7577667236328125,0.9252166748046875
1776228787239573200,5.4835732421875,-0.0637969970703125,-0.7280120849609375,0.9588470458984375
1776228787259424300,5.50342431640625,0.00555419921875,-0.6421051025390625,0.94866943359375
1776228787279275300,5.523275146484375,0.122650146484375,-0.5753936767578125,0.754852294921875
1776228787299126300,5.543126220703125,0.2152557373046875,-0.458709716796875,0.5224609375
1776228787318976300,5.562976318359375,0.1758270263671875,-0.2512359619140625,0.3536224365234375
1776228787338827000,5.582826904296875,0.119903564453125,-0.0909576416015625,0.1563568115234375
1776228787358678000,5.602677978515625,0.19525146484375,0.032012939453125,-0.0217437744140625
1776228787378529300,5.622529296875,0.3477020263671875,0.0982818603515625,-0.114105224609375
1776228787398380300,5.64238037109375,0.4887847900390625,0.1530303955078125,-0.111785888671875
1776228787418231300,5.662231201171875,0.482696533203125,0.2017059326171875,-0.009490966796875
1776228787438081300,5.682081298828125,0.34027099609375,0.1942901611328125,0.1296844482421875
1776228787457932300,5.701932373046875,0.1168212890625,0.160614013671875,0.4736480712890625
1776228787477783300,5.721783203125,-0.090423583984375,0.0376739501953125,0.8786468505859375
1776228787497634000,5.741634033203125,-0.2264404296875,-0.139862060546875,1.23529052734375
1776228787517485000,5.761485107421875,-0.2282257080078125,-0.4019927978515625,1.32830810546875
1776228787537336000,5.781336181640625,-0.176177978515625,-0.6101226806640625,1.4911346435546875
1776228787557186000,5.80118603515625,-0.065826416015625,-0.831573486328125,1.6277008056640625
1776228787577037000,5.821037109375,-0.072723388671875,-1.079620361328125,1.5263671875
1776228787596888300,5.840888427734375,-0.2570953369140625,-1.284393310546875,1.52069091796875
1776228787616739300,5.8607392578125,-0.5048065185546875,-1.459320068359375,1.7090606689453125
1776228787636590300,5.88059033203125,-0.4451141357421875,-1.5284271240234375,1.8861236572265625
1776228787656441000,5.900441162109375,-0.15924072265625,-1.6219329833984375,1.341766357421875
1776228787676291300,5.920291259765625,-0.2795257568359375,-1.663543701171875,0.695281982421875
1776228787696142000,5.94014208984375,-0.8145294189453125,-1.682861328125,0.336761474609375
1776228787715993000,5.9599931640625,-1.3733978271484375,-1.63812255859375,0.3457794189453125
1776228787735844000,5.979843994140625,-1.509918212890625,-1.464599609375,0.5705718994140625
1776228787755695000,5.999695068359375,-1.231048583984375,-1.2513885498046875,0.5879058837890625
1776228787775545000,6.019545166015625,-0.7880706787109375,-1.0262908935546875,0.5456390380859375
1776228787795396000,6.03939599609375,-0.3512115478515625,-0.8162994384765625,0.6720428466796875
1776228787815247400,6.059247314453125,-0.1012725830078125,-0.6139984130859375,0.855255126953125
1776228787835098600,6.0790986328125,-0.0092315673828125,-0.452606201171875,1.0078125
1776228787854949400,6.098949462890625,0.0173797607421875,-0.32080078125,1.145233154296875
1776228787874800400,6.11880029296875,-0.0553131103515625,-0.1423492431640625,1.10504150390625
1776228787894650400,6.138650390625,-0.0727386474609375,-0.0266265869140625,0.77557373046875
1776228787914501400,6.15850146484375,0.0127410888671875,-0.0396270751953125,0.3899688720703125
1776228787934352400,6.178352294921875,0.2625732421875,0.0203094482421875,0.1962890625
1776228787954203400,6.198203369140625,0.5238800048828125,0.0281219482421875,0.110321044921875
1776228787974054400,6.218054443359375,0.6124114990234375,0.1928253173828125,0.1907501220703125
1776228787993905400,6.237905517578125,0.586334228515625,0.3188018798828125,0.1250457763671875
1776228788013755400,6.25775537109375,0.5303192138671875,0.40728759765625,0.1045379638671875
1776228788033606400,6.2776064453125,0.4157867431640625,0.459716796875,0.31146240234375
1776228788053457400,6.29745751953125,0.216339111328125,0.385040283203125,0.773162841796875
1776228788073308400,6.317308349609375,0.0997467041015625,0.168670654296875,1.4065704345703125
1776228788093159400,6.337159423828125,0.0509490966796875,-0.1091461181640625,1.8646392822265625
1776228788113010400,6.357010498046875,0.2398529052734375,-0.2929534912109375,1.8220367431640625
1776228788132860400,6.3768603515625,0.1785736083984375,-0.4414215087890625,1.38580322265625
1776228788152711400,6.39671142578125,0.0209503173828125,-0.49566650390625,1.077178955078125
1776228788172562400,6.4165625,-0.2313690185546875,-0.62518310546875,0.9422607421875
1776228788192413400,6.436413330078125,-0.4962615966796875,-0.935760498046875,1.112457275390625
1776228788212264200,6.45626416015625,-0.6164398193359375,-1.3316497802734375,1.4507598876953125
1776228788232115500,6.476115478515625,-0.6636810302734375,-1.663543701171875,1.851593017578125
1776228788251965400,6.49596533203125,-0.595916748046875,-1.8115386962890625,1.91546630859375
1776228788271816400,6.51581640625,-0.4631195068359375,-1.8856201171875,1.4333648681640625
1776228788291667500,6.53566748046875,-0.665618896484375,-1.8715667724609375,0.846343994140625
1776228788311518500,6.5555185546875,-1.2061767578125,-1.7532958984375,0.541351318359375
1776228788331369500,6.575369384765625,-1.53289794921875,-1.5915985107421875,0.536773681640625
1776228788351220500,6.595220458984375,-1.4720611572265625,-1.3011474609375,0.7913055419921875
1776228788371070500,6.615070556640625,-1.0380706787109375,-0.8832550048828125,0.962921142578125
1776228788390921500,6.63492138671875,-0.50225830078125,-0.538970947265625,0.8596649169921875
1776228788410772200,6.654772216796875,-0.06463623046875,-0.38751220703125,0.8663787841796875
1776228788430623200,6.674623291015625,0.162322998046875,-0.2415618896484375,1.0179443359375
1776228788450474500,6.694474609375,0.1140594482421875,-0.167022705078125,1.08935546875
1776228788470325500,6.714325439453125,-0.0611419677734375,-0.0948028564453125,1.126800537109375
1776228788490175500,6.734175537109375,-0.3048095703125,-0.036834716796875,1.0947418212890625
1776228788510026500,6.754026611328125,-0.3042755126953125,-0.052825927734375,0.872955322265625
1776228788529877500,6.77387744140625,-0.1364593505859375,-0.1074371337890625,0.5232391357421875
1776228788549728500,6.793728515625,0.16357421875,-0.19256591796875,0.254241943359375
1776228788569579300,6.813579345703125,0.29144287109375,-0.236572265625,0.165008544921875
1776228788589430300,6.83343017578125,0.2923736572265625,0.00726318359375,0.2606353759765625
1776228788609280300,6.8532802734375,0.276031494140625,0.221435546875,0.22491455078125
1776228788629131300,6.87313134765625,0.1463775634765625,0.3645782470703125,0.293365478515625
1776228788648982300,6.892982177734375,0.014739990234375,0.4111480712890625,0.5867919921875
1776228788668833500,6.91283349609375,-0.1435546875,0.2650146484375,0.8595428466796875
1776228788688684500,6.9326845703125,-0.2224273681640625,0.0344085693359375,1.221099853515625
1776228788708535600,6.95253564453125,-0.1200408935546875,-0.1511993408203125,1.5005645751953125
1776228788728385500,6.972385498046875,0.02301025390625,-0.3504180908203125,1.4639434814453125
1776228788748236500,6.992236572265625,0.06927490234375,-0.4807891845703125,1.1008148193359375
1776228788768087300,7.01208740234375,-0.066253662109375,-0.6629180908203125,0.8314056396484375
1776228788787938300,7.031938232421875,-0.2393798828125,-0.9060821533203125,0.9068450927734375
1776228788807789300,7.051789306640625,-0.4313201904296875,-1.2447052001953125,1.20343017578125
1776228788827640300,7.071640380859375,-0.5629730224609375,-1.71783447265625,1.42279052734375
1776228788847490800,7.09149072265625,-0.6392059326171875,-2.092376708984375,1.4766693115234375
1776228788867340800,7.1113408203125,-0.518402099609375,-2.2149810791015625,1.399627685546875
1776228788887191800,7.13119189453125,-0.513916015625,-2.16656494140625,1.2852020263671875
1776228788907042800,7.151042724609375,-0.6070709228515625,-2.1022186279296875,0.9691009521484375
1776228788926893800,7.170893798828125,-0.8558807373046875,-1.87017822265625,0.6847076416015625
1776228788946744600,7.19074462890625,-1.395050048828125,-1.497344970703125,0.534088134765625
1776228788966595800,7.210595947265625,-1.535858154296875,-1.0773162841796875,0.562591552734375
1776228788986445600,7.230445556640625,-1.2671356201171875,-0.6758270263671875,0.5996246337890625
1776228789006296800,7.250296875,-0.8536224365234375,-0.3296661376953125,0.59423828125
1776228789026147800,7.27014794921875,-0.4803619384765625,-0.0589599609375,0.7496337890625
1776228789045998800,7.289998779296875,-0.22198486328125,0.11981201171875,0.8482818603515625
1776228789065849900,7.309849853515625,-0.1656341552734375,0.2030029296875,0.931793212890625
1776228789085700900,7.329700927734375,-0.180267333984375,0.325103759765625,1.0616302490234375
1776228789105550800,7.34955078125,-0.008514404296875,0.2984466552734375,0.9135589599609375
1776228789125401900,7.36940185546875,0.18841552734375,0.134918212890625,0.5612945556640625
1776228789145252600,7.389252685546875,0.3773193359375,-0.0136260986328125,0.1247100830078125
1776228789165103600,7.409103515625,0.615509033203125,-0.107696533203125,-0.0765838623046875
1776228789184955000,7.428954833984375,0.765167236328125,-0.040130615234375,0.0871124267578125
1776228789204806000,7.448805908203125,0.6524658203125,0.21173095703125,0.532684326171875
1776228789224656000,7.46865576171875,0.5373382568359375,0.3971099853515625,0.8059234619140625
1776228789244507000,7.4885068359375,0.5265045166015625,0.4808349609375,0.8061981201171875
1776228789264358000,7.50835791015625,0.1633148193359375,0.3568267822265625,0.904754638671875
1776228789284209000,7.528208984375,-0.3143310546875,0.13726806640625,1.4486541748046875
1776228789304059600,7.5480595703125,-0.42047119140625,-0.0594940185546875,2.0494232177734375
1776228789323910700,7.56791064453125,-0.0820159912109375,-0.20947265625,2.12908935546875
1776228789343760600,7.5877607421875,0.0300445556640625,-0.350799560546875,1.4410400390625
1776228789363611600,7.607611572265625,-0.097564697265625,-0.44921875,0.9378814697265625
1776228789383462700,7.627462646484375,-0.3089599609375,-0.5200653076171875,0.9040374755859375
1776228789403314000,7.64731396484375,-0.411865234375,-0.7541961669921875,1.06817626953125
1776228789423165000,7.6671650390625,-0.5337982177734375,-1.129180908203125,1.3092041015625
1776228789443016000,7.687015869140625,-0.9803619384765625,-1.63995361328125,1.699432373046875
1776228789462866700,7.70686669921875,-1.521820068359375,-1.9631195068359375,2.027984619140625
1776228789482716700,7.726716552734375,-1.1576995849609375,-2.2273101806640625,1.6266021728515625
1776228789502567700,7.746567626953125,-0.6170654296875,-2.40875244140625,1.0442657470703125
1776228789522418700,7.766418701171875,-0.728851318359375,-2.208343505859375,0.967437744140625
1776228789542269700,7.786269775390625,-0.9946441650390625,-1.7812042236328125,1.0893402099609375
1776228789562120700,7.80612060546875,-1.307373046875,-1.450225830078125,1.1956024169921875
1776228789581972000,7.825971923828125,-1.3701171875,-1.10467529296875,1.420166015625
1776228789601821700,7.84582177734375,-0.8636627197265625,-0.5038909912109375,1.488250732421875
1776228789621673000,7.8656728515625,-0.2388763427734375,-0.028564453125,1.253631591796875
1776228789641523700,7.885523681640625,0.211273193359375,0.2844390869140625,1.0789337158203125
1776228789661374700,7.905374755859375,0.3322296142578125,0.445068359375,1.0543975830078125
1776228789681225700,7.925225830078125,0.1156158447265625,0.68157958984375,1.0834197998046875
1776228789701076700,7.94507666015625,0.046722412109375,0.938323974609375,1.065338134765625
1776228789720926700,7.9649267578125,0.1674041748046875,0.9212646484375,0.660369873046875
1776228789740777700,7.98477783203125,0.5375518798828125,0.6990814208984375,0.00030517578125
1776228789760628700,8.004628662109376,1.024383544921875,0.3382568359375,-0.728912353515625
1776228789780479700,8.024479736328125,1.121856689453125,0.1905517578125,-0.7908477783203125
1776228789800330800,8.044330810546874,0.7260589599609375,0.3677215576171875,-0.410003662109375
1776228789820181800,8.064181640625,0.44183349609375,0.6393585205078125,0.1122283935546875
1776228789840033500,8.084033447265625,0.33746337890625,0.8719635009765625,0.6191253662109375
1776228789859883500,8.103883544921874,0.2357177734375,0.9405975341796875,0.999359130859375
1776228789879734500,8.123734619140626,-0.06396484375,0.813140869140625,1.615692138671875
1776228789899585500,8.14358544921875,-0.3144378662109375,0.47760009765625,2.5600128173828125
1776228789919436500,8.1634365234375,-0.2338714599609375,-0.0115509033203125,2.92437744140625
1776228789939287600,8.18328759765625,-0.23980712890625,-0.4623565673828125,2.4768524169921875
1776228789959138600,8.203138671875,-0.34722900390625,-0.659454345703125,2.1674652099609375
1776228789978988500,8.222988525390624,-0.3458251953125,-0.6822052001953125,1.71441650390625
1776228789998839600,8.242839599609376,-0.412933349609375,-0.790435791015625,1.2346038818359375
1776228790018690600,8.262690673828125,-0.74542236328125,-1.136474609375,1.13995361328125
1776228790038541600,8.28254150390625,-0.9280242919921875,-1.5848388671875,1.6237640380859375
1776228790058392600,8.302392578125,-0.89404296875,-1.9113006591796875,2.1137847900390625
1776228790078243600,8.32224365234375,-0.5527191162109375,-2.0285491943359375,1.986785888671875
1776228790098093600,8.342093505859374,-0.6387786865234375,-1.8848419189453125,1.6919708251953125
1776228790117944600,8.361944580078125,-0.744476318359375,-1.7132110595703125,1.502227783203125
1776228790137795300,8.38179541015625,-0.7149505615234375,-1.5558013916015625,1.36175537109375
1776228790157646300,8.401646240234374,-0.5973968505859375,-1.3466033935546875,1.3499755859375
1776228790177497600,8.42149755859375,-0.4788665771484375,-1.001007080078125,1.215301513671875
1776228790197348600,8.4413486328125,-0.397796630859375,-0.5854949951171875,1.0216217041015625
1776228790217199600,8.46119970703125,-0.432342529296875,-0.22479248046875,1.101348876953125
1776228790237049600,8.481049560546875,-0.3586273193359375,0.14886474609375,1.2998504638671875
1776228790256900600,8.500900634765625,-0.2421112060546875,0.461822509765625,1.335906982421875
1776228790276751600,8.520751708984376,-0.0464019775390625,0.8319549560546875,1.3970184326171875
1776228790296602400,8.540602294921875,0.2276611328125,0.9800262451171875,1.1459503173828125
1776228790316453400,8.560453369140625,0.4824981689453125,0.8631744384765625,0.596710205078125
1776228790336304400,8.580304443359376,0.70062255859375,0.5838470458984375,0.047821044921875
1776228790356154400,8.600154296875,0.7503204345703125,0.3951263427734375,-0.1967315673828125
1776228790376005400,8.62000537109375,0.59332275390625,0.32183837890625,-0.2799530029296875
1776228790395856600,8.639856689453126,0.4190216064453125,0.3955230712890625,-0.2617950439453125
1776228790415707600,8.659707763671875,0.2777862548828125,0.5335845947265625,0.0625
1776228790435558700,8.67955859375,0.16162109375,0.6667633056640625,0.5684967041015625
1776228790455409400,8.699409423828126,0.0382843017578125,0.6385955810546875,1.1707305908203125
1776228790475260400,8.719260498046875,0.317474365234375,0.355133056640625,1.529205322265625
1776228790495110400,8.7391103515625,0.509674072265625,0.1952362060546875,2.0301971435546875
1776228790514961400,8.75896142578125,0.2350311279296875,-0.0027618408203125,2.377960205078125
1776228790534812400,8.7788125,-0.1523590087890625,-0.260467529296875,2.2141265869140625
1776228790554663400,8.798663330078124,-0.39544677734375,-0.5155487060546875,1.725433349609375
1776228790574514700,8.8185146484375,-0.3250274658203125,-0.591156005859375,1.497711181640625
1776228790594365700,8.83836572265625,-0.25848388671875,-0.7016143798828125,1.3838653564453125
1776228790614215700,8.858215576171874,-0.3729400634765625,-1.003631591796875,1.46087646484375
1776228790634066700,8.878066650390625,-0.3910064697265625,-1.42242431640625,1.895782470703125
1776228790653917400,8.89791748046875,-0.3276824951171875,-1.88116455078125,2.265533447265625
1776228790673768400,8.9177685546875,-0.3342742919921875,-1.8927154541015625,2.6190032958984375
1776228790693619500,8.937619384765625,-0.538818359375,-1.7056732177734375,2.5630035400390625
1776228790713470500,8.957470458984375,-0.69873046875,-1.4249267578125,2.0634307861328125
1776228790733321500,8.977321533203124,-0.7369232177734375,-1.1678619384765625,1.623260498046875
1776228790753171500,8.99717138671875,-0.5148773193359375,-0.914398193359375,1.38946533203125
1776228790773022500,9.0170224609375,-0.1345977783203125,-0.6510467529296875,1.1807098388671875
1776228790792873700,9.036873779296876,0.2454071044921875,-0.380340576171875,0.9118499755859375
1776228790812724500,9.056724365234375,0.4554901123046875,-0.1266937255859375,0.79205322265625
1776228790832575500,9.076575439453125,0.45843505859375,0.15985107421875,0.7375946044921875
1776228790852426000,9.096426025390626,0.323577880859375,0.3655242919921875,0.649810791015625
1776228790872276000,9.11627587890625,0.18585205078125,0.6108551025390625,0.663421630859375
1776228790892127000,9.136126953125,0.0946807861328125,0.7880706787109375,0.5481109619140625
1776228790911978000,9.15597802734375,0.1247711181640625,0.7644500732421875,0.10357666015625
1776228790931829000,9.1758291015625,0.2545623779296875,0.5689544677734375,-0.4980316162109375
1776228790951680300,9.19568017578125,0.6024627685546875,0.30963134765625,-0.884063720703125
1776228790971531300,9.21553125,0.698486328125,0.1788482666015625,-0.71417236328125
1776228790991382000,9.235382080078125,0.6208038330078125,0.27154541015625,-0.2725830078125
1776228791011232300,9.255232177734374,0.50079345703125,0.439483642578125,0.1371002197265625
1776228791031083000,9.2750830078125,0.3498077392578125,0.6328887939453125,0.4985198974609375
1776228791050934000,9.29493408203125,0.1800537109375,0.7589111328125,0.8719635009765625
1776228791070785000,9.314784912109374,-0.0594024658203125,0.7776031494140625,1.4944915771484375
1776228791090636000,9.334635986328125,-0.1729583740234375,0.6244659423828125,1.965667724609375
1776228791110487000,9.354487060546875,-0.0955047607421875,0.46136474609375,2.04150390625
1776228791130338000,9.374338134765624,-0.2723236083984375,0.33349609375,2.0050811767578125
1776228791150188000,9.39418798828125,-0.6458587646484375,0.0655670166015625,2.1318817138671875
1776228791170039300,9.414039306640625,-0.8822479248046875,-0.10870361328125,2.4400482177734375
1776228791189890000,9.43389013671875,-0.95819091796875,-0.3838043212890625,2.213775634765625
1776228791209741000,9.453740966796875,-0.9032135009765625,-0.529449462890625,1.8176727294921875
1776228791229592000,9.473592041015625,-0.883148193359375,-0.727996826171875,1.594085693359375
1776228791249443000,9.493443115234374,-0.7520904541015625,-0.9598846435546875,1.98309326171875
1776228791269294000,9.513294189453125,-0.4119720458984375,-1.252410888671875,2.4329071044921875
1776228791289144000,9.53314404296875,-0.0214996337890625,-1.509490966796875,2.538330078125
1776228791308995000,9.5529951171875,0.3414459228515625,-1.687164306640625,2.097503662109375
1776228791328846000,9.57284619140625,0.1732330322265625,-1.6233367919921875,1.7705841064453125
1776228791348697000,9.592697021484375,-0.2740936279296875,-1.4217987060546875,1.6421051025390625
1776228791368548000,9.612548095703126,-0.8113250732421875,-1.290130615234375,1.455474853515625
1776228791388399000,9.632399169921875,-1.10186767578125,-1.2172088623046875,1.0024871826171875
1776228791408249000,9.6522490234375,-1.011749267578125,-1.110076904296875,0.6330413818359375
1776228791428100000,9.67210009765625,-0.694091796875,-0.93359375,0.617034912109375
1776228791447951000,9.691951171875,-0.27325439453125,-0.6007843017578125,0.909271240234375
1776228791467802000,9.711802001953124,0.015411376953125,-0.2327423095703125,1.119232177734375
1776228791487653000,9.731653076171876,0.225982666015625,0.0462188720703125,1.07568359375
1776228791507503900,9.75150390625,0.2853546142578125,0.1334228515625,0.9494171142578125
1776228791527355000,9.77135498046875,0.22515869140625,0.1160736083984375,0.77203369140625
1776228791547204900,9.791204833984375,0.0908966064453125,0.090179443359375,0.5909423828125
1776228791567056100,9.81105615234375,-0.07427978515625,0.0917510986328125,0.4135894775390625
1776228791586907100,9.8309072265625,-0.11785888671875,0.0600738525390625,0.238128662109375
1776228791606758100,9.850758056640625,0.1261749267578125,0.027374267578125,0.001800537109375
1776228791626609200,9.870609130859375,0.53057861328125,-0.0011749267578125,-0.2269287109375
1776228791646460200,9.890460205078124,0.732574462890625,0.0263519287109375,-0.375457763671875
1776228791666311000,9.910310791015625,0.5052947998046875,0.0988616943359375,-0.35809326171875
1776228791686161200,9.9301611328125,0.2460784912109375,0.24261474609375,-0.1060943603515625
1776228791706012000,9.950011962890626,0.16082763671875,0.4468994140625,0.380401611328125
1776228791725863000,9.96986279296875,0.1441650390625,0.4665985107421875,0.919464111328125
1776228791745714200,9.989714111328125,-0.0702667236328125,0.223876953125,1.3019866943359375
1776228791765565200,10.009565185546874,-0.4078369140625,-0.08721923828125,1.7844696044921875
1776228791785416200,10.029416259765625,-0.219696044921875,-0.2217559814453125,2.1382598876953125
1776228791805267200,10.04926708984375,0.252410888671875,-0.3115386962890625,1.94854736328125
1776228791825117200,10.0691171875,0.5032958984375,-0.3553924560546875,1.2138519287109375
1776228791844968000,10.088968017578125,0.5285491943359375,-0.3758392333984375,0.6339874267578125
1776228791864819000,10.10881884765625,0.390411376953125,-0.4099273681640625,0.5086822509765625
1776228791884670000,10.128669921875,0.1486968994140625,-0.6023712158203125,0.8110504150390625
1776228791904521000,10.14852099609375,-0.1592864990234375,-1.0186920166015625,1.2447357177734375
1776228791924372000,10.1683720703125,-0.3905029296875,-1.418853759765625,1.86297607421875
1776228791944223000,10.188222900390626,-0.389984130859375,-1.7165985107421875,2.07537841796875
1776228791964073000,10.208072998046875,-0.1831512451171875,-1.923736572265625,1.7811431884765625
1776228791983924000,10.227924072265624,0.0279693603515625,-2.05047607421875,1.30206298828125
1776228792003775000,10.24777490234375,0.0841064453125,-2.080078125,1.0355682373046875
1776228792023625700,10.267625732421875,-0.1551666259765625,-1.8910369873046875,1.0030975341796875
1776228792043477000,10.28747705078125,-0.51220703125,-1.635589599609375,1.1463775634765625
1776228792063328000,10.307327880859376,-0.6701812744140625,-1.3173675537109375,0.9987030029296875
1776228792083179000,10.327178955078125,-0.55914306640625,-0.952178955078125,0.6540069580078125
1776228792103029000,10.347029052734374,-0.3981781005859375,-0.64337158203125,0.4183807373046875
1776228792122880000,10.3668798828125,-0.2051239013671875,-0.4697113037109375,0.604278564453125
1776228792142731000,10.38673095703125,0.025909423828125,-0.2884521484375,1.0224761962890625
1776228792162582000,10.40658203125,0.2440032958984375,-0.0774688720703125,1.1752777099609375
1776228792182432800,10.426432861328125,0.2156524658203125,-0.11431884765625,0.9344940185546875
1776228792202283800,10.44628369140625,-0.028961181640625,-0.3263092041015625,0.8180084228515625
1776228792222134800,10.466134765625,0.0424652099609375,-0.244659423828125,0.932769775390625
1776228792241984800,10.48598486328125,0.1370086669921875,-0.332427978515625,0.58642578125
1776228792261836000,10.5058359375,0.2724609375,-0.217620849609375,0.401611328125
1776228792281687000,10.52568701171875,0.5149993896484375,-0.1584014892578125,0.049468994140625
1776228792301538000,10.5455380859375,0.526336669921875,-0.0149688720703125,-0.134857177734375
1776228792321389000,10.56538916015625,0.336029052734375,0.181854248046875,-0.014739990234375
1776228792341239800,10.58523974609375,0.177520751953125,0.3270721435546875,0.11724853515625
1776228792361090800,10.6050908203125,0.3171539306640625,0.4471435546875,0.319732666015625
1776228792380940800,10.62494091796875,0.3956298828125,0.5024871826171875,0.6337432861328125
1776228792400791800,10.644791748046876,0.3226318359375,0.4811248779296875,0.8912200927734375
1776228792420642800,10.664642822265625,0.200958251953125,0.3467254638671875,0.949920654296875
1776228792440494000,10.684494140625,0.0511016845703125,0.1735687255859375,0.9562225341796875
1776228792460345000,10.704344970703126,0.029571533203125,-0.0248870849609375,1.097259521484375
1776228792480196000,10.724196044921875,0.1027984619140625,-0.2641754150390625,1.3865966796875
1776228792500046800,10.744046875,0.0837249755859375,-0.59588623046875,1.4720458984375
1776228792519897000,10.76389697265625,-0.1160888671875,-0.9557952880859375,1.632568359375
1776228792539747800,10.783747802734375,-0.2403106689453125,-1.32745361328125,1.99267578125
1776228792559598800,10.803598876953124,-0.2216949462890625,-1.6353302001953125,1.9422760009765625
1776228792579449900,10.823449951171876,-0.4442596435546875,-1.94927978515625,1.676727294921875
1776228792599300900,10.84330078125,-0.7462921142578125,-2.108795166015625,1.7020721435546875
1776228792619152000,10.86315185546875,-0.8964385986328125,-2.1881256103515625,1.54461669921875
1776228792639003100,10.883003173828126,-1.059295654296875,-2.1500244140625,1.3850555419921875
1776228792658853000,10.90285302734375,-1.055419921875,-1.8920440673828125,1.456817626953125
1776228792678704000,10.9227041015625,-0.70001220703125,-1.500213623046875,1.4216461181640625
1776228792698555000,10.942554931640625,-0.3326873779296875,-1.0530242919921875,1.1274566650390625
1776228792718406000,10.962406005859375,-0.1475982666015625,-0.6020660400390625,0.8777923583984375
1776228792738257000,10.9822568359375,-0.190887451171875,-0.2335662841796875,0.9404144287109375
1776228792758108000,11.00210791015625,-0.2142181396484375,0.079864501953125,1.0167236328125
1776228792777959000,11.021958984375,-0.1445770263671875,0.3052520751953125,1.0238037109375
1776228792797810000,11.041809814453124,-0.0865020751953125,0.4629974365234375,0.972564697265625
1776228792817660000,11.061659912109375,-0.14715576171875,0.5854339599609375,0.8177337646484375
1776228792837511400,11.081511474609375,-0.20111083984375,0.5998687744140625,0.5298614501953125
1776228792857362400,11.101362548828124,0.2832489013671875,0.4090423583984375,0.07415771484375
1776228792877213400,11.12121337890625,0.8117523193359375,0.1150054931640625,-0.2384033203125
1776228792897064400,11.141064453125,1.1059417724609375,-0.2086944580078125,-0.390411376953125
1776228792916915500,11.16091552734375,0.993621826171875,-0.073577880859375,-0.1122894287109375
1776228792936766700,11.1807666015625,0.574981689453125,0.143585205078125,0.0763092041015625
1776228792956616700,11.20061669921875,0.20947265625,0.3901519775390625,0.2139129638671875
1776228792976467700,11.2204677734375,0.1201629638671875,0.541900634765625,0.4106292724609375
1776228792996318500,11.240318359375,0.0673828125,0.6364898681640625,0.632843017578125
1776228793016169500,11.26016943359375,-0.1696929931640625,0.53228759765625,1.008636474609375
1776228793036020500,11.2800205078125,-0.386138916015625,0.3106536865234375,1.596405029296875
1776228793055871500,11.29987158203125,-0.2486572265625,-0.0379791259765625,1.7609405517578125
1776228793075722500,11.319722412109375,-0.146270751953125,-0.342559814453125,1.606048583984375
1776228793095572500,11.339572509765626,-0.239959716796875,-0.59185791015625,1.5887908935546875
1776228793115423500,11.359423583984375,-0.2238006591796875,-0.82647705078125,1.605987548828125
1776228793135274500,11.3792744140625,-0.3289642333984375,-1.18902587890625,1.662017822265625
1776228793155125500,11.39912548828125,-0.6993408203125,-1.711578369140625,2.045013427734375
1776228793174976500,11.4189765625,-0.84649658203125,-2.2837371826171875,2.232025146484375
1776228793194827500,11.43882763671875,-0.5886688232421875,-2.418975830078125,2.2365570068359375
1776228793214678500,11.458678466796876,-0.5506439208984375,-2.09722900390625,2.031707763671875
1776228793234529500,11.478529541015625,-0.7202911376953125,-1.69317626953125,1.60162353515625
1776228793254379500,11.498379638671874,-0.9532012939453125,-1.35992431640625,1.2885284423828125
1776228793274230500,11.51823046875,-1.0530548095703125,-1.1064300537109375,1.1970062255859375
1776228793294081500,11.53808154296875,-0.9111480712890625,-0.7699127197265625,1.33087158203125
1776228793313932500,11.5579326171875,-0.4814453125,-0.3934326171875,1.241455078125
1776228793333783600,11.577783447265626,-0.120880126953125,-0.0970306396484375,1.028900146484375
1776228793353634600,11.597634521484375,0.1113128662109375,0.1690826416015625,0.947845458984375
1776228793373485600,11.617485595703124,0.2169036865234375,0.4078826904296875,0.8990631103515625
1776228793393335600,11.63733544921875,0.18988037109375,0.6186981201171875,0.85760498046875
1776228793413186600,11.6571865234375,0.07159423828125,0.7988739013671875,0.72509765625
1776228793433037600,11.67703759765625,0.0213470458984375,0.7584381103515625,0.402557373046875
1776228793452888600,11.696888671875,0.1553192138671875,0.56268310546875,-0.0758056640625
1776228793472739600,11.716739501953125,0.616668701171875,0.1075439453125,-0.8834991455078125
1776228793492590300,11.73659033203125,1.096954345703125,-0.202606201171875,-1.2379302978515625
1776228793512441600,11.756441650390625,1.269287109375,-0.255126953125,-0.755401611328125
1776228793532291300,11.776291259765625,0.9203948974609375,-0.0223388671875,0.0208587646484375
1776228793552142600,11.796142578125,0.6000213623046875,0.2459869384765625,0.5095367431640625
1776228793571993600,11.81599365234375,0.54119873046875,0.49908447265625,0.5987091064453125
1776228793591844600,11.8358447265625,0.3657684326171875,0.6640472412109375,0.686981201171875
1776228793611695600,11.855695556640624,0.0086517333984375,0.678314208984375,1.2589569091796875
1776228793631546600,11.875546630859375,-0.145263671875,0.5063629150390625,1.924835205078125
1776228793651397400,11.8953974609375,-0.072784423828125,0.1245574951171875,2.0388946533203125
1776228793671248400,11.915248291015626,-0.14605712890625,-0.19427490234375,1.722320556640625
1776228793691098400,11.935098388671875,-0.3631439208984375,-0.394989013671875,1.6399993896484375
1776228793710949400,11.954949462890625,-0.3642730712890625,-0.5126495361328125,1.675201416015625
1776228793730800600,11.974800537109376,-0.258544921875,-0.6493072509765625,1.478485107421875
1776228793750651600,11.994651611328125,-0.3887939453125,-0.88995361328125,1.223297119140625
1776228793770502700,12.014502685546875,-0.7493896484375,-1.1492462158203125,1.4625244140625
1776228793790353700,12.034353759765626,-0.9216461181640625,-1.4181060791015625,1.8817901611328125
1776228793810204400,12.054204345703125,-0.7592315673828125,-1.663421630859375,1.9548187255859375
1776228793830054400,12.074054443359374,-0.6705474853515625,-1.7810821533203125,1.8057708740234375
1776228793849905000,12.09390478515625,-0.7616729736328125,-1.7286224365234375,1.691253662109375
1776228793869756000,12.113755859375,-0.9747314453125,-1.639068603515625,1.766571044921875
1776228793889607000,12.13360693359375,-0.9964752197265625,-1.4306640625,1.9268035888671875
1776228793909458000,12.1534580078125,-0.7724761962890625,-1.117919921875,1.6998291015625
1776228793929309000,12.173308837890625,-0.5138397216796875,-0.7741851806640625,1.3424530029296875
1776228793949160000,12.193159912109374,-0.3501129150390625,-0.455322265625,1.0952606201171875
1776228793969011000,12.213010986328126,-0.2722625732421875,-0.1901702880859375,1.079376220703125
1776228793988861000,12.23286083984375,-0.0782623291015625,0.1422271728515625,1.2650299072265625
1776228794008712000,12.2527119140625,0.1194915771484375,0.41009521484375,1.141143798828125
1776228794028563000,12.27256298828125,0.1865081787109375,0.5865631103515625,0.8856964111328125
1776228794048414000,12.2924140625,0.127410888671875,0.710723876953125,0.707366943359375
1776228794068265000,12.312264892578124,0.2219085693359375,0.7791290283203125,0.4662322998046875
1776228794088116000,12.332115966796875,0.5175323486328125,0.5653228759765625,0.0803070068359375
1776228794107967000,12.351967041015625,0.87518310546875,0.2664642333984375,-0.3264617919921875
1776228794127817000,12.37181689453125,1.0587158203125,0.1534271240234375,-0.266815185546875
1776228794147668000,12.39166796875,0.794189453125,0.1497802734375,0.0083770751953125
1776228794167519000,12.41151904296875,0.45367431640625,0.268096923828125,0.177825927734375
1776228794187369700,12.43136962890625,0.1837615966796875,0.3235931396484375,0.306976318359375
1776228794207220700,12.451220703125,0.033538818359375,0.4189300537109375,0.6952667236328125
1776228794227072000,12.471072021484375,0.0640869140625,0.42181396484375,1.2510986328125
1776228794246923000,12.490923095703126,0.323638916015625,0.36041259765625,1.422454833984375
1776228794266774000,12.51077392578125,0.406158447265625,0.2750396728515625,1.3954620361328125
1776228794286624000,12.5306240234375,0.1957855224609375,0.2452545166015625,1.253875732421875
1776228794306475000,12.55047509765625,-0.128173828125,0.2418670654296875,1.558746337890625
1776228794326326000,12.570325927734375,-0.3207244873046875,0.14453125,1.839752197265625
1776228794346176800,12.5901767578125,-0.299835205078125,-0.0081024169921875,1.6116485595703125
1776228794366027800,12.61002783203125,-0.338592529296875,-0.1056060791015625,1.334625244140625
1776228794385878800,12.629878662109375,-0.5982513427734375,-0.291839599609375,1.5339202880859375
1776228794405730000,12.64972998046875,-0.652252197265625,-0.5708770751953125,2.1381378173828125
1776228794425579800,12.669579833984375,-0.330352783203125,-0.959991455078125,2.7768096923828125
1776228794445431000,12.68943115234375,0.025665283203125,-1.25701904296875,3.140960693359375
1776228794465282000,12.709281982421874,-0.144561767578125,-1.250335693359375,2.7463226318359375
1776228794485133000,12.729133056640626,-0.5833892822265625,-1.23309326171875,1.8965911865234375
1776228794504983800,12.74898388671875,-0.9135894775390625,-1.222686767578125,1.3811492919921875
1776228794524834800,12.768834716796874,-1.0263214111328125,-1.262542724609375,1.1183929443359375
1776228794544685800,12.788685791015626,-0.795318603515625,-1.2336578369140625,0.96844482421875
1776228794564536800,12.808536865234375,-0.3604583740234375,-1.105804443359375,0.8646087646484375
1776228794584386800,12.82838671875,-0.0977783203125,-0.8869171142578125,0.88531494140625
1776228794604237800,12.84823779296875,0.013702392578125,-0.579132080078125,1.1048126220703125
1776228794624089000,12.868089111328125,0.11309814453125,-0.2733306884765625,1.1873931884765625
1776228794643940000,12.887940185546874,0.2203369140625,0.079742431640625,1.1382293701171875
1776228794663790800,12.907790771484375,0.1644744873046875,0.4026031494140625,1.0591278076171875
1776228794683641900,12.927641845703125,0.147064208984375,0.6413726806640625,0.78216552734375
1776228794703492900,12.947492919921874,0.1933746337890625,0.6002044677734375,0.2438507080078125
1776228794723342800,12.9673427734375,0.2123260498046875,0.458251953125,-0.1298980712890625
1776228794743193900,12.98719384765625,0.3965301513671875,0.259368896484375,-0.37493896484375
1776228794763044900,13.007044921875,0.5543060302734375,0.15667724609375,-0.417327880859375
1776228794782895900,13.026895751953125,0.5444183349609375,0.2709197998046875,-0.391510009765625
1776228794802747100,13.0467470703125,0.3256988525390625,0.366241455078125,-0.2200927734375
1776228794822598000,13.066597900390626,0.0785369873046875,0.523651123046875,0.4127197265625
1776228794842449400,13.086449462890625,0.03729248046875,0.6199951171875,1.0668182373046875
1776228794862300400,13.106300537109375,0.2355194091796875,0.60357666015625,1.4639739990234375
1776228794882150400,13.126150390625,0.2837066650390625,0.46099853515625,1.377532958984375
1776228794902001400,13.14600146484375,0.0927886962890625,0.3988189697265625,1.5132904052734375
1776228794921852400,13.165852294921875,-0.0766754150390625,0.327911376953125,1.782470703125
1776228794941703400,13.185703369140626,-0.0381011962890625,0.2151641845703125,1.9466400146484375
1776228794961554200,13.20555419921875,0.0262451171875,0.0428924560546875,1.5538330078125
1776228794981405200,13.2254052734375,-0.05316162109375,0.014434814453125,1.485107421875
1776228795001256200,13.245256103515626,-0.167755126953125,-0.0895233154296875,1.5157623291015625
1776228795021107500,13.265107421875,-0.339508056640625,-0.29742431640625,1.613311767578125
1776228795040957200,13.284957275390624,-0.6676177978515625,-0.6480712890625,1.8262786865234375
1776228795060808400,13.304808349609376,-0.9385986328125,-1.0626068115234375,2.2330780029296875
1776228795080659500,13.324659423828125,-0.898406982421875,-1.29742431640625,2.5809326171875
1776228795100510500,13.344510498046875,-0.7219390869140625,-1.4676971435546875,2.33154296875
1776228795120361200,13.364361328125,-0.9340972900390625,-1.5589141845703125,1.72625732421875
1776228795140212200,13.384212158203125,-1.3384246826171875,-1.519775390625,1.3940277099609375
1776228795160063200,13.404063232421874,-1.3446502685546875,-1.4420013427734375,1.22503662109375
1776228795179913200,13.423913330078125,-0.9440765380859375,-1.24609375,1.0751190185546875
1776228795199764200,13.44376416015625,-0.4705810546875,-0.981536865234375,0.9342193603515625
1776228795219615200,13.463615234375,-0.1186981201171875,-0.71124267578125,0.940277099609375
1776228795239466500,13.483466552734376,-0.0619964599609375,-0.4075927734375,0.9309844970703125
1776228795259317500,13.5033173828125,-0.1981658935546875,-0.15655517578125,0.858184814453125
1776228795279168300,13.523168212890624,-0.1866607666015625,0.0715179443359375,0.830352783203125
1776228795299019300,13.543019287109376,-0.00250244140625,0.2125091552734375,0.6472930908203125
1776228795318870300,13.562870361328125,0.094757080078125,0.2566986083984375,0.4418487548828125
1776228795338720300,13.58272021484375,0.1541900634765625,0.2891387939453125,0.1749420166015625
1776228795358571300,13.6025712890625,0.21270751953125,0.200592041015625,-0.1398773193359375
1776228795378422300,13.62242236328125,0.44732666015625,0.1244354248046875,-0.3221893310546875
1776228795398273300,13.642273193359374,0.5963287353515625,0.1219329833984375,-0.097259521484375
1776228795418124500,13.66212451171875,0.541015625,0.2233123779296875,0.1508636474609375
1776228795437975300,13.681975341796875,0.348358154296875,0.3320159912109375,0.2054595947265625
1776228795457826300,13.701826416015624,0.1829376220703125,0.41552734375,0.25482177734375
1776228795477677300,13.72167724609375,0.0668792724609375,0.435699462890625,0.396240234375
1776228795497527300,13.74152734375,-0.0684356689453125,0.3525848388671875,0.73480224609375
1776228795517378300,13.76137841796875,-0.2007293701171875,0.197052001953125,1.45098876953125
1776228795537229300,13.781229248046875,-0.04766845703125,0.0372467041015625,2.118560791015625
1776228795557080300,13.801080322265625,0.126617431640625,-0.193084716796875,1.9874420166015625
1776228795576931300,13.820931396484376,0.1062774658203125,-0.301544189453125,1.4723968505859375
1776228795596782000,13.840781982421875,0.02532958984375,-0.305816650390625,1.2743988037109375
1776228795616633300,13.86063330078125,-0.0800323486328125,-0.3348541259765625,1.1827850341796875
1776228795636484400,13.880484375,-0.1572723388671875,-0.523590087890625,1.215576171875
1776228795656334300,13.900334228515625,-0.2533721923828125,-0.776947021484375,1.6443939208984375
1776228795676185300,13.920185302734374,-0.2936248779296875,-1.0921630859375,2.256378173828125
1776228795696036400,13.940036376953126,-0.189666748046875,-1.279998779296875,2.5820465087890625
1776228795715887400,13.959887451171875,-0.1495361328125,-1.462860107421875,2.05072021484375
1776228795735738400,13.97973828125,-0.384002685546875,-1.5269012451171875,1.3408660888671875
1776228795755589000,13.999589111328126,-0.8106842041015625,-1.5720977783203125,1.0797271728515625
1776228795775440100,14.019440185546875,-1.0927734375,-1.584625244140625,1.105926513671875
1776228795795290000,14.0392900390625,-1.123504638671875,-1.49212646484375,1.179840087890625
1776228795815141400,14.059141357421876,-0.889984130859375,-1.3001556396484375,1.105072021484375
1776228795834992400,14.078992431640625,-0.5557403564453125,-1.029144287109375,0.98052978515625
1776228795854843400,14.098843505859374,-0.261383056640625,-0.720947265625,0.9768829345703125
1776228795874694400,14.1186943359375,-0.0849151611328125,-0.4517822265625,1.0489501953125
1776228795894545700,14.138545654296875,0.0249481201171875,-0.222808837890625,1.14508056640625
1776228795914396400,14.158396484375,-0.04046630859375,-0.1340179443359375,1.1016845703125
1776228795934247400,14.178247314453126,-0.0310821533203125,-0.0969085693359375,1.07958984375
1776228795954097400,14.198097412109375,-0.0724029541015625,0.059906005859375,0.8842926025390625
1776228795973948400,14.217948486328124,-0.0390167236328125,0.1737213134765625,0.411346435546875
1776228795993799400,14.23779931640625,0.2609710693359375,0.19683837890625,0.0837554931640625
1776228796013650400,14.257650390625,0.614501953125,0.2045440673828125,-0.0155792236328125
1776228796033501400,14.27750146484375,0.640350341796875,0.3692626953125,0.37591552734375
1776228796053352400,14.2973525390625,0.54833984375,0.559906005859375,0.4848175048828125
1776228796073203500,14.317203369140625,0.4811248779296875,0.6274261474609375,0.2501373291015625
1776228796093054500,14.337054443359374,0.4140777587890625,0.6727294921875,0.2068939208984375
1776228796112904400,14.356904541015625,0.3143157958984375,0.7080535888671875,0.61431884765625
1776228796132755500,14.37675537109375,0.1566314697265625,0.6236572265625,1.031036376953125
1776228796152606500,14.3966064453125,0.08013916015625,0.46734619140625,1.30389404296875
1776228796172457500,14.41645751953125,0.0789337158203125,0.2142486572265625,1.3541107177734375
1776228796192308500,14.43630859375,0.00152587890625,0.006134033203125,1.3324127197265625
1776228796212159500,14.456159423828124,-0.1875457763671875,-0.2288818359375,1.49334716796875
1776228796232010200,14.47601025390625,-0.32598876953125,-0.539031982421875,1.548919677734375
1776228796251861200,14.495861328125,-0.370391845703125,-0.938079833984375,1.5225982666015625
1776228796271711200,14.515711181640626,-0.5001983642578125,-1.296966552734375,1.8616790771484375
1776228796291562500,14.5355625,-0.613616943359375,-1.6955108642578125,2.3956756591796875
1776228796311413500,14.55541357421875,-0.7644805908203125,-1.9369964599609375,2.6192779541015625
1776228796331264500,14.575264404296876,-1.013153076171875,-2.0084381103515625,2.1217498779296875
1776228796351115500,14.595115478515625,-1.16998291015625,-1.88787841796875,1.5423583984375
1776228796370966500,14.614966552734375,-1.26885986328125,-1.6978302001953125,1.2979888916015625
1776228796390817300,14.6348173828125,-1.199798583984375,-1.423187255859375,1.223968505859375
1776228796410668300,14.654668212890625,-0.9188232421875,-1.062469482421875,1.1540985107421875
1776228796430518300,14.674518310546874,-0.6096649169921875,-0.677154541015625,1.0224151611328125
1776228796450369300,14.694369384765626,-0.4089508056640625,-0.331024169921875,0.921783447265625
1776228796470220300,14.71422021484375,-0.28546142578125,-0.0276641845703125,1.0228424072265625
1776228796490071600,14.734071533203124,-0.1935272216796875,0.2076263427734375,1.117279052734375
1776228796509922600,14.753922607421876,-0.0729827880859375,0.3827056884765625,1.1172332763671875
1776228796529773600,14.773773681640625,0.0393218994140625,0.516693115234375,1.0749664306640625
1776228796549624300,14.793624267578124,0.1870574951171875,0.646026611328125,0.748046875
1776228796569475300,14.813475341796876,0.312164306640625,0.541839599609375,0.1346282958984375
1776228796589325300,14.8333251953125,0.2694854736328125,0.33770751953125,-0.384490966796875
1776228796609176300,14.85317626953125,0.393829345703125,0.206085205078125,-0.5345611572265625
1776228796629027300,14.87302734375,0.531646728515625,0.3568878173828125,-0.1521759033203125
1776228796648878300,14.89287841796875,0.5995635986328125,0.526763916015625,0.3408355712890625
1776228796668729600,14.9127294921875,0.62786865234375,0.6631317138671875,0.593536376953125
1776228796688580600,14.93258056640625,0.623931884765625,0.7026214599609375,0.689422607421875
1776228796708431400,14.952431396484375,0.3886260986328125,0.68280029296875,0.8391876220703125
1776228796728282400,14.972282470703124,0.1073760986328125,0.588958740234375,1.27105712890625
1776228796748132400,14.99213232421875,-0.1281585693359375,0.36004638671875,1.9420013427734375
1776228796767983400,15.0119833984375,-0.0943450927734375,0.0233001708984375,2.080291748046875
1776228796787834400,15.03183447265625,-0.1574859619140625,-0.18658447265625,1.6827392578125
1776228796807685400,15.051685302734375,-0.289947509765625,-0.3643035888671875,1.307952880859375
1776228796827536400,15.071536376953125,-0.2736358642578125,-0.53814697265625,1.32452392578125
1776228796847387600,15.0913876953125,-0.333648681640625,-0.8584747314453125,1.4501800537109375
1776228796867238400,15.11123828125,-0.3274383544921875,-1.2903900146484375,1.5706939697265625
1776228796887089400,15.13108935546875,-0.2084808349609375,-1.6678619384765625,1.8994140625
1776228796906939400,15.150939453125,-0.2552642822265625,-1.9410552978515625,2.5737762451171875
1776228796926790400,15.170790283203125,-0.5883636474609375,-2.0643463134765625,2.791961669921875
1776228796946641400,15.190641357421875,-0.9337158203125,-1.9239044189453125,2.2883758544921875
1776228796966492400,15.210492431640626,-1.0606689453125,-1.6204071044921875,1.9689483642578125
1776228796986343700,15.23034375,-0.8508453369140625,-1.2101898193359375,1.7428131103515625
1776228797006194700,15.250194580078125,-0.5001220703125,-0.7839202880859375,1.37640380859375
1776228797026045400,15.27004541015625,-0.298126220703125,-0.4038238525390625,1.1275177001953125
1776228797045896400,15.289896484375,-0.250152587890625,-0.085113525390625,1.004302978515625
1776228797065746400,15.309746337890624,-0.1551055908203125,0.1868743896484375,0.9640960693359375
1776228797085597400,15.329597412109376,-0.046417236328125,0.4006805419921875,0.9658203125
1776228797105448400,15.349448486328125,0.0295562744140625,0.614593505859375,1.134979248046875
1776228797125299500,15.369299560546875,0.061798095703125,0.8572235107421875,1.012298583984375
1776228797145150500,15.389150390625,0.2352447509765625,0.85205078125,0.3232574462890625
1776228797165001700,15.409001708984375,0.4084625244140625,0.561492919921875,-0.4428863525390625
1776228797184852500,15.4288525390625,0.497283935546875,0.279327392578125,-0.694427490234375
1776228797204703500,15.448703369140626,0.611572265625,0.2421417236328125,-0.3274993896484375
1776228797224553500,15.468553466796875,0.5775909423828125,0.4308013916015625,0.261199951171875
1776228797244404500,15.488404541015624,0.5379791259765625,0.54266357421875,0.4904327392578125
1776228797264255500,15.50825537109375,0.51397705078125,0.637176513671875,0.5642242431640625
1776228797284106500,15.5281064453125,0.521453857421875,0.7022247314453125,0.757843017578125
1776228797303957500,15.54795751953125,0.479705810546875,0.693817138671875,0.986572265625
1776228797323808500,15.56780859375,0.2159881591796875,0.509429931640625,1.3070526123046875
1776228797343659500,15.587659423828125,-0.0289459228515625,0.253936767578125,1.6828460693359375
1776228797363510500,15.607510498046874,-0.100311279296875,0.021759033203125,1.7610321044921875
1776228797383360500,15.627360595703125,-0.082855224609375,-0.166412353515625,1.53582763671875
1776228797403211500,15.64721142578125,-0.1263885498046875,-0.34002685546875,1.4526824951171875
1776228797423062500,15.6670625,-0.2559356689453125,-0.5685882568359375,1.5251617431640625
1776228797442913500,15.68691357421875,-0.444183349609375,-0.914398193359375,1.84503173828125
1776228797462764500,15.7067646484375,-0.493682861328125,-1.240020751953125,2.255615234375
1776228797482615600,15.726615478515624,-0.258758544921875,-1.57342529296875,2.3280029296875
1776228797502466600,15.746466552734375,-0.08343505859375,-1.84619140625,2.1717987060546875
1776228797522317600,15.766317626953125,-0.255615234375,-1.8855133056640625,2.0616607666015625
1776228797542167600,15.78616748046875,-0.5171051025390625,-1.7902374267578125,1.9538116455078125
1776228797562018600,15.8060185546875,-0.774932861328125,-1.6277313232421875,1.6432037353515625
1776228797581869600,15.82586962890625,-0.776885986328125,-1.362152099609375,1.198883056640625
1776228797601720600,15.845720458984376,-0.6729888916015625,-0.9981231689453125,0.8930511474609375
1776228797621571600,15.865571533203125,-0.5098114013671875,-0.619873046875,0.7496337890625
1776228797641422600,15.885422607421875,-0.31317138671875,-0.25042724609375,0.8116455078125
1776228797661273600,15.905273681640624,-0.129058837890625,0.0061492919921875,0.9160308837890625
1776228797681124400,15.925124267578125,-0.04156494140625,0.1669769287109375,1.04315185546875
1776228797700974600,15.944974609375,-0.0301666259765625,0.224212646484375,1.18597412109375
1776228797720825300,15.964825439453126,-0.0948638916015625,0.183807373046875,1.3136444091796875
1776228797740676600,15.984676513671875,0.0191192626953125,0.2389373779296875,1.12640380859375
1776228797760527600,16.004527587890625,0.294403076171875,0.1165924072265625,0.6865234375
1776228797780378600,16.024378662109374,0.352996826171875,0.0031890869140625,0.45904541015625
1776228797800229600,16.044229736328123,0.546417236328125,-0.05145263671875,0.318511962890625
1776228797820080600,16.06408056640625,0.55224609375,0.1395263671875,0.4755706787109375
1776228797839931400,16.083931396484374,0.4873809814453125,0.335418701171875,0.506988525390625
1776228797859782000,16.103781982421875,0.4191741943359375,0.447479248046875,0.4269866943359375
1776228797879632000,16.1236318359375,0.4208526611328125,0.53863525390625,0.474212646484375
1776228797899483000,16.14348291015625,0.501739501953125,0.558135986328125,0.5986328125
1776228797919334000,16.163333984375,0.53607177734375,0.541778564453125,0.8837432861328125
1776228797939185000,16.183184814453124,0.5259246826171875,0.4625396728515625,0.9528656005859375
1776228797959036000,16.203035888671874,0.433929443359375,0.377899169921875,0.999267578125
1776228797978887000,16.222886962890627,0.220062255859375,0.3173370361328125,1.048553466796875
1776228797998738200,16.24273828125,-0.0503387451171875,0.1716156005859375,1.1753387451171875
1776228798018588000,16.262587890625,-0.197418212890625,-0.0483245849609375,1.30267333984375
1776228798038439000,16.28243896484375,-0.4039306640625,-0.4258880615234375,1.554962158203125
1776228798058290000,16.3022900390625,-0.5392913818359375,-0.8584747314453125,2.08258056640625
1776228798078141000,16.322140869140625,-0.392730712890625,-1.2852325439453125,2.342376708984375
1776228798097992000,16.341991943359375,-0.5528564453125,-1.5919647216796875,2.2781982421875
1776228798117843000,16.361843017578124,-0.9404449462890625,-1.8718109130859375,2.16851806640625
1776228798137694000,16.38169384765625,-1.1514892578125,-2.1544342041015625,1.63897705078125
1776228798157545000,16.401544921875,-1.57958984375,-2.1337127685546875,1.4166412353515625
1776228798177395000,16.42139501953125,-1.6780242919921875,-1.854766845703125,1.3740234375
1776228798197246000,16.441245849609373,-1.3342437744140625,-1.443511962890625,1.2584075927734375
1776228798217097000,16.461096923828126,-0.779632568359375,-0.907318115234375,1.1157379150390625
1776228798236948000,16.480947998046876,-0.2466583251953125,-0.434600830078125,0.9169158935546875
1776228798256799000,16.500799072265625,0.1193389892578125,-0.1180572509765625,0.9623565673828125
1776228798276650000,16.52064990234375,0.3548126220703125,0.049407958984375,1.0910797119140625
1776228798296501000,16.5405009765625,0.3170623779296875,0.0791473388671875,1.295623779296875
1776228798316352000,16.56035205078125,0.272430419921875,0.048583984375,1.379150390625
1776228798336202800,16.58020263671875,0.29248046875,0.0916748046875,1.241363525390625
1776228798356053000,16.600052978515624,0.3096466064453125,-0.006866455078125,0.7879486083984375
1776228798375903700,16.61990380859375,0.4619903564453125,-0.316192626953125,0.4638519287109375
1776228798395755000,16.639755126953126,0.62554931640625,-0.5145416259765625,0.58221435546875
1776228798415606000,16.65960595703125,0.791290283203125,-0.4361572265625,0.9964752197265625
1776228798435457000,16.67945703125,0.8052978515625,-0.347900390625,0.964508056640625
1776228798455308000,16.69930810546875,0.6572418212890625,-0.2833404541015625,0.58636474609375
1776228798475159000,16.719158935546876,0.3387451171875,-0.1838226318359375,0.33197021484375
1776228798495009800,16.739009765625,0.044769287109375,-0.1890716552734375,0.3747406005859375
1776228798514860000,16.758860107421874,-0.156646728515625,-0.1234130859375,0.54327392578125
1776228798534710800,16.778710693359375,-0.469696044921875,-0.137481689453125,0.55682373046875
1776228798554561800,16.798561767578125,-0.6027374267578125,0.073150634765625,0.7999114990234375
1776228798574413000,16.8184130859375,-0.9462890625,0.0124053955078125,0.586456298828125
1776228798594264000,16.83826416015625,-1.0210723876953125,0.14202880859375,0.495819091796875
1776228798614115000,16.858114990234377,-1.4496002197265625,-0.0363006591796875,0.3775177001953125
1776228798633966000,16.877966064453126,-1.3978729248046875,-0.1836090087890625,0.3270263671875
1776228798653816800,16.89781689453125,-1.5259246826171875,-0.1570587158203125,0.3547210693359375
1776228798673667000,16.9176669921875,-1.421783447265625,0.008514404296875,0.291046142578125
1776228798693517800,16.937517822265626,-1.2069549560546875,-0.1403350830078125,0.178955078125
1776228798713368800,16.957368896484375,-1.186981201171875,-0.105560302734375,0.2282562255859375
1776228798733219800,16.9772197265625,-1.1389007568359375,0.1240081787109375,0.1114501953125
1776228798753070800,16.99707080078125,-1.2774810791015625,0.1196136474609375,-0.1480560302734375
1776228798772922000,17.016922119140624,-1.237548828125,0.04095458984375,-0.02001953125
1776228798792773000,17.036773193359377,-1.2624053955078125,-0.242889404296875,-0.093414306640625
1776228798812624000,17.056623779296874,-1.178497314453125,-0.1789093017578125,0.1827239990234375
1776228798832474000,17.07647412109375,-1.105438232421875,-0.1236419677734375,0.30767822265625
1776228798852324900,17.096324951171876,-1.4399566650390625,-0.3948974609375,-0.0193328857421875
1776228798872175900,17.11617578125,-0.9459075927734375,-0.2546234130859375,0.01507568359375
1776228798892027100,17.136027099609375,-0.9281463623046875,-0.3050689697265625,0.143402099609375
1776228798911878100,17.155878173828125,-0.82769775390625,-0.381500244140625,0.1157073974609375
1776228798931729200,17.175729248046874,-0.87353515625,-0.41424560546875,0.049560546875
1776228798951580200,17.195580078125,-0.8983917236328125,-0.4894256591796875,0.06402587890625
1776228798971431000,17.215430908203125,-0.889739990234375,-0.4966278076171875,0.1827850341796875
1776228798991281200,17.23528125,-0.8184814453125,-0.41192626953125,0.284332275390625
1776228799011132000,17.2551318359375,-0.806121826171875,-0.332427978515625,0.1918792724609375
1776228799030983000,17.27498291015625,-0.62274169921875,-0.3277587890625,0.3086090087890625
1776228799050834000,17.294833984375,-0.860748291015625,-0.087493896484375,0.2938995361328125
1776228799070685200,17.314685302734375,-0.82171630859375,-0.358428955078125,-0.020172119140625
1776228799090536200,17.3345361328125,-1.05859375,-0.372467041015625,0.0468597412109375
1776228799110387200,17.35438720703125,-1.1138763427734375,-0.274078369140625,0.091705322265625
1776228799130238000,17.374238037109375,-0.969635009765625,-0.3162689208984375,0.011199951171875
1776228799150088200,17.394088134765624,-0.8265228271484375,-0.343719482421875,-0.0068206787109375
1776228799169939000,17.41393896484375,-0.84503173828125,-0.341583251953125,0.0166473388671875
1776228799189790000,17.4337900390625,-0.931640625,-0.314697265625,-0.021697998046875
1776228799209641000,17.453640869140624,-0.9309539794921875,-0.355438232421875,-0.0368804931640625
1776228799229492000,17.473491943359374,-1.025970458984375,-0.25958251953125,0.0637359619140625
1776228799249343000,17.493343017578123,-0.988922119140625,-0.3476104736328125,0.0657196044921875
1776228799269194200,17.5131943359375,-0.9391632080078125,-0.3525238037109375,0.060699462890625
1776228799289045000,17.533044921875,-0.9785919189453125,-0.324920654296875,0.0135650634765625
