time,seconds_elapsed,z,y,x
1776228781828983000,0.072983154296875,1.4678887787818908,2.482482877938449,1.302773619905114
1776228781848834000,0.092833984375,2.929683916863799,-0.13362521111369133,1.4177688032202422
1776228781868684000,0.11268408203125,1.7049422156661749,-0.18466478573828934,0.1067997480303049
1776228781888535000,0.13253515625,2.7176690596461293,0.8029165110692381,-0.012750102914497255
1776228781908386000,0.152385986328125,2.920664744105935,1.6911013218402862,-0.3112768301542848
1776228781928237000,0.172237060546875,3.872694835060835,2.236006655931473,0.7043800028629601
1776228781948087000,0.192087158203125,2.5920564745962618,1.5541405365630983,-0.09264562353678048
1776228781967938300,0.211938232421875,1.2245832957655192,-0.22388620453625915,-0.6509745758898556
1776228781987789000,0.2317890625,1.5337889456689358,-1.1233461502984166,-0.6557226471997797
1776228782007640000,0.25164013671875,1.3268892395079135,1.6268649965122342,1.67318075748533
1776228782027491000,0.271490966796875,3.294109934207797,2.236943936781585,2.9758862805902955
1776228782047341000,0.291341064453125,2.40770411580801,0.7027803125813603,2.7109160782545803
1776228782067192000,0.311192138671875,0.33959903460144997,-0.0730237351566553,2.5512165146857497
1776228782087043000,0.33104296875,-1.5719570560216902,0.13655132769346237,2.3544148625604806
1776228782106894000,0.35089404296875,-1.9330846163421869,0.33595570966303345,2.0102368296056983
1776228782126745000,0.3707451171875,-2.6818945664316414,0.4330944799005985,0.38860622661560773
1776228782146595000,0.390594970703125,-3.7834026866704225,-0.4146314792320132,-2.2633219483584166
1776228782166446000,0.410446044921875,-4.920402976050973,-0.7460831554740667,-2.9573429081618783
1776228782186297000,0.430297119140625,-4.985836109948158,-1.6979440273419022,-2.578193368938565
1776228782206148000,0.450148193359375,-6.1975873966693875,-2.8860794606760143,-6.079486502423882
1776228782225998000,0.469998046875,-6.837784411826729,-3.8201574230939146,-6.924957083845138
1776228782245849000,0.48984912109375,-5.793340241068601,-4.55786058049649,-7.258750062516331
1776228782265700000,0.5097001953125,-5.5605386164098975,-5.208348395782709,-5.60553569599986
1776228782285551000,0.529551025390625,-6.097923491868376,-4.531758463251591,-3.0736387988120315
1776228782305402000,0.549402099609375,-5.910846092030406,-4.984331550604105,-1.5225351457268
1776228782325252000,0.569252197265625,-5.818807859802246,-4.085783751250803,0.26834873885810373
1776228782345103000,0.58910302734375,-5.628730693626403,-2.2162565380617973,1.1505822400093078
1776228782364954000,0.6089541015625,-4.7076750021278855,0.04746902266144752,2.2185487406522033
1776228782384804900,0.628804931640625,-4.052053623345494,1.0122574729025364,4.009485232207179
1776228782404656000,0.64865625,-2.553586750948429,2.2964047182708978,6.121057699218392
1776228782424506000,0.668506103515625,-0.6979466088145971,3.797977155467868,5.942243100813031
1776228782444357000,0.688357177734375,1.5527753856897353,4.851166942739487,4.64010748655051
1776228782464208100,0.7082080078125,3.805915547251701,6.393218105319142,4.083712790195643
1776228782484059100,0.72805908203125,5.342162991988658,7.211832828518748,2.089967953446507
1776228782503910100,0.74791015625,5.612342453405261,8.29893891391754,0.23507453802675007
1776228782523760000,0.767760009765625,4.326320061814784,10.231772770369052,-0.49326633226871486
1776228782543611100,0.787611083984375,3.967488503476977,11.307620379650592,-1.536179055675864
1776228782563462100,0.807462158203125,4.820341596364974,10.296599755066632,-1.8059788701251147
1776228782583313000,0.82731298828125,5.9965785021126266,9.585174655997752,-0.845548907354474
1776228782603164000,0.847163818359375,6.467689116674661,8.857814321172237,-0.15075696317851542
1776228782623014000,0.867013916015625,7.172430792456865,8.358225800144671,1.8185212485730646
1776228782642865200,0.886865234375,6.412306836670637,7.921969056820869,3.8883366408288476
1776228782662716200,0.906716064453125,3.9047581987977025,5.299979216253758,4.179555383142828
1776228782682567200,0.926567138671875,1.2347259195953606,1.632303680434823,5.318185319551826
1776228782702418200,0.946418212890625,-1.4914032176211476,-2.0693594651818272,8.737844710445403
1776228782722268200,0.96626806640625,-6.7203539641886945,-5.064173733603954,11.99161386643648
1776228782742119200,0.986119140625,-13.031050438165664,-10.530070657289027,8.85012668927908
1776228782761970000,1.005969970703125,-13.149533025205134,-13.323568572640418,3.785982766291499
1776228782781821000,1.025821044921875,-11.113348684394358,-16.656305466884373,-2.848767382630706
1776228782801672000,1.045671875,-10.622406411159037,-19.79511436474323,-6.140199037539959
1776228782821522000,1.06552197265625,-14.480527946466207,-17.742299207127093,-4.562255892845988
1776228782841373000,1.085373046875,-17.628250803142784,-15.69033277529478,-2.6007068140417338
1776228782861224000,1.105223876953125,-13.65445355491042,-12.361337990188598,0.7647305727988482
1776228782881075000,1.125074951171875,-7.942666392412781,-8.267653548815845,3.3969986462742088
1776228782900925000,1.144925048828125,-3.771487792471051,-3.0478900250494476,4.04322091307044
1776228782920776000,1.16477587890625,-0.9197381791591643,1.6349597479015587,3.511841415506601
1776228782940627000,1.184626953125,0.23141046256124972,5.592181124386191,3.76882237265408
1776228782960478000,1.20447802734375,-1.123339428296685,8.043895062312483,4.729094806775451
1776228782980328700,1.22432861328125,-1.7855046757645905,10.517564226937294,6.2220829555004835
1776228783000180000,1.244179931640625,-0.4277056264691055,12.67825640642643,5.602580353325605
1776228783020030000,1.264030029296875,1.865499857369065,11.785116311335562,2.16761262640208
1776228783039881000,1.283880859375,4.058686193227768,11.658906344914435,0.9314552126988768
1776228783059732000,1.30373193359375,4.614091294023394,10.743372047185897,0.1361775259450078
1776228783079583000,1.3235830078125,4.0201743840038775,10.637456680774688,1.0871434947997332
1776228783099434000,1.34343408203125,3.935972252228856,11.23315229090452,1.9694544451013207
1776228783119284000,1.363283935546875,4.8404614243298765,11.353936725145578,0.8861918833881616
1776228783139135000,1.383135009765625,4.9940287687540055,10.781501579093932,-1.003498120124638
1776228783158985700,1.40298583984375,3.530342702358961,9.424216616800427,0.006523264288902282
1776228783178836700,1.422836669921875,1.8492180001318455,8.709474356007576,6.855681887567043
1776228783198687700,1.442687744140625,2.0042033946603537,7.111057747605442,11.617519857037067
1776228783218537700,1.462537841796875,1.0705834051430225,3.5848598899662494,11.46644666751623
1776228783238389000,1.482388916015625,-0.16176994010210036,1.9431623582422732,9.94372856643796
1776228783258240000,1.502239990234375,-0.5126373876929283,1.7895172724068165,7.1108496578127145
1776228783278091000,1.522091064453125,-1.2446873416393995,1.3062263907074927,2.999770429524779
1776228783297942000,1.54194189453125,-2.3728717257492242,-0.4760355037435889,-0.1983721163123846
1776228783317792000,1.5617919921875,-5.838044475191832,-4.490312646402418,-0.5610773012131453
1776228783337643000,1.58164306640625,-10.441522605264186,-8.750842139184474,2.9498581053644415
1776228783357493800,1.60149365234375,-10.858631580525635,-11.588107884591818,4.056694142627716
1776228783377344800,1.6213447265625,-9.743651984295248,-13.421487679600714,2.185643080872297
1776228783397195800,1.64119580078125,-8.168749522471428,-14.01386086730957,-0.8723124111175536
1776228783417045800,1.661045654296875,-7.12133948764503,-12.88163495272398,-2.8124843553721903
1776228783436896800,1.680896728515625,-9.091785574132203,-10.476106427389382,-3.33724180444777
1776228783456748000,1.700748046875,-11.895209840214251,-8.405698329937458,-2.8889310507148505
1776228783476599000,1.72059912109375,-8.208969304656982,-6.995397816771268,-2.3418477880626916
1776228783496450000,1.740449951171875,-3.748264153271913,-5.163806074222922,-3.3118414057314394
1776228783516300800,1.76030078125,-3.5747833171099423,-2.563443543574214,-1.0339923348486424
1776228783536151000,1.780151123046875,-4.904526777005195,-0.21589374447762966,2.7616677758485078
1776228783556001800,1.800001708984375,-3.2937913697779178,1.5330121160775423,5.540437493145466
1776228783575852800,1.819852783203125,0.6675985245630145,4.46666961274743,5.809349711105227
1776228783595703800,1.839703857421875,2.1780554022222756,6.040365036869049,4.87376338995099
1776228783615554800,1.859554931640625,2.016343914309144,7.10554219905436,3.7399320859953757
1776228783635404800,1.87940478515625,1.294549396917224,8.108441476503014,2.7772581436902284
1776228783655255800,1.899255859375,0.9474909862205385,9.846052620583771,1.772348695462942
1776228783675107000,1.919107177734375,-0.4934662387549877,10.806344928449391,0.6003010580986737
1776228783694958000,1.9389580078125,2.2950071264326573,10.555046108591556,0.8209659625008702
1776228783714808800,1.958808837890625,6.430255750337243,10.469987652248143,-0.28511136534959075
1776228783734659000,1.9786591796875,6.432341908961534,11.440996584439278,-0.30951047806888815
1776228783754509800,1.998509765625,2.6755028195679187,12.351045728754997,4.1628590998858215
1776228783774360800,2.01836083984375,4.4817070228815075,11.419909372746943,5.8311032777518035
1776228783794211800,2.0382119140625,7.095799972718954,9.757858204302192,5.076899359664321
1776228783814062800,2.058062744140625,3.9168870280086994,8.370770808941126,8.20951174097061
1776228783833914000,2.0779140625,-1.0561924762189387,5.932033841487765,10.677264959549904
1776228783853764000,2.09776416015625,-3.2571880245238543,3.553056638470292,8.846868564265966
1776228783873615000,2.117614990234375,-4.257980685082078,1.6593302190482615,5.752298036584258
1776228783893466000,2.137466064453125,-3.2972733666747804,0.4575806863814592,3.723890174993872
1776228783913316900,2.15731689453125,-2.583091370113194,-1.182354219584167,1.5254472337812184
1776228783933167900,2.17716796875,-5.696872501960397,-4.582892438161373,-0.566616815161705
1776228783953017900,2.197017822265625,-10.246818363809584,-8.712393458324671,-0.3983896617442369
1776228783972868900,2.216868896484375,-13.288195645964144,-12.776536747914552,3.186981684875488
1776228783992720100,2.23672021484375,-13.330810798853635,-13.327802849209307,6.948057388925552
1776228784012571100,2.256571044921875,-9.3058222925663,-18.891187502700088,1.1030196938455104
1776228784032422100,2.276422119140625,-6.829954741114378,-19.87814920630455,-3.460676460936665
1776228784052273200,2.296273193359375,-13.268810562014579,-14.571714530301094,-5.230905680027604
1776228784072123100,2.316123046875,-20.41633721483946,-11.31621986569166,-4.447584973049164
1776228784091974100,2.33597412109375,-19.038415707230566,-6.60120736028254,0.9242588714540004
1776228784111825000,2.355824951171875,-10.475502031755447,-1.210722528195381,5.006099145776033
1776228784131676000,2.375676025390625,-2.2785759238526224,3.7113632863759993,4.803983166760206
1776228784151527000,2.39552685546875,2.4990645949050783,7.023604505079985,4.118258326137066
1776228784171378200,2.415378173828125,3.0170974119007585,10.05771618014574,5.217361723321676
1776228784191228000,2.435227783203125,1.7001465058222411,12.783545165371894,5.628056155365705
1776228784211079200,2.4550791015625,0.7630009725272655,14.709399830460548,4.881635146239399
1776228784230930200,2.47493017578125,1.1420412061572074,15.326744962340593,4.7434398507311935
1776228784250781200,2.49478125,2.9266081626802682,16.25762997393608,3.888547945491969
1776228784270632000,2.5146318359375,5.306753824955225,14.850903227603435,-0.447053154887259
1776228784290482000,2.53448193359375,6.933132206994295,12.980052072334288,-3.3034152304306623
1776228784310333000,2.5543330078125,7.092724803057313,11.256124001169203,-2.9023364757329224
1776228784330184000,2.574183837890625,6.460114882028103,12.121674663066864,0.7232908934295177
1776228784350035000,2.594034912109375,3.741401866286993,13.239201021170615,5.8685828213185065
1776228784369886000,2.613885986328125,2.263131101961434,12.340582786929607,7.139448560309409
1776228784389737200,2.6337373046875,0.7795330051332712,10.049714075475931,7.530040115523338
1776228784409587200,2.653587158203125,-3.5048730377987023,7.074571306729316,11.054012698328494
1776228784429438200,2.673438232421875,-5.123752880775928,3.514431724260747,12.761259683805703
1776228784449289000,2.6932890625,-2.5023107372194526,0.8748504051625728,10.805008711409569
1776228784469140000,2.713139892578125,-1.8278151466190813,-1.2404027961879969,7.4242346392273895
1776228784488991000,2.732990966796875,-2.008614781361818,-2.193135190193355,3.24818697194457
1776228784508842000,2.752842041015625,-3.321446853944659,-3.6630771021127697,-0.39293724155724047
1776228784528692000,2.77269189453125,-5.9162827301263805,-5.796247652947902,-1.1713631622314453
1776228784548543000,2.79254296875,-9.523011337551473,-10.300655167937277,-0.41176819875538345
1776228784568394000,2.81239404296875,-14.328912320631742,-15.029567019361256,0.6817144359380006
1776228784588245000,2.832244873046875,-15.774743581384419,-17.85748392166495,2.193081121918559
1776228784608096000,2.852095947265625,-12.0073573790133,-18.95634415774345,3.916659648993611
1776228784627946200,2.8719462890625,-7.387291686755418,-17.325301291024683,3.2357863400548696
1776228784647797000,2.891796875,-8.225265774941445,-14.013093974590301,3.0683985600709915
1776228784667648000,2.91164794921875,-11.117826122069358,-10.30598483852744,3.577110883274674
1776228784687499000,2.9314990234375,-10.852013623690604,-6.409308823898434,3.080700407761335
1776228784707350000,2.95135009765625,-8.38482505325675,-2.178513959644735,3.2965152417838572
1776228784727201000,2.971200927734375,-4.6682495851904156,2.02608672516644,4.19988037829101
1776228784747051000,2.991051025390625,-1.3707652061134576,5.554429193618893,4.885899233424663
1776228784766902000,3.010902099609375,0.2723421924084425,8.34069774223864,6.287278188988566
1776228784786753000,3.0307529296875,1.1845862164199352,11.045202784407138,7.4706345713526
1776228784806604000,3.05060400390625,1.643515979322791,13.759979629743098,7.7037144284307955
1776228784826455000,3.070455078125,2.4308202029794455,14.954882657516002,6.066434128627181
1776228784846305500,3.090305419921875,3.810049286055565,15.253885477834938,3.653389528574049
1776228784866155500,3.110155517578125,5.497227881494164,13.574393929767608,-0.7340706461191177
1776228784886006500,3.130006591796875,6.775195561444759,11.173373237246274,-3.6236700976148244
1776228784905857500,3.149857421875,6.479893349209427,10.336799663507938,-3.617660628066957
1776228784925708800,3.169708740234375,5.534920775550604,11.89565992206931,-2.0517685711726545
1776228784945559800,3.189559814453125,5.086106163948774,12.79748484339714,-0.4334700352147221
1776228784965410800,3.209410888671875,4.3516877273052925,13.02151104092598,1.1148001480102538
1776228784985260800,3.2292607421875,1.849589756053686,10.836626669466495,2.857194434714317
1776228785005111800,3.24911181640625,-2.0487416245669126,7.860295567718148,9.260571530476213
1776228785024962600,3.268962646484375,-1.1092097806572914,4.9451025330215685,14.070045111346245
1776228785044813600,3.2888134765625,1.9663545793898403,2.492932668021321,13.815686903917788
1776228785064664600,3.30866455078125,1.269212272695452,0.21575755087733267,7.465741538614034
1776228785084514600,3.3285146484375,-0.6594184329777956,-0.5200023635029792,3.2401258305639025
1776228785104365600,3.348365478515625,-2.2959710030287503,-1.890187139379978,-0.08916822974979877
1776228785124216600,3.368216552734375,-4.551078373010457,-4.036725413571298,-1.036753031733632
1776228785144067800,3.38806787109375,-10.313749627310036,-7.68919548921287,-0.22916005328595637
1776228785163918800,3.4079189453125,-15.510454347050189,-13.23059335182309,3.8686867684632538
1776228785183769600,3.42776953125,-13.736445609420537,-17.67817247965336,6.865169262358545
1776228785203619800,3.447619873046875,-9.91681367150545,-19.173441432791947,7.805846769171953
1776228785223470600,3.467470703125,-9.499610003697871,-17.1793204562068,7.848664751157164
1776228785243321600,3.487321533203125,-9.614373277953266,-13.731438594913483,5.187824078670144
1776228785263172600,3.507172607421875,-9.371614907425641,-10.269596012806891,1.8502613717049359
1776228785283023600,3.527023681640625,-9.234421774697303,-6.198239723098277,1.4401368485033512
1776228785302874600,3.54687451171875,-8.311469894188642,-2.076467835882306,3.4141309828609225
1776228785322724600,3.566724609375,-5.113873876318335,2.3710949253350493,5.205336354485154
1776228785342575600,3.58657568359375,-1.2712433401316403,6.494685260149836,6.315814547643065
1776228785362427000,3.606427001953125,1.8908669383376835,9.926673386740683,6.562371141409874
1776228785382277600,3.626277587890625,3.6524306204140182,12.706186031359433,5.8254047738492485
1776228785402128600,3.646128662109375,3.9847798300176858,14.876664276325702,4.808924130293726
1776228785421979600,3.665979736328125,4.448488643890619,15.923210972321032,2.847252594153583
1776228785441829600,3.68582958984375,4.977828744581341,15.072165805637836,-0.5507525988146662
1776228785461680600,3.7056806640625,5.151386737632751,12.84177874315381,-4.4629403630912305
1776228785481531600,3.72553173828125,5.5267368845731015,11.10991286472678,-5.8977557243108745
1776228785501382700,3.745382568359375,5.826719363579154,10.958472595459222,-4.168674800427258
1776228785521233700,3.765233642578125,4.9573476820886135,12.61605743214488,-1.6176231209143996
1776228785541084700,3.785084716796875,4.189073737594485,13.727269784796237,0.8076888400375842
1776228785560934700,3.8049345703125,2.7551550329536196,13.499357685744762,2.179321476635337
1776228785580785700,3.82478564453125,1.8948697442382574,12.366694548785686,5.88677957226634
1776228785600636700,3.84463671875,0.3721959206931293,9.658749595296383,11.568387285077572
1776228785620487700,3.86448779296875,0.456580423297733,6.283955766567588,13.499264162242412
1776228785640338700,3.884338623046875,-0.736779905077815,3.439543072015047,12.817482506287098
1776228785660188700,3.904188720703125,-0.729804805368185,0.424186366301775,8.410999358955026
1776228785680039700,3.924039794921875,-0.5970768353551625,-1.0706041556701063,4.299961631721258
1776228785699890700,3.943890625,-2.2455407924741504,-2.81001387360543,1.3661106583058833
1776228785719741700,3.96374169921875,-4.893807230070233,-6.178665838578343,2.3710312124490738
1776228785739592400,3.983592529296875,-8.67235253983736,-11.107049876511097,6.617323797824978
1776228785759443700,4.003443603515625,-10.966289991211891,-15.576900457382202,9.329555634853243
1776228785779293400,4.02329345703125,-10.098617514854668,-18.299502881777286,8.195683706626296
1776228785799144700,4.043144775390625,-8.78045051098466,-18.307395096331835,5.644581173709034
1776228785818995700,4.06299560546875,-9.113981039327383,-15.784475870847702,4.2066140704602
1776228785838847700,4.08284765625,-9.905745165002346,-13.059634727615117,4.1420080350369215
1776228785858698500,4.102698486328125,-9.318061011892556,-10.178995119905471,4.307115010607243
1776228785878549500,4.122549560546875,-7.368420982068777,-6.634166211554407,3.852744518443942
1776228785898399500,4.1423994140625,-4.577902374789119,-2.384434299379587,2.6895763531059025
1776228785918250500,4.16225048828125,-2.2706113747142256,1.4619254864633082,1.9542174207419156
1776228785938101500,4.1821015625,-0.5095910057343542,4.539361923992634,2.5381670634984967
1776228785957952500,4.201952392578125,0.7041285123199224,7.572225060302019,3.792362822717428
1776228785977803500,4.221803466796875,1.4714702905304728,9.89484500080347,4.248161886379123
1776228785997654500,4.241654541015625,1.8893347603343427,12.270886734890937,5.179123470342159
1776228786017504500,4.26150439453125,1.8351852369956672,14.409123921465874,4.9217771870136255
1776228786037355500,4.28135546875,3.216878225967288,14.3523387889266,1.5767019124612212
1776228786057206500,4.30120654296875,5.277156559070945,12.704852152407168,-2.7016502372592686
1776228786077057500,4.3210576171875,7.7228195263952015,10.56249876268506,-5.060744343677163
1776228786096908500,4.340908447265625,8.293491754427551,9.674487262654305,-3.8812849687516686
1776228786116759600,4.360759521484375,7.237658174648881,11.266659423708916,-0.638044513298571
1776228786136609500,4.380609619140625,5.5033185995846985,11.908829200243948,1.7755162195831535
1776228786156460500,4.40046044921875,2.914465304943919,11.222743125092983,2.7650556647211313
1776228786176311600,4.4203115234375,1.7269174622394143,9.770031457176804,5.006149999180436
1776228786196162600,4.44016259765625,-0.341041488494724,7.264072718843817,8.881388673505187
1776228786216013300,4.460013427734375,0.42980186809599397,5.949897999480366,12.174036133944988
1776228786235864600,4.479864501953125,2.325536558600515,5.3956403151541945,10.70245083873272
1776228786255714300,4.49971435546875,1.7027789001524447,4.681809323987364,5.970964168384671
1776228786275565600,4.519565673828125,-0.6505136803798377,4.434100053054094,3.6246161462932824
1776228786295416600,4.53941650390625,-4.398424344038963,4.477938610258698,4.24529480651021
1776228786315267600,4.559267578125,-7.687341970300674,3.5452331052377817,4.375408210110664
1776228786335118600,4.57911865234375,-8.225444638639688,0.14458821141570805,3.668049629828334
1776228786354969600,4.598969482421875,-9.636160746869445,-5.3791737489998335,5.972919394105673
1776228786374819600,4.618819580078125,-10.92652964323163,-10.038922632348537,11.146970383489132
1776228786394670600,4.638670654296875,-8.568778768116236,-12.10170739531517,14.779162517994642
1776228786414521300,4.658521240234375,-6.5607374027282,-12.881923706537485,11.598891144412756
1776228786434372400,4.678372314453125,-5.84537496421039,-12.186679342418909,5.737213280177116
1776228786454223600,4.6982236328125,-6.284575359770655,-9.656731825733184,2.1692098324656484
1776228786474073600,4.718073486328125,-7.016242451879382,-6.721534113883972,-0.27645255033671856
1776228786493924600,4.737924560546875,-6.402352428889274,-3.9053456432968376,-1.8671143068283795
1776228786513775600,4.757775634765625,-3.5543709359392524,-0.7504051103264093,-2.67191911586225
1776228786533626600,4.777626708984375,0.31352760475575925,3.0663474727600812,-2.5692688887268305
1776228786553477600,4.7974775390625,3.8156311778411265,6.95867289096415,-2.6113977194041014
1776228786573328400,4.817328369140625,5.512319652163982,9.81280150836706,-2.280391156581044
1776228786593178600,4.8371787109375,5.709278979068994,12.52998658388853,-0.6037970835208892
1776228786613029400,4.857029296875,5.560815095263719,13.965637811410426,0.35926059740483757
1776228786632880400,4.87688037109375,5.83651711949408,13.392149356913565,-1.4270733687907458
1776228786652731400,4.8967314453125,6.041833940377831,13.019542371201515,-3.3539006783038374
1776228786672582700,4.916582763671875,5.472181703042984,12.270461202955245,-3.885277253258228
1776228786692433700,4.93643359375,2.773271704402566,10.506471170514821,-1.069732049010694
1776228786712283600,4.95628369140625,-0.3886494812354445,10.029398432677983,6.622441871491074
1776228786732134700,4.976134765625,-0.6305930282488464,8.572755270531774,10.192291823852061
1776228786751985700,4.995985595703125,2.838147496677935,6.8457812557995315,7.858900898489355
1776228786771836400,5.01583642578125,4.313014005517959,5.027358206903934,6.7471098691672085
1776228786791687400,5.0356875,-0.30031214935183526,3.9096722743242975,10.756417406719923
1776228786811538400,5.055538330078125,-5.6195478547394275,2.059282015542686,14.085205271077156
1776228786831388400,5.075388427734375,-4.045546725669503,0.7529615168109536,11.678429376029968
1776228786851239200,5.0952392578125,-0.028065234011411665,-1.0982689921870827,4.491850815755129
1776228786871090200,5.115090087890625,1.3703963728010653,-0.8332757012367248,2.4172481892228124
1776228786890941200,5.134941162109375,-1.87653153899312,-0.8589213068857788,2.567335290315747
1776228786910792200,5.154792236328125,-5.035470201689004,-1.4754998383074998,2.797694197997451
1776228786930643200,5.174643310546875,-6.220029530102014,-3.4802015378788114,2.7317759109318254
1776228786950493200,5.1944931640625,-5.718315687483549,-5.905536879706382,4.181079231709242
1776228786970344200,5.21434423828125,-5.542549955254793,-8.632151462352276,4.8922833815038205
1776228786990195200,5.2341953125,-5.118561157351732,-9.537178394591807,5.3285091451674695
1776228787010046200,5.254046142578125,-4.6311599177241325,-10.15728831501007,4.040101904267073
1776228787029897200,5.273897216796875,-4.319071990382671,-9.640405544832348,1.2921908510923386
1776228787049747200,5.293747314453125,-5.123443668696284,-8.977349047613144,-1.2199866156250239
1776228787069598200,5.31359814453125,-6.003482874673605,-8.663026493087411,-3.315544351902604
1776228787089449200,5.33344921875,-4.949102416312694,-6.975190310522914,-2.5523440574109553
1776228787109300200,5.35330029296875,-1.978417649888247,-4.378591516321897,-1.2692366764843463
1776228787129151200,5.373151123046875,1.8330794968880713,-1.6175661300301551,-0.569824671292305
1776228787149002200,5.393002197265625,4.07371308196783,0.6984118882387876,0.6932505599528551
1776228787168852000,5.41285205078125,4.359113493391871,2.171512848711014,1.7967957389771938
1776228787188703200,5.432703125,3.620731998336315,2.3127818525761366,2.196644951879978
1776228787208554200,5.45255419921875,1.6435206554979085,1.446422212383151,2.784899598354101
1776228787228405200,5.4724052734375,0.4574596903502941,0.7507347806721926,4.052171112245321
1776228787248256300,5.49225634765625,-0.13212412236835808,1.7021254046797751,4.585838428485394
1776228787268107300,5.512107177734375,0.5861918687254191,2.647165198355913,4.53188150510937
1776228787287957200,5.531957275390625,1.7898334987491369,3.515931899690628,2.4736489986196157
1776228787307808300,5.551808349609375,2.282291437244415,5.084358443498611,0.6302592662498354
1776228787327659000,5.571658935546875,1.7119979793965816,7.124180848550796,-0.9495327211812138
1776228787347510000,5.591510009765625,1.6731377951264381,8.483906774255633,-2.9744039330780505
1776228787367361300,5.611361328125,2.8523411494642494,9.49760100196302,-4.623670438751578
1776228787387212300,5.63121240234375,4.5591082424700256,9.944393752348422,-5.433608519020677
1776228787407062300,5.651062255859375,5.759180781835317,10.318079765468836,-5.428464726391434
1776228787426913300,5.670913330078125,5.405978169295191,10.41172952454686,-4.66193616425991
1776228787446764300,5.690764404296875,3.9917368095487356,10.022609795451164,-3.182089821180701
1776228787466615300,5.710615234375,1.90273507078588,8.95939604229331,-0.07976794871985912
1776228787486466000,5.730466064453125,0.17935761924088,7.281198625689744,3.6007547937124964
1776228787506317000,5.750317138671875,-0.9403507590770721,4.94433505578041,5.997303309255838
1776228787526167000,5.7701669921875,-0.8522780694790184,2.1946768666774035,6.438593370571732
1776228787546018000,5.79001806640625,-0.404774905801937,-0.09610825814604759,8.079158683395386
1776228787565869000,5.809869140625,0.4749252044141292,-2.5948019739121198,8.330379761841893
1776228787585720300,5.82972021484375,-0.22134097703285513,-5.130343365082145,7.159435117283463
1776228787605571300,5.8495712890625,-2.6132828024983406,-7.421164145740867,7.367339616572856
1776228787625422300,5.86942236328125,-4.607893023905158,-9.212549550107122,9.534871286693214
1776228787645272300,5.889272216796875,-3.0460259847432374,-10.046512064564228,9.268308262208103
1776228787665123300,5.909123291015625,-0.9494389054179191,-11.042430981606245,2.5509523107916117
1776228787684974000,5.92897412109375,-3.4702906769782302,-11.666070245194435,-3.18110314823091
1776228787704825000,5.9488251953125,-9.08420198713541,-11.843207265776394,-5.684690481257438
1776228787724676000,5.968676025390625,-13.347212483078241,-10.96959137084484,-4.547584393414855
1776228787744527000,5.988527099609375,-13.381172035825251,-9.004220103403926,-2.5909476365715265
1776228787764377000,6.008377197265625,-9.81506126999259,-6.617106940203905,-2.7925825540721414
1776228787784228000,6.02822802734375,-5.450760729351639,-3.9938346586108207,-2.5975480577498673
1776228787804079400,6.048079345703125,-1.7740630981653929,-1.4329413840413092,-0.6503788019537925
1776228787823930400,6.067930419921875,-0.017438589524291455,0.9373755426585674,1.5062433516174554
1776228787843781400,6.087781494140625,0.3938304275372997,2.889073674055934,3.3810289237260815
1776228787863631400,6.10763134765625,0.3265144755681976,4.7786570023238655,5.0190936519056555
1776228787883482400,6.127482421875,-0.5744079074293374,7.1458648570925,4.400030610191822
1776228787903333400,6.14733349609375,-0.6854255654156207,8.003397047707438,1.0681576393008232
1776228787923184400,6.167184326171875,0.41485739694237705,8.311832297760247,-1.717137388111651
1776228787943035400,6.187035400390625,2.8777602528810498,8.78003725400865,-3.2725100968182086
1776228787962886400,6.206886474609375,4.7729824638187885,9.13795169750154,-3.4998280293688175
1776228787982737400,6.2267373046875,5.31204024092555,10.731341417652368,-3.239935276427865
1776228788002587400,6.24658740234375,5.168461791074276,11.52864564179778,-4.498434870320558
1776228788022438400,6.2664384765625,4.954299400433897,12.137136436092852,-4.5056817727088925
1776228788042289400,6.286289306640625,3.8911692339062687,11.670509104424715,-2.3959897126168013
1776228788062140400,6.306140380859375,2.224339014491439,9.942639017635583,2.34205529333353
1776228788081991400,6.325991455078125,1.0945640732545405,6.916143662792444,7.8819696393877265
1776228788101841400,6.34584130859375,1.3715876284122466,3.796892867362499,10.810510231435298
1776228788121692400,6.3656923828125,3.075094258317351,1.9045131863743066,8.3267463737756
1776228788141543400,6.38554345703125,1.9504133522838354,0.28904782801568507,3.9030893888026474
1776228788161394400,6.40539453125,0.4906851566690951,-0.3360185457661748,1.3924293409109114
1776228788181245400,6.425245361328125,-2.4286469505935906,-2.492484924253821,0.6990934407621622
1776228788201096200,6.44509619140625,-4.474087780049443,-6.313938232377171,2.920178421893716
1776228788220946400,6.464946533203125,-5.745974094259738,-10.316272423785925,6.537689704617858
1776228788240797400,6.48479736328125,-6.089149818304181,-13.265046241044997,9.813535667860508
1776228788260648400,6.5046484375,-4.8608144765287635,-14.524562318503856,8.644959505999088
1776228788280499500,6.52449951171875,-4.112775510811805,-14.814840565097331,3.0801527107506987
1776228788300350500,6.5443505859375,-7.017336676856875,-14.301354451620577,-1.933606594389677
1776228788320201500,6.564201416015625,-11.739309668928383,-12.779603149747848,-4.00237744602859
1776228788340051500,6.584051513671875,-13.524004635745285,-10.704026709747314,-2.7359885601907967
1776228788359902500,6.60390234375,-11.287372541391848,-6.864598184472322,0.20116145476996897
1776228788379753500,6.62375341796875,-6.6187295729696745,-2.1549334698319433,1.3041846557468175
1776228788399604200,6.643604248046875,-1.5659715518712995,1.226084932500124,0.5411456892967224
1776228788419455200,6.663455322265625,1.9673335074245928,3.199565272116661,1.8331465707749128
1776228788439306500,6.683306396484375,3.1185207275897264,5.143028074610233,3.8299709610998627
1776228788459157500,6.703157470703125,1.8730185624361038,6.183641288903355,4.770931961029768
1776228788479007500,6.723007568359375,-0.3558428248506039,7.393179575750231,5.631519447562098
1776228788498858500,6.7428583984375,-2.416602292534709,8.319406532406806,5.622704857465624
1776228788518709500,6.76270947265625,-2.215004199913144,8.020583744829892,3.21088804564178
1776228788538560500,6.782560546875,-0.38963527740240095,7.825274523219465,0.4187731090813875
1776228788558411300,6.802411376953125,2.032711111742258,6.9255217319905755,-1.6411565567150712
1776228788578262300,6.82226220703125,2.382203763848543,7.3219924083709715,-1.6872309101477265
1776228788598112300,6.8421123046875,2.692572027790546,9.918329921287297,-1.2088207862272857
1776228788617963300,6.86196337890625,2.544050860840082,11.480103436946868,-2.1175009802773594
1776228788637814500,6.881814453125,1.6387755067974328,12.480866871410608,-0.9118623312175274
1776228788657665500,6.90166552734375,0.7971125009655952,11.975041501820087,1.341394150200486
1776228788677516500,6.9215166015625,-0.43753085491284727,9.641467621105908,3.6398774283111095
1776228788697367600,6.941367431640625,-0.6735742379717529,7.012850471353531,6.553042172050476
1776228788717217500,6.961217529296875,0.7599164505153894,4.733717205879092,8.219630983924866
1776228788737068300,6.981068359375,2.130908304991573,2.7634751175314185,6.386627036491036
1776228788756919300,7.000919189453125,2.163385510226339,1.0802689328551291,2.3161446070075034
1776228788776770300,7.020770263671875,0.6112492992229759,-1.2564093436151742,0.41863633095920083
1776228788796621300,7.040621337890625,-1.3612024279981851,-4.1934570672452445,1.8008131579250095
1776228788816472300,7.060472412109375,-3.1079607551306485,-8.220957848614454,4.581045348989964
1776228788836322300,7.080322265625,-4.647179324632883,-13.18441729158163,6.015609950318932
1776228788856172800,7.1001728515625,-4.820868250587583,-16.284477064329383,5.856605967798829
1776228788876023800,7.12002392578125,-3.6790555924892425,-17.001048294115066,4.942816467911005
1776228788895874800,7.139874755859375,-4.288895463305711,-16.45610555062294,3.302623495531082
1776228788915725800,7.159725830078125,-4.772135491600633,-15.434480529916286,-0.039144846430420877
1776228788935576600,7.17957666015625,-8.014073924544453,-12.275380539178848,-2.0654595351338387
1776228788955426800,7.1994267578125,-12.127872933185099,-8.454068685352802,-2.91196413577795
1776228788975277600,7.219277587890625,-11.677992153656483,-3.7791111269563435,-1.9307517894804476
1776228788995128800,7.23912890625,-8.194463809442519,0.48679742851555347,-1.3038590770542622
1776228789014979800,7.258979736328125,-4.393311823330819,4.2697097013205285,-0.561726705032587
1776228789034830800,7.278830810546875,-1.2495549476757646,7.330891754141449,1.661259725806117
1776228789054681900,7.298681884765625,0.27924948757886886,9.15853972750008,2.8508862744808194
1776228789074531800,7.31853173828125,-0.053913522625714534,10.559596026980877,4.475594677481055
1776228789094382800,7.3383828125,-0.3760387137264013,12.007662499439716,5.881105033761263
1776228789114233900,7.35823388671875,1.236950025385618,11.372705723023413,4.071451274515688
1776228789134084600,7.378084716796875,2.469092358228564,10.138298367857933,0.7314604636207223
1776228789153935600,7.397935546875,3.946431102401018,8.662735985708236,-3.1290482590839264
1776228789173787000,7.417786865234375,6.009931320160627,8.070989989987016,-4.056829459445178
1776228789193636900,7.437636962890625,6.5811646892070765,9.251359465494751,-1.7889809735730289
1776228789213487900,7.45748779296875,5.201378556770086,11.653330006086826,2.1549922142818567
1776228789233339000,7.4773388671875,4.933780928540229,12.694973732471466,3.144664638149738
1776228789253190000,7.49718994140625,4.829523266208172,12.766596368658542,2.340112927094102
1776228789273041000,7.517041015625,0.7891788584221154,10.264599519693851,3.7968157104730604
1776228789292891600,7.5368916015625,-2.944858105120063,7.329186703789234,9.078131142789125
1776228789312742700,7.55674267578125,-2.310373037868738,5.087689633747935,13.63362236380577
1776228789332592600,7.576592529296875,0.7703572535742074,2.986644990491867,11.374985358393191
1776228789352443600,7.596443603515625,1.1171060868650675,1.4593389771014451,3.756172149917483
1776228789372294700,7.616294677734375,-0.462583024713397,0.39673897192776203,0.3263695506721735
1776228789392146000,7.63614599609375,-2.675679345178604,-1.0998138835415243,0.6757131496965885
1776228789411997000,7.655996826171875,-3.2606250132352113,-4.1848035129293795,2.196968777006864
1776228789431848000,7.675847900390625,-5.57853136921823,-8.90693403365016,4.7040609032839535
1776228789451698000,7.695697998046875,-10.846845281141995,-13.61465579752922,9.077513303151726
1776228789471548700,7.715548583984375,-14.908327827090025,-16.733462356323002,10.262074385130404
1776228789491399700,7.735399658203125,-9.280482099604606,-18.864974034035203,4.850049336886405
1776228789511250700,7.755250732421875,-6.069062723565101,-19.86787331148386,0.31201427758336064
1776228789531101700,7.775101806640625,-7.6906719915062185,-16.367262899565695,0.8841168306797742
1776228789550952700,7.79495263671875,-10.133308889007568,-11.942441546988487,2.1552187165141103
1776228789570802700,7.814802734375,-12.164606626820564,-8.490597796326876,3.9652737500369546
1776228789590654000,7.834654052734375,-11.068985811054706,-3.8477509479403493,6.425297835668921
1776228789610505000,7.8545048828125,-5.00718635649085,2.70571383343637,6.375707583069801
1776228789630355700,7.874355712890625,0.41541568841226395,7.591036143755912,4.500135244497656
1776228789650206700,7.894206787109375,3.6375106991797685,10.821983227086067,4.022100383630395
1776228789670057700,7.9140576171875,3.566382568511367,12.667954792642593,4.604538452780247
1776228789689907700,7.93390771484375,1.273843878018856,16.041969453692435,5.724637876242399
1776228789709758700,7.9537587890625,1.0652858832567929,18.115757256710527,5.01785388097763
1776228789729609700,7.973609619140625,2.5365865163087844,17.533975605642794,0.8792340270742773
1776228789749460700,7.993460693359375,6.514921992492676,15.056491266644,-5.985894611012935
1776228789769311700,8.013311767578125,10.695680906206368,11.693970644032955,-11.792606374830006
1776228789789162800,8.033162841796875,9.852386499780415,10.97964514734745,-10.804717619508505
1776228789809013800,8.053013671875,6.259319922482967,13.026014197564125,-7.364315300315618
1776228789828863700,8.07286376953125,4.546980582302808,15.19409005756378,-2.728115634858608
1776228789848715500,8.092715576171875,4.174357814499736,16.31199050967693,0.9133645524740218
1776228789868566500,8.11256640625,2.7634102356016634,15.387498998510837,3.8245688097953794
1776228789888417500,8.13241748046875,-0.180494368185848,12.602081513762473,10.542509283101557
1776228789908268500,8.1522685546875,-2.2536364206463095,7.7867048463284965,18.881071766877174
1776228789928119300,8.172119384765624,-1.040303344626352,1.9118097731232642,18.248382935392854
1776228789947969500,8.191969482421875,-2.1375848601460454,-2.0653829627662894,14.101243382686375
1776228789967820500,8.211820556640625,-3.0231922216445204,-3.592316635712981,10.793153438442944
1776228789987671600,8.231671630859376,-3.278450592783093,-3.9588156599387525,5.812473980605602
1776228790007522600,8.2515224609375,-4.743001167052984,-5.847977255663276,1.7125597049325703
1776228790027373600,8.27137353515625,-8.402925358092784,-10.087620320022106,2.7438538867384192
1776228790047224600,8.291224609375,-9.943868851691484,-14.163656291979551,8.412320962947607
1776228790067074600,8.311074462890625,-8.551979609006644,-17.33558887628317,11.411440819609165
1776228790086925600,8.330925537109374,-6.347786141443252,-17.107389192461966,8.991467004814744
1776228790106776600,8.350776611328126,-7.5838137912869446,-15.180603968524933,6.519927253434061
1776228790126627300,8.37062744140625,-7.849294281232357,-13.12758890442252,5.017430687129497
1776228790146478300,8.390478271484374,-6.643171940308809,-11.147779361784458,4.096705250498652
1776228790166329600,8.41032958984375,-5.0279351300090545,-8.202130398547649,4.105141654932499
1776228790186180600,8.4301806640625,-3.0578122841268778,-3.6640512078419327,2.857940869167447
1776228790206030600,8.450030517578124,-2.148602220983803,0.8759551515340804,1.9493623819261787
1776228790225881600,8.469881591796875,-1.7748761681139469,5.182139603292942,4.40831503893435
1776228790245732600,8.489732666015625,-0.6946455214425921,9.444083931308985,6.454809176835417
1776228790265583600,8.50958349609375,0.5416460400342941,13.451571852219104,7.864073332691192
1776228790285434400,8.529434326171875,2.3681427975311875,17.281641012996435,8.624155202901363
1776228790305285400,8.549285400390625,4.678036819711327,18.204866449749467,5.599417505380511
1776228790325135400,8.56913525390625,6.608879794606566,16.830480130529402,0.5607967307060957
1776228790344986400,8.588986328125,8.154791139745711,14.170554819321632,-3.8307267479032276
1776228790364837600,8.608837646484375,7.859322338771819,12.673524117207526,-5.601999338567256
1776228790384688600,8.628688720703124,6.224864110651612,12.415304558175801,-6.3007157627105705
1776228790404539600,8.64853955078125,4.689101819083095,13.08421153498888,-6.013911914229393
1776228790424390700,8.668390625,3.540979831707477,14.096949484884739,-2.927401358884573
1776228790444241400,8.688241455078124,1.9468390009284018,14.594837047213316,1.6824433836102484
1776228790464091600,8.708091552734375,1.3886866472512482,12.359670933759212,5.8272384190171955
1776228790483942400,8.7279423828125,4.239705608201026,9.094405985763668,8.60278742070198
1776228790503793400,8.74779345703125,4.6682221126616,6.790823338687419,13.369154265773295
1776228790523644400,8.76764453125,1.2600327948093413,3.9006142308607696,14.874740030264853
1776228790543495400,8.787495361328125,-2.1538632102519273,0.9648296590343117,11.393505349946022
1776228790563346700,8.8073466796875,-3.8410324533402918,-1.3215090077742933,6.978736020305752
1776228790583196700,8.82719677734375,-2.8015993887424466,-2.0420149466603994,5.372658668017387
1776228790603047700,8.847047607421874,-3.260501679116487,-3.8976244013950225,4.326577835968137
1776228790622898700,8.866898681640626,-4.5956759318888185,-7.31761083228588,6.443697415712475
1776228790642749400,8.88674951171875,-4.711517649030685,-12.046028178191184,10.697400569605827
1776228790662600400,8.906600341796874,-4.091396038174629,-15.520975741064548,14.268221412825584
1776228790682451500,8.926451416015626,-4.549121101462841,-14.36311971065998,17.158773342740535
1776228790702302500,8.946302490234375,-6.239985107415914,-11.876480589824915,14.871716883051395
1776228790722152400,8.96615234375,-7.073472405576705,-8.477483463209866,10.071059645843505
1776228790742003500,8.98600341796875,-6.4029463031291955,-5.52192743846476,6.7251599031656975
1776228790761854700,9.005854736328125,-3.2350942661374806,-2.3400445380330086,5.160940163397789
1776228790781705700,9.025705810546874,0.6445277378380299,0.9484989942193031,3.468148404252529
1776228790801556500,9.045556396484375,3.9077287390410897,4.160874063548445,1.5428525420904158
1776228790821407500,9.065407470703125,5.3079368972599505,7.417955705088376,1.7551526459902524
1776228790841257200,9.08525732421875,4.697635838672518,10.460283419835568,1.537005569627881
1776228790861108000,9.10510791015625,3.472469774582982,12.982186746275424,1.879062518775463
1776228790880959000,9.124958984375,2.199666345527768,15.762696585237979,2.6910347352206707
1776228790900810000,9.14481005859375,1.58795951179564,17.16395220668316,1.4407915130198001
1776228790920661000,9.164660888671875,2.10467744680047,16.54160006029606,-3.068313512136042
1776228790940512300,9.18451220703125,3.8514135621011256,14.302946689248085,-8.606414379027486
1776228790960363300,9.20436328125,6.640939066690206,12.069751583606005,-10.68616488984227
1776228790980213200,9.224213134765625,6.752675686600804,11.340922929793596,-8.190387353783846
1776228791000064300,9.244064208984375,5.815187915739417,12.384825248759984,-4.466375013715028
1776228791019915000,9.2639150390625,4.768569323551654,13.933659787869452,-1.4708186947539448
1776228791039766000,9.28376611328125,3.433132620450854,15.191880564820766,1.116931607080996
1776228791059617000,9.303616943359375,2.0682085415810345,15.64702437944412,4.5350253560930485
1776228791079468000,9.323468017578126,-0.2633971808653325,14.226189612782001,9.510662143588066
1776228791099319000,9.343319091796875,-0.4142372192174196,12.054997082066535,12.819778508269787
1776228791119169000,9.3631689453125,0.06459434498548507,9.58857365078628,11.616771669018268
1776228791139020000,9.38302001953125,-2.7099586313992736,7.081656881076097,10.992654266524314
1776228791158871300,9.402871337890625,-6.055678925856948,4.018244584985077,13.29314771541357
1776228791178722000,9.42272216796875,-8.063806215962767,1.29989075794518,14.42636030294895
1776228791198573000,9.442572998046876,-8.469825057411194,-1.3635656499981879,11.274564497745036
1776228791218424000,9.462424072265625,-8.222049150982498,-2.9733365961074827,7.189310031065345
1776228791238274000,9.482274169921874,-8.638141642677784,-5.592289260935783,6.857171833863854
1776228791258125000,9.502125,-7.005096203964948,-8.268646651506424,11.39915884566307
1776228791277976000,9.52197607421875,-4.059491664391756,-11.396520313853024,15.171777687990664
1776228791297827000,9.5418271484375,-0.1486404094159603,-14.027653245818614,14.259391625159978
1776228791317678000,9.561677978515625,2.2299369806289673,-14.881202504277228,9.727283033296466
1776228791337529000,9.581529052734375,-0.1725602141857147,-13.605428534978627,7.113854684847593
1776228791357380000,9.601380126953124,-4.154553628355265,-11.53414833086729,6.23784867990911
1776228791377230000,9.62122998046875,-8.307219251006842,-10.228241089111567,3.5421021137356754
1776228791397081000,9.6410810546875,-9.23381328741014,-9.02414703914523,-0.9186480458348989
1776228791416932000,9.66093212890625,-7.455728094121813,-7.1916790982842445,-3.3190421308904883
1776228791436783000,9.680783203125,-3.4646263676062223,-4.456128344988823,-1.9641794273078441
1776228791456634000,9.700634033203125,0.01190612637102604,-0.12225772166401147,1.2963672599941491
1776228791476485000,9.720485107421876,2.3251884758152066,4.232795974943041,3.0915491340339183
1776228791496336000,9.7403359375,3.61781348054111,7.306006903731823,2.741435719680786
1776228791516186000,9.76018603515625,3.58000952732563,8.424428164848685,2.0834552105516195
1776228791536036900,9.780036865234376,2.4886849474489687,8.98695917200148,1.2554273468405008
1776228791555888000,9.79988818359375,0.9590801555968821,9.24375308214426,0.11773264545500278
1776228791575739100,9.8197392578125,-0.7442834125757217,9.51388110563457,-1.015575803670287
1776228791595590100,9.839590087890626,-0.558918077352643,9.512750055778026,-2.2787284840658306
1776228791615441200,9.859441162109375,2.0891770953297613,9.069304862254857,-4.639893259277939
1776228791635292200,9.879292236328125,5.698329715031385,9.080674982053042,-6.589604016250371
1776228791655142100,9.89914208984375,6.239921979051828,9.34239115102887,-7.790700637966394
1776228791674993200,9.9189931640625,3.4401696794807908,10.066496867972612,-7.38236533626914
1776228791694844000,9.938843994140624,1.8150199624538421,11.500744073915481,-4.837450552076101
1776228791714695000,9.95869482421875,1.6635779396206138,12.547124765694141,-0.26842764931321145
1776228791734546200,9.978546142578125,1.3656944787204264,11.561586957412958,3.847365748015046
1776228791754397200,9.998397216796874,-1.7397475715875625,7.891150140187144,7.031604271662235
1776228791774248200,10.018248291015626,-4.332985949444771,4.778979073885083,11.374211451411247
1776228791794098200,10.03809814453125,-1.5215058026790618,3.262845027372241,13.183991759645938
1776228791813949200,10.05794921875,2.492611765503883,2.357872455668449,9.049228873431682
1776228791833800200,10.07780029296875,3.7684044395029543,1.815356062540412,1.7273258969098328
1776228791853651000,10.09765087890625,3.8244332007169723,1.6863415600925682,-2.8896108496725557
1776228791873502000,10.117501953125,1.9279964994229375,0.6847171248853207,-2.5985171950429677
1776228791893353000,10.13735302734375,-0.4415687321268022,-2.064518747152388,0.5504787503093481
1776228791913204000,10.157203857421875,-3.7094179975271224,-6.821233674520253,5.576267515939474
1776228791933054000,10.177053955078126,-5.218488681524992,-10.661357780843973,10.875001700568198
1776228791952905000,10.196905029296875,-4.977941557306051,-13.601010718536376,10.982150408166646
1776228791972756000,10.216755859375,-2.631110720133781,-15.370142205518484,7.170339373135566
1776228791992607000,10.23660693359375,-1.476490749040991,-16.68900128330588,2.833739909368753
1776228792012457700,10.256457763671875,-1.243564621219784,-16.152608926016093,0.909776172593236
1776228792032309000,10.27630908203125,-4.248230275440216,-13.92773273590803,1.4317542200833557
1776228792052160000,10.296159912109376,-6.729157448369264,-10.96737135670781,2.3442454968541857
1776228792072010000,10.316010009765625,-7.08952220762372,-7.358129889678954,0.08897066135108471
1776228792091861000,10.335861083984375,-5.234425086325407,-3.236988117060065,-3.060299424767494
1776228792111712000,10.3557119140625,-3.698196346288919,-0.18513737168610095,-3.901318871998787
1776228792131563000,10.37556298828125,-1.709004058277607,1.8361796548604965,-0.6002542963474988
1776228792151414000,10.3954140625,0.5077648132205009,4.485668912249803,3.732852064606547
1776228792171264800,10.4152646484375,1.8660639209926126,6.646280427718162,4.330093150612711
1776228792191115800,10.43511572265625,0.45561501233167945,5.888356612324714,2.4712135881662367
1776228792210965800,10.4549658203125,-1.5142834502100944,4.765866494333744,3.023002836552262
1776228792230816800,10.474816650390625,-0.2993815905034542,6.314845410349965,3.8994931178763506
1776228792250668000,10.49466796875,-0.08707286490574478,5.085025382974743,0.3422039564028382
1776228792270519000,10.51451904296875,1.9566133759677409,7.27119102641642,-0.7086708319246768
1776228792290370000,10.5343701171875,3.5471582280814644,7.389070386865734,-4.527319311760365
1776228792310221000,10.554220947265625,3.084734777843952,9.255070594972372,-5.240467289099097
1776228792330071800,10.57407177734375,1.0828757543526588,10.873680681097508,-4.158253359656036
1776228792349922800,10.5939228515625,0.5796456619523466,11.935607317054272,-3.3444495438694952
1776228792369772800,10.613772705078125,2.625501648080349,12.597082682561874,-1.6442372793346642
1776228792389623800,10.633623779296874,3.1334441559553143,12.595428485614061,1.1017898597896099
1776228792409474800,10.653474853515625,2.5585259609162807,11.57273495889306,2.3848610003590585
1776228792429326000,10.673326171875,1.5750053376764057,9.61421604156494,2.1233903305768966
1776228792449177000,10.693177001953124,0.36306583490669725,7.5253966736316675,2.1632173140525817
1776228792469028000,10.713028076171875,0.6293658245414495,5.022189864355325,3.831788824176788
1776228792488878800,10.73287890625,1.2098282097041606,2.0756535968899725,6.154802732431889
1776228792508729000,10.75272900390625,0.34241643010973927,-1.77936471170485,6.190908649557828
1776228792528579800,10.772579833984375,-1.9669652586340902,-5.750269161105155,8.656459974178672
1776228792548430800,10.792430908203125,-2.626567816007137,-9.504887651839852,11.34520513715744
1776228792568281900,10.81228173828125,-2.9856255843162534,-12.78661273624897,9.177235660141706
1776228792588132900,10.8321328125,-5.748195277440548,-15.905233417081831,7.437168355080485
1776228792607983900,10.85198388671875,-8.106213863581418,-16.995550281220673,7.467026317727566
1776228792627835100,10.871835205078124,-9.625692544347046,-17.7583267973423,5.433736529314517
1776228792647685000,10.89168505859375,-10.805351241236924,-16.469114669799804,4.604323348724842
1776228792667536100,10.9115361328125,-9.67315455274582,-13.228566229909658,5.677238996207714
1776228792687387000,10.931386962890626,-5.69936431877613,-8.686864464792608,4.614188909178972
1776228792707238000,10.95123779296875,-2.119386940154433,-3.545920795240998,1.813777853438258
1776228792727089000,10.9710888671875,-1.0094435845255851,1.2463801170319317,0.7411848620384931
1776228792746940000,10.99093994140625,-1.3270587508559226,5.342615996453166,2.3721377123862504
1776228792766791000,11.010791015625,-1.1478788262695074,8.760289766487478,3.3963989268153902
1776228792786641000,11.030640869140624,-0.40255722975246605,11.336463027775286,4.129824845290184
1776228792806492000,11.050491943359376,-0.27847324250936506,13.23328098347187,3.9798827056258914
1776228792826343200,11.07034326171875,-1.6788813072144984,14.706888724422454,2.8547935110524296
1776228792846194400,11.0901943359375,-1.312358025330305,14.450891517615318,0.017056641001999377
1776228792866045400,11.11004541015625,3.493628590206802,12.26040275027752,-4.1500013718783855
1776228792885896400,11.129896484375,7.524362069886922,8.938747806540132,-6.735616999772191
1776228792905747500,11.14974755859375,9.05853796904683,6.759003136056661,-7.202718963214755
1776228792925597400,11.169597412109376,7.023084280598163,8.439203124654293,-4.767660684274137
1776228792945448700,11.18944873046875,3.157526457810402,10.456073693186044,-3.902832783693075
1776228792965299700,11.2092998046875,0.674982424269244,12.33917525821924,-3.280034062582254
1776228792985150500,11.229150390625,1.2009610126376151,13.072097903347014,-1.8712942228615284
1776228793005001500,11.24900146484375,0.3722445821404457,12.838919262069464,0.03991407723724842
1776228793024852500,11.2688525390625,-2.0915841564714905,10.613550904530285,3.7988708894371985
1776228793044703500,11.288703369140626,-3.043327247178554,7.254986326068639,8.484159287711977
1776228793064554500,11.308554443359375,-1.3294120359838009,3.3314316568642854,8.259920908737183
1776228793084404500,11.328404541015624,-1.1173165878105908,-0.005957739360630512,6.747526633274555
1776228793104255500,11.34825537109375,-2.1671049691408872,-2.6985198302790523,6.647044982349872
1776228793124106800,11.368106689453125,-1.9051859710693357,-5.450781187617778,6.5681935639530415
1776228793143957500,11.38795751953125,-4.0858512635290625,-9.759211372476816,7.873031130650639
1776228793163808500,11.40780859375,-7.868113547992706,-15.561666647893189,11.781908455204963
1776228793183659500,11.427659423828125,-7.787179478102922,-20.10955440816879,12.805389917433262
1776228793203510500,11.447510498046874,-5.49046671679616,-19.55229111228585,12.377664855611323
1776228793223360500,11.467360595703125,-5.587452926820516,-15.343137294214962,9.763681211367249
1776228793243211500,11.48721142578125,-7.164514612504839,-11.03309499798417,5.804436220100522
1776228793263062500,11.5070625,-8.819667253607511,-7.5740785792142145,3.6531899143487214
1776228793282913500,11.52691357421875,-8.923397092673182,-4.464799727222323,4.033676255133748
1776228793302764300,11.546764404296875,-6.44613194938302,-0.32890111497640606,5.554740159264207
1776228793322615600,11.566615478515626,-2.1944721378855405,3.8198821132838723,4.336331168219447
1776228793342466600,11.586466552734375,0.6212168587468564,7.193901450508832,3.245536165174842
1776228793362316500,11.606316650390625,2.4338053562700748,10.359074623680113,3.481080366539955
1776228793382167600,11.62616748046875,2.7197984728902576,12.970769864726066,3.5610622502714393
1776228793402018600,11.6460185546875,1.987995771703124,15.624625500631332,3.947214946255088
1776228793421869600,11.66586962890625,0.4387450530081987,17.213928828251362,2.940083438064158
1776228793441720600,11.685720458984376,0.023398411244153976,16.320174985176322,-0.09173691119402647
1776228793461571300,11.7055712890625,1.5960861196279525,13.863788379263877,-5.279101847919821
1776228793481422300,11.72542236328125,6.1447466178417205,9.11202756717205,-12.715399265384674
1776228793501272300,11.745272216796875,9.637610945677757,7.0482111230701205,-13.7905618150115
1776228793521123600,11.76512353515625,9.596821839171648,7.076409043550491,-7.83975722208023
1776228793540974600,11.784974609375,5.740646761757135,9.48331119532585,-1.5745228148564696
1776228793560825600,11.80482568359375,3.7694144933283327,11.769724680936335,1.171143674261868
1776228793580676600,11.824676513671875,3.9398189907848833,13.720631954216957,0.5545172120451927
1776228793600527600,11.844527587890624,1.6310254771925508,14.438085812056064,2.01851424408555
1776228793620378400,11.86437841796875,-0.9493044653832912,13.183431787675618,7.444334008926153
1776228793640229400,11.8842294921875,-1.3019652261316776,10.116720157778262,12.553437602102756
1776228793660079400,11.904079345703124,-0.35674828579034656,5.509031716534495,10.77089484488368
1776228793679930400,11.923930419921875,-1.86092129740715,2.3262059822946783,7.941327252763509
1776228793699781400,11.943781494140625,-3.566290798574686,0.1575657664105296,7.409425192630291
1776228793719632600,11.963632568359374,-2.7930893345505,-1.3032330541104078,7.306431266623735
1776228793739483600,11.983483642578125,-2.514429045036435,-3.309605609503388,4.299605073368549
1776228793759334700,12.003334716796875,-4.756862519145011,-5.969027647364139,3.1018904953062534
1776228793779185400,12.023185302734374,-8.413429216450453,-8.907076656991244,6.445152290695905
1776228793799035600,12.04303564453125,-9.170479756140708,-11.602319949817657,9.889341142690181
1776228793818886400,12.062886474609375,-7.501186946004629,-13.70270116072893,9.311658743634819
1776228793838737400,12.0827373046875,-7.214579496878385,-14.18946760958433,8.162820132422446
1776228793858588000,12.102587890625,-8.592582837551832,-13.446222307884693,7.187059621790051
1776228793878439000,12.12243896484375,-10.195879619210958,-12.012657823508977,8.870146564000844
1776228793898290000,12.1422900390625,-9.341445394611359,-9.29267171909213,9.631204001244901
1776228793918141000,12.162140869140625,-6.5660962994128464,-5.656503666692972,6.682211572799086
1776228793937991000,12.181990966796874,-3.990786376956105,-1.7696657399892806,3.6247207757115363
1776228793957842000,12.201842041015626,-2.4389035561919212,1.664135573503375,2.157660848969221
1776228793977693000,12.22169287109375,-1.48342595513165,5.015714530861377,3.241699948012829
1776228793997544000,12.2415439453125,0.5508535019058733,8.90383606763482,5.268560580161213
1776228794017395000,12.26139501953125,2.1247925985902545,11.823346381008625,3.6796775237798687
1776228794037246000,12.281245849609375,2.0675994697719813,13.817094432628155,2.1604759063899515
1776228794057097000,12.301096923828124,1.4946750788986682,15.71648077750802,0.9898562560021876
1776228794076948000,12.320947998046876,2.7352783660948274,15.927687240952253,-1.0452210003495215
1776228794096798000,12.3407978515625,5.621018511813879,13.50842478929758,-4.815068332137167
1776228794116649000,12.36064892578125,8.835512472993136,10.861969200515746,-7.777566431105137
1776228794136500000,12.3805,9.137481157380343,10.043400070023536,-6.087921737813949
1776228794156351000,12.40035107421875,6.32186727181077,10.454269858634472,-4.009276265631616
1776228794176201700,12.42020166015625,3.5877018353939056,11.260690286171435,-2.8893747028291226
1776228794196052700,12.440052734375,1.2400520830541848,11.483273883676528,-1.8245400704711674
1776228794215904000,12.459904052734375,0.6456932744860648,11.69905130829811,2.2968711667388675
1776228794235755000,12.479755126953124,1.5310405237436293,10.66315343208909,5.962412028616667
1776228794255605000,12.49960498046875,3.933025092861056,9.563069791695476,6.624380146077275
1776228794275456000,12.5194560546875,3.978111019778251,8.014916805109381,4.9661675328820944
1776228794295307000,12.53930712890625,1.2498749734103678,7.356481537950039,4.371418848213553
1776228794315158000,12.559157958984375,-1.6804238604813813,6.454828466057777,7.533460737621784
1776228794335008800,12.5790087890625,-3.0654759506225586,4.758215687319636,8.860057716184855
1776228794354859800,12.59885986328125,-2.7955776442348954,3.2934842035248875,5.494124070259929
1776228794374710800,12.618710693359375,-4.207610680282116,1.884933456635475,3.9765643748581407
1776228794394560800,12.638560791015625,-7.012187623530626,-0.723075789374113,7.206803017657995
1776228794414412000,12.658412109375,-6.777030960178375,-4.031946070340275,13.705727815073727
1776228794434263000,12.678262939453125,-3.090323976153135,-8.253549620139598,19.345560917472838
1776228794454114000,12.698114013671875,-1.0036379669867455,-10.053462029832602,21.165998228800294
1776228794473965000,12.717965087890626,-3.9228877297282216,-9.713450322777032,14.897417141497135
1776228794493815800,12.73781591796875,-7.391542329937219,-9.360249463802576,7.059780564832687
1776228794513666800,12.757666748046875,-9.623361471050977,-9.067559479892253,3.2803613948404786
1776228794533517800,12.777517822265626,-9.42486192896664,-9.046879095435141,1.2150737091422081
1776228794553367800,12.797367919921875,-5.929229305461049,-8.027814280605316,0.05278524924814701
1776228794573218800,12.81721875,-1.7665432240545749,-5.932542960053682,-0.49699324383735655
1776228794593069800,12.83706982421875,0.0922043095100671,-2.8422902955710887,0.8554127142429351
1776228794612921000,12.856921142578125,0.8738152168959379,0.9768447987377643,3.2521009305179116
1776228794632772000,12.876772216796875,1.724078877812624,4.920355045256018,4.349992613825202
1776228794652622800,12.896622802734376,1.8976748647868633,8.876285212886334,4.1111832731843
1776228794672473900,12.916473876953125,1.1479378629803656,12.838801188647746,4.175005464753508
1776228794692323800,12.93632373046875,0.9848352129697799,14.741480729854105,0.9052245006382464
1776228794712174800,12.9561748046875,1.2612930240035056,14.144003497004508,-3.5262981031432745
1776228794732025900,12.97602587890625,1.7657061887085437,12.892593569111824,-6.172277598845958
1776228794751876900,12.995876953125,3.789665838718414,10.817360827982425,-8.158720295888186
1776228794771728000,13.015727783203126,4.961218386042118,10.844297934746741,-7.7894146898090835
1776228794791579100,13.0355791015625,4.3915152953028675,11.632773540270328,-8.224401851588487
1776228794811430000,13.055429931640624,2.0869383764922618,12.490047372210025,-5.567724143999815
1776228794831281000,13.075281005859376,0.2870259667992592,13.480421514606475,0.4436170429587364
1776228794851131400,13.09513134765625,0.8310954345881938,13.57054777573347,5.793556514167785
1776228794870982400,13.114982421875,2.7203695507764816,12.42974107980728,7.297884972074628
1776228794890833400,13.13483349609375,2.390575870874524,10.399112035036087,5.9439797153472895
1776228794910684400,13.154684326171875,0.6286620601862669,9.238262668034434,7.562050872290134
1776228794930535400,13.174535400390624,-0.5123912674447522,7.885881844395398,9.983390714740752
1776228794950386200,13.19438623046875,0.20219434148166326,5.894464866071939,9.409057626113295
1776228794970237200,13.2142373046875,0.6100836164444685,4.368974085409939,5.548585728287697
1776228794990088200,13.234088134765624,-0.5994353811800479,3.7185201723933217,5.632073574313521
1776228795009938200,13.253938232421875,-1.5687468618035316,2.151432183712721,6.009654256784915
1776228795029789200,13.2737890625,-3.7274393919080495,-0.7989765412718057,6.884692293474078
1776228795049640400,13.293640380859374,-7.22618985517323,-4.858302493707836,9.637732526230812
1776228795069491500,13.313491455078125,-9.18592165542245,-8.870152409219742,13.823837477147578
1776228795089342500,13.333342529296875,-8.076084098255635,-11.003954243695736,15.803755740857124
1776228795109193200,13.353193115234374,-6.499262651067972,-12.632656684768198,11.33647705630064
1776228795129044200,13.373044189453125,-9.584666706475614,-12.928306687527893,6.136975983840227
1776228795148894200,13.392894287109375,-12.3532388548851,-12.386170818150044,3.641129474198818
1776228795168745200,13.4127451171875,-10.572778164637088,-10.948250476652383,2.3510949243575334
1776228795188596200,13.43259619140625,-6.0827843749254935,-8.322725447696447,0.9398527464270591
1776228795208447200,13.452447265625,-1.3953268159180878,-5.101155264520645,0.0604103372991085
1776228795228298500,13.472298583984376,1.3811878159284592,-1.5586276188492774,0.9233604613095522
1776228795248149500,13.4921494140625,0.8489549164056778,1.9881267046064137,0.7821598465055227
1776228795268000300,13.512000244140625,-0.48345630139410495,5.140712783405184,0.8105752091288566
1776228795287851300,13.531851318359376,-0.1462478151910007,7.942135646536946,0.6001186872690916
1776228795307701200,13.551701171875,1.1856273229707033,9.600824060550332,-0.7069131746023893
1776228795327552300,13.57155224609375,1.5473136131525038,10.612044007098675,-2.141687034767866
1776228795347403300,13.5914033203125,1.7529513365536926,10.902156249475478,-4.664221060326695
1776228795367254300,13.611254150390625,2.6501614575624464,10.092309354621172,-7.198009470349549
1776228795387105300,13.631105224609374,4.975635033929348,9.42566389299929,-7.996180540457368
1776228795406956500,13.65095654296875,5.8258495950073,9.571385200098156,-5.449463090756535
1776228795426807300,13.670807373046875,5.064705648523569,10.461337897324562,-3.9688492704361673
1776228795446658300,13.690658203125,3.4816613812983035,11.158080975568295,-4.06254169961214
1776228795466508300,13.71050830078125,2.289438386389613,11.413715778803825,-3.8395536129593846
1776228795486359300,13.730359375,1.458755624255538,10.65710830670595,-2.660419816726446
1776228795506210300,13.750210205078124,-0.1379301417659968,8.753532693442702,1.2065940500885248
1776228795526061300,13.770061279296876,-1.056264299346134,6.532696718636155,8.284768934267758
1776228795545912300,13.789912353515625,0.7472036108713597,4.062696305651962,12.551904985707997
1776228795565763300,13.809763427734374,1.7321575548499821,1.6160124708473682,8.791981374302505
1776228795585614000,13.829614013671875,1.024533601629734,0.7761027384236454,4.615191948741674
1776228795605464300,13.84946435546875,0.12089901879774406,0.33246874433010815,2.809942854195833
1776228795625315300,13.8693154296875,-1.2212731483042238,-0.5121481428712606,2.336078557011485
1776228795645166300,13.889166259765625,-2.410132219737768,-3.1435189752459523,3.1784745532929897
1776228795665017300,13.909017333984375,-3.4766894381046294,-6.1720654174000025,8.705462782278657
1776228795684868400,13.928868408203124,-3.9452737490594383,-9.45996246844232,14.125001859414576
1776228795704719400,13.94871923828125,-2.8262603672683237,-11.313707590609788,15.150910256528853
1776228795724570400,13.9685703125,-3.329207551074028,-12.780961578619479,8.078927797248959
1776228795744421000,13.988421142578124,-5.91218055550456,-13.483773163121938,2.113389161044359
1776228795764271400,14.008271240234375,-9.858836114311218,-13.74227796883583,0.9756494514733552
1776228795784122000,14.0281220703125,-11.595704331070184,-13.44769997922182,1.4112509457588196
1776228795803973400,14.047973388671876,-10.835876143360137,-11.94284486709237,2.1277204687356948
1776228795823824400,14.067824462890625,-7.8529510501742354,-9.383289563128352,0.9234884716033935
1776228795843675400,14.08767529296875,-4.487514247855544,-5.8817462542742485,0.11707622737288474
1776228795863526400,14.1075263671875,-1.686321686348319,-2.2169410131946203,0.8695493761450052
1776228795883377700,14.127377685546875,-0.19733398716999218,1.031346788775921,2.012979406312108
1776228795903228400,14.147228515625,0.4707622760483995,3.9121395412206645,3.1992771028250453
1776228795923078700,14.16707861328125,-0.2673264100730419,5.193942269289494,3.3127976835429664
1776228795942929400,14.186929443359375,-0.35353345192968844,6.509574786245823,3.624786826685071
1776228795962780400,14.206780517578125,-0.5911427691310643,8.944805791404843,1.375637780585885
1776228795982631400,14.22663134765625,0.12563363697105087,9.806699099838733,-2.7336656702011823
1776228796002482400,14.246482421875,3.4955250714778896,10.190234306800365,-5.225712787559628
1776228796022333400,14.26633349609375,5.896633442282677,10.665262387067079,-4.478244315207005
1776228796042184400,14.286184326171876,5.521399615198374,12.363949633991718,-0.9865835179418325
1776228796062035500,14.306035400390625,4.783665185874701,13.76432145833969,-1.5412883615136146
1776228796081885400,14.325885498046874,4.64410590853691,13.867980570256709,-4.30529130231142
1776228796101736400,14.345736328125,4.334738930591941,13.877363315629959,-3.8964106416910886
1776228796121587500,14.36558740234375,3.649839434877038,13.28744044368267,0.18299626800417898
1776228796141438500,14.3854384765625,2.417478490847349,11.646622032880783,3.383762148082256
1776228796161289500,14.40528955078125,2.037763718956709,9.217238000184297,5.245376103928685
1776228796181140500,14.425140380859375,2.054253665986657,6.269071501168608,4.527829891631007
1776228796200991500,14.444991455078124,0.7650063210003077,3.7111990357249973,4.676193237671256
1776228796220842200,14.46484228515625,-1.1614783125549555,1.0178297200769186,6.416390891113877
1776228796240692500,14.4846923828125,-2.490224578106403,-2.9385572514101863,5.773745313760638
1776228796260543200,14.504543212890624,-3.388075919628143,-7.10462800681889,6.2785810877919195
1776228796280394500,14.52439453125,-5.1105280730217695,-11.318602376914024,10.493781200289726
1776228796300245500,14.54424560546875,-6.323514454495906,-15.38417189991474,15.225764129722117
1776228796320096500,14.564096435546874,-8.193226376602054,-17.363514994084834,15.170786338865756
1776228796339947500,14.583947509765625,-10.232757105231284,-17.429834847688674,9.231795517846942
1776228796359798500,14.603798583984375,-11.326191809129714,-15.852387962079048,4.432589063969254
1776228796379649300,14.623649169921874,-11.710497415941953,-13.422306010246276,2.974654108446836
1776228796399499500,14.64349951171875,-10.149786561077832,-10.131162524628639,2.494736502572894
1776228796419350300,14.663350341796875,-6.800462104648351,-5.897605502185225,1.8498551289916036
1776228796439201300,14.683201171875,-3.8431758951097725,-1.4810317534714936,0.6978343806117773
1776228796459052500,14.703052490234375,-2.1420248884201047,2.5709151946291326,0.7622218048483133
1776228796478903600,14.722903564453125,-1.2094066232912242,6.057167703109979,2.4935382326990365
1776228796498754600,14.742754638671874,-0.2524408294998109,9.018560763445496,3.655152154332399
1776228796518605600,14.76260546875,0.5478600922435521,11.212491780191659,4.208568711659312
1776228796538455600,14.78245556640625,1.4266706332087515,13.432888194537162,4.075715653961897
1776228796558306600,14.802306640625,2.7240081995397802,14.36332546236515,0.15981471438109873
1776228796578157300,14.8221572265625,3.113211515265703,13.422268600845337,-5.114510420656204
1776228796598008300,14.84200830078125,2.450539048928022,11.411755292385816,-9.304941418078542
1776228796617859300,14.861859375,3.7651030598700044,10.616804353368282,-9.478306518906354
1776228796637710300,14.88171044921875,4.560755425155163,12.369420758879183,-5.076742123275995
1776228796657561600,14.9015615234375,4.902326636612415,13.47067870374918,-1.394675658532977
1776228796677412600,14.92141259765625,5.163181220322847,14.03748841113448,-0.24617607001662253
1776228796697263400,14.941263427734375,5.085380187761784,13.617040646839142,-0.05398410364389419
1776228796717113600,14.961113525390624,2.688113294816017,12.42424189786911,1.37486387360394
1776228796736964400,14.98096435546875,0.3088268797188997,10.21140919677615,6.059010116106271
1776228796756815400,15.0008154296875,-0.9109557377666234,6.701607178142666,11.391590456235408
1776228796776666400,15.020666259765624,-0.6156722302317619,3.1814535691037773,10.542810896396636
1776228796796517400,15.040517333984376,-1.7121505396097898,0.8784025446861982,5.782575685948133
1776228796816368400,15.060368408203125,-2.799836470723152,-1.165766949659586,3.196831463238597
1776228796836219600,15.0802197265625,-2.8057226061522957,-3.493924358282983,4.012299705106019
1776228796856070400,15.1000703125,-3.903441855502128,-7.468218157860636,4.98743536183834
1776228796875920600,15.119920654296875,-3.570580020201206,-12.12706863106489,6.423281235149503
1776228796895771400,15.139771484375,-2.9370120677947997,-15.802903507941961,10.793690029537677
1776228796915622400,15.159622314453125,-4.080612778353691,-18.43439416730404,17.127925784534217
1776228796935473400,15.179473388671875,-7.9541025631845,-18.627916505497694,16.51373707085848
1776228796955324400,15.199324462890624,-10.483801073545218,-16.293036802881954,11.514687259072065
1776228796975175700,15.21917578125,-10.480725319361687,-12.553630494326352,9.108680594831705
1776228796995026700,15.239026611328125,-7.45196786480546,-7.765308422556519,6.678130440965295
1776228797014876700,15.258876708984374,-4.015840738713741,-3.048596127492189,3.2571319104224443
1776228797034727700,15.278727783203125,-2.3692314695507286,1.420714939674735,1.8516537028461693
1776228797054578400,15.298578369140625,-1.915355482906103,5.239096585267782,1.269244859790802
1776228797074429400,15.318429443359374,-1.1019745687067508,8.40414700884223,1.5840414615690708
1776228797094280400,15.338280517578125,-0.23790157814621923,11.32405479710102,2.7913872068077326
1776228797114131500,15.35813134765625,-0.16434074043817817,14.057889394128322,4.727158870276808
1776228797133982500,15.377982421875,0.2399590221326798,16.845771223163602,2.7354835332781073
1776228797153833700,15.397833740234375,1.8725977066755293,16.173585078549383,-4.270456135773658
1776228797173684500,15.4176845703125,3.005235124671459,13.001625606238841,-10.412568897980451
1776228797193534700,15.43753466796875,3.725428052085638,10.812606326931714,-11.040676246893405
1776228797213385500,15.457385498046875,4.152692510658502,11.142203022956847,-6.1680783935904495
1776228797233236500,15.477236572265625,3.790207105988264,12.777522251820564,-1.6025170294582842
1776228797253087500,15.49708740234375,3.4055800121366975,13.017618125140666,-1.1719535293400287
1776228797272938500,15.5169384765625,3.6024832249402996,13.666077357208728,-0.4861620532214641
1776228797292789500,15.53678955078125,3.9057565621852874,13.504904798477888,0.8232558270037174
1776228797312640500,15.556640625,3.4611505081892013,12.30587153903246,2.690394099229574
1776228797332491500,15.576491455078125,0.648494303381443,9.349598890450597,5.578682760387658
1776228797352341500,15.596341552734375,-1.0739888296723366,6.122258307179808,8.555368082401156
1776228797372192500,15.616192626953126,-1.0997755973577499,3.5240751663967966,7.541792512637376
1776228797392043500,15.63604345703125,-1.4128677333056925,1.4039388691797852,5.551763773801922
1776228797411894500,15.65589453125,-2.157505366146564,-0.8683817936703562,4.915830845829844
1776228797431745500,15.67574560546875,-3.9675264973998066,-3.849159937955439,6.347182330331206
1776228797451596500,15.695596435546875,-5.877160680049657,-7.68574622554183,9.96064229183793
1776228797471447600,15.715447509765625,-6.129227561670541,-11.154219623965025,13.410406313616036
1776228797491298600,15.735298583984376,-3.581652910618484,-14.540307000124454,12.971346203309297
1776228797511148500,15.7551484375,-3.216616944682598,-16.595871748709676,11.551314569723605
1776228797530999300,15.774999267578124,-5.134457814663648,-16.377317845112085,10.428020149612426
1776228797550850600,15.7948505859375,-7.738691049265861,-15.004415042448043,9.123089059412479
1776228797570701600,15.81470166015625,-9.156289902746677,-12.818031956863402,5.302791935586929
1776228797590552600,15.834552490234374,-8.206970239794254,-9.408318205922841,1.347343998515606
1776228797610403600,15.854403564453126,-6.6677697904706,-5.1669548936426635,-1.0784241817712783
1776228797630254600,15.874254638671875,-4.751466213059425,-0.8296914130091667,-1.5398784947156905
1776228797650105600,15.894105712890624,-2.662803496992588,3.2064567851960657,-0.36829496773183346
1776228797669955600,15.91395556640625,-1.1730291226822882,6.128528473490476,1.299441260612011
1776228797689806300,15.933806396484375,-0.7694517561018467,8.042636586683988,2.8788796122997997
1776228797709657300,15.9536572265625,-1.217718013105914,8.960855008929967,5.325927896502614
1776228797729508600,15.973508544921875,-1.6522878993213175,9.336308616244793,6.4339733095556495
1776228797749359600,15.993359619140625,-0.07416179927587509,10.217129327988625,4.293265348953009
1776228797769210600,16.013210693359376,1.6344460992909966,8.58581816572249,0.40598143204748627
1776228797789061600,16.0330615234375,2.454989598596096,8.346618948981165,-0.8523831372886895
1776228797808912600,16.05291259765625,3.7824306267678733,8.16422941469848,-1.4955664747804402
1776228797828762600,16.0727626953125,3.537649225980043,10.333018975925444,0.04471767812669277
1776228797848613000,16.092613037109373,3.048786681628227,11.667972279423475,-0.7374941908270121
1776228797868463900,16.1124638671875,2.6882617633759973,12.545299888354538,-1.567850789746642
1776228797888315000,16.13231494140625,3.1897114021003246,12.856920198184252,-1.3691262067347765
1776228797908166000,16.152165771484373,4.113057250362634,12.564985416555404,0.03169920659959316
1776228797928017000,16.172016845703126,4.571267466819286,11.756748294985293,1.8569068010687826
1776228797947868000,16.191867919921876,4.546302536910772,10.48901734688878,1.9326526546657083
1776228797967719000,16.211718994140625,3.7380455415964122,9.438461415252089,2.0856483366817233
1776228797987569000,16.23156884765625,1.4291267941892147,8.261167109405994,2.4693828656077383
1776228798007420200,16.251420166015624,-0.7276140173256397,6.16024638479054,3.500200077551603
1776228798027271000,16.27127099609375,-2.0333985094845293,3.0987922370299694,4.486994607895612
1776228798047122000,16.291121826171874,-4.573960943686962,-1.4186013085216282,7.835470923063158
1776228798066973000,16.310972900390624,-5.311489621305466,-6.216963128268718,12.651727295941114
1776228798086824000,16.330823974609373,-4.467936856204271,-10.628868885171412,13.56900229985714
1776228798106675000,16.350675048828126,-7.336278123354911,-13.565707934486865,12.935015829777717
1776228798126526000,16.37052587890625,-10.700060144203901,-16.7833372710824,10.425219120717047
1776228798146376000,16.3903759765625,-13.216260875087976,-18.866805925637482,5.486452220457792
1776228798166227000,16.41022705078125,-16.989673498141766,-17.64826833977699,4.380028271126747
1776228798186078000,16.430077880859375,-16.19734004814625,-14.011979875868558,3.843532453462481
1776228798205929000,16.449928955078125,-11.673741510474681,-9.020553398567438,2.8812393271684646
1776228798225780000,16.469780029296874,-6.054725570654869,-3.050435910139978,1.3966273771226405
1776228798245631000,16.489630859375,-1.1790449489057064,1.9922195268779992,0.4402221398234367
1776228798265482000,16.50948193359375,1.9184779988408087,5.492977822834253,2.0542735397309064
1776228798285333000,16.5293330078125,3.5228140604197975,7.417422036603092,4.035328698515892
1776228798305183000,16.549182861328124,2.9707226142168044,8.232169562980532,6.930395475506782
1776228798325034000,16.569033935546877,2.879627215796709,8.617609142258763,7.8775617598176
1776228798344885000,16.588885009765626,3.3171097015231847,9.740969028821587,6.486670880520343
1776228798364735700,16.60873583984375,3.71660235607326,7.878334497755765,2.4259777313843367
1776228798384587000,16.6285869140625,5.495651425957679,5.526184511387348,1.117894022372365
1776228798404438000,16.64843798828125,7.003436161798239,3.901086816808581,3.418454983539879
1776228798424289000,16.6682890625,9.389448670279979,5.316391421872377,7.1449991801738735
1776228798444140000,16.68814013671875,9.391715446168183,5.833762852349877,5.317652235588431
1776228798463990000,16.707989990234374,8.52154939942956,6.63777972587645,2.1558885785996913
1776228798483841000,16.727841064453123,6.635248746094107,6.679734369030594,0.7631900653585791
1776228798503692000,16.747692138671876,5.133096463182568,6.222048468708992,1.9344363232120871
1776228798523542800,16.767542724609374,4.0629666470259425,5.7405754500865935,3.218510211083293
1776228798543393800,16.787393798828123,2.0042975026845933,6.101106798079609,4.697601936402917
1776228798563245000,16.8072451171875,1.132724511757493,6.205927354991435,5.295717467156052
1776228798583096000,16.827095947265626,-1.1164636973083018,4.7236283580631016,3.2093887469947338
1776228798602947000,16.846947021484375,-2.528241881811619,5.994626199001074,3.5683500691920518
1776228798622797000,16.866797119140625,-4.881083942097425,2.1115517164841293,1.8635367406025527
1776228798642648000,16.88664794921875,-4.548020446744561,1.6454805573940277,2.00277423864007
1776228798662499000,16.9064990234375,-5.377778495249152,2.5919620743110774,1.751258122769743
1776228798682349800,16.926349853515624,-4.854337389469147,3.8181419916182753,1.761826424665749
1776228798702200800,16.946200927734374,-2.018292125767469,1.443786895443499,0.4849671443484723
1776228798722051800,16.9660517578125,-3.5773008528888224,3.5521824859842654,1.6060370202779768
1776228798741902800,16.98590283203125,-2.125710297957063,5.087711261057853,-0.5204948231950401
1776228798761754000,17.005754150390626,-2.546822079119086,3.6825674000024793,-2.724259251691401
1776228798781604000,17.02560400390625,-3.4826918933898208,2.4915651790603994,-2.2469528512291608
1776228798801455000,17.045455078125,-2.4902163947999476,0.80973905056566,-1.3475126330807805
1776228798821306000,17.06530615234375,-1.8892863911479711,1.065548918107152,0.9698964409045875
1776228798841156900,17.085156982421875,-1.8548814327210186,1.376816468976438,1.6889703011609614
1776228798861008000,17.1050078125,-3.7850831871032713,-0.604256225465238,-1.6970096691012382
1776228798880859100,17.124859130859374,0.09140285693407058,0.20994506520628928,-0.9462027730409055
1776228798900710100,17.144710205078123,-0.04849310501217842,0.12599427784383296,0.30875162252560256
1776228798920561200,17.16456103515625,0.9651800799071788,-0.33670974290072914,-0.5041175427593291
1776228798940412200,17.184412109375,0.51772565074265,-0.6846539965212345,-0.8649643864423036
1776228798960262100,17.20426220703125,0.05907412025928497,-1.224320553176105,-0.5951308158539236
1776228798980113200,17.224113037109376,0.39915129376649855,-0.6834218243777751,0.6482344834014773
1776228798999964000,17.2439638671875,1.0387520965963601,-0.014664485168457031,0.9180798905581236
1776228799019815000,17.26381494140625,0.7683429180771112,0.6100663730487227,0.5018804313570261
1776228799039666000,17.283666015625,3.7766374303191896,1.2371902638822794,2.4244014219783243
1776228799059517200,17.30351708984375,-0.08005845609903335,2.1281451238885523,0.5733123672775924
1776228799079368200,17.3233681640625,0.46851475284993643,-0.45258448552936315,-1.1360587707467376
1776228799099218200,17.34321826171875,-1.572067530658841,0.029657763899862764,0.1362215842824429
1776228799119069200,17.363069091796874,-1.3807207829385995,0.37309418470710515,0.4789429886881262
1776228799138920200,17.382920166015627,0.4102992952466011,-0.01583645155727863,-0.30334850310673933
1776228799158771000,17.40277099609375,1.1698749695003032,-0.41648499814420936,-0.0012798289437778293
1776228799178622000,17.4226220703125,0.88046941408813,-0.17692600817978382,0.09433176825912669
1776228799198473000,17.442472900390626,0.11543372086286544,-0.15784546013474463,-0.36945637619402255
1776228799218324000,17.462323974609376,0.028996377381682394,-0.08815145392268896,-0.014022634467808529
1776228799238175000,17.482175048828125,-0.6155056414932012,0.010531623147428035,0.7456034821983426
1776228799258025000,17.50202490234375,-0.11979483868181705,-0.4276265698835253,0.5872022148117423
1776228799277876200,17.521876220703124,0.11805062536299228,-0.643147389395535,0.389462697314471
1776228799297727200,17.541727294921873,-0.554440055155754,-0.08168634956181049,-0.3373715678103268
