time,seconds_elapsed,z,y,x
1776228781828983000,0.072983154296875,-8.82931069574356,-4.202267857949435,0.7447177123397588
1776228781848834000,0.092833984375,-8.717965705499052,-4.428526052314043,0.7453923967309296
1776228781868684000,0.11268408203125,-8.642589854258299,-4.560792250034213,0.8217015102338046
1776228781888535000,0.13253515625,-8.605310217177868,-4.607751861868798,0.9421492598664015
1776228781908386000,0.152385986328125,-8.607192962184548,-4.586289679384231,1.0259460257109254
1776228781928237000,0.172237060546875,-8.63805396439433,-4.52980148396492,1.017499903600663
1776228781948087000,0.192087158203125,-8.67078485212922,-4.475665404629707,0.97790176044479
1776228781967938300,0.211938232421875,-8.677284151020645,-4.447051596824824,1.0482624869372694
1776228781987789000,0.2317890625,-8.652349031728505,-4.461877410034835,1.182746214576438
1776228782007640000,0.25164013671875,-8.613043441778421,-4.480304462607204,1.383017661704123
1776228782027491000,0.271490966796875,-8.610434720584749,-4.423298965315521,1.5701039755009114
1776228782047341000,0.291341064453125,-8.679764277398586,-4.233180298085511,1.706535476206988
1776228782067192000,0.311192138671875,-8.768535032263397,-3.964348159624636,1.8886806803397833
1776228782087043000,0.33104296875,-8.83518806334436,-3.6913419503495093,2.1175047796696425
1776228782106894000,0.35089404296875,-8.872695663961768,-3.462184527412057,2.336436284407973
1776228782126745000,0.3707451171875,-8.85396758261621,-3.2727672864496706,2.6583146611407398
1776228782146595000,0.390594970703125,-8.742012936040759,-3.122652128306031,3.1617461213320492
1776228782166446000,0.410446044921875,-8.52977303789556,-3.059051470533013,3.749075469654798
1776228782186297000,0.430297119140625,-8.287917169165611,-3.069210460975766,4.249795040538907
1776228782206148000,0.450148193359375,-8.039532190927863,-3.119475836357474,4.669600707538426
1776228782225998000,0.469998046875,-7.76968882959783,-3.220141903938353,5.043114578962326
1776228782245849000,0.48984912109375,-7.547301631447672,-3.3593153968289493,5.2842818809062235
1776228782265700000,0.5097001953125,-7.370394327968358,-3.499362457683682,5.440784109738469
1776228782285551000,0.529551025390625,-7.266359952998161,-3.659852294847369,5.47502247942686
1776228782305402000,0.549402099609375,-7.289884036448598,-3.8725682860717177,5.294449639177322
1776228782325252000,0.569252197265625,-7.3928458137512205,-4.179149724951386,4.904174310305715
1776228782345103000,0.58910302734375,-7.449296599769592,-4.604524716515839,4.413243142986297
1776228782364954000,0.6089541015625,-7.375561501473188,-5.11524574919343,3.950411111947894
1776228782384804900,0.628804931640625,-7.178697451636195,-5.654763545027375,3.558137010474503
1776228782404656000,0.64865625,-6.8689435202002525,-6.18922639555931,3.268253023895621
1776228782424506000,0.668506103515625,-6.452935199657082,-6.68239160554111,3.142555098649859
1776228782444357000,0.688357177734375,-5.9691796230554575,-7.0940849854946135,3.1958149796724316
1776228782464208100,0.7082080078125,-5.499065033793449,-7.3856141089320175,3.3739261059835552
1776228782484059100,0.72805908203125,-5.144641355025768,-7.53579824065864,3.59371715016067
1776228782503910100,0.74791015625,-4.939122874090075,-7.574992186927795,3.7940678730696438
1776228782523760000,0.767760009765625,-4.826259588237106,-7.530963660109043,4.02022465288639
1776228782543611100,0.787611083984375,-4.767301495572925,-7.442332021453976,4.249108811840415
1776228782563462100,0.807462158203125,-4.7164928070947525,-7.301603115814924,4.5400075284197925
1776228782583313000,0.82731298828125,-4.64086181204915,-7.102686809623241,4.917786656072735
1776228782603164000,0.847163818359375,-4.52419621130377,-6.840549784886837,5.37670063688457
1776228782623014000,0.867013916015625,-4.44318995296061,-6.509153345963359,5.836040149632096
1776228782642865200,0.886865234375,-4.484076966883242,-6.128263685074448,6.205468505308032
1776228782662716200,0.906716064453125,-4.5444589548707,-5.701157047411799,6.558589284783602
1776228782682567200,0.926567138671875,-4.484256415103376,-5.213580451217293,6.991453463059663
1776228782702418200,0.946418212890625,-4.3944422886654735,-4.667175526218116,7.421369897446036
1776228782722268200,0.96626806640625,-4.341307203066349,-4.1362943335652345,7.759802226355672
1776228782742119200,0.986119140625,-4.1223572858884925,-3.733385733091831,8.077028685629367
1776228782761970000,1.005969970703125,-3.715522451882064,-3.501234096774459,8.372969780290127
1776228782781821000,1.025821044921875,-3.2808912639334795,-3.3684979434549804,8.605774327558278
1776228782801672000,1.045671875,-2.9376036039471622,-3.267480870479345,8.767236224624513
1776228782821522000,1.06552197265625,-2.704901932531595,-3.254250802028179,8.846678594651818
1776228782841373000,1.085373046875,-2.5180577569276092,-3.414348717264831,8.841492131924628
1776228782861224000,1.105223876953125,-2.3612584448449314,-3.772138657595217,8.738753057461976
1776228782881075000,1.125074951171875,-2.273990641888976,-4.320759505078196,8.504727443966269
1776228782900925000,1.144925048828125,-2.246637501669675,-5.016528769853711,8.121418446975946
1776228782920776000,1.16477587890625,-2.263053798941523,-5.776030794349312,7.595159361165761
1776228782940627000,1.184626953125,-2.317807571783662,-6.51230274990499,6.956153601619601
1776228782960478000,1.20447802734375,-2.3208694435723123,-7.190362170466781,6.25161183232367
1776228782980328700,1.22432861328125,-2.1635807405374945,-7.824236996865272,5.501872492429614
1776228783000180000,1.244179931640625,-1.8247893690571189,-8.385601298326254,4.745758064545691
1776228783020030000,1.264030029296875,-1.3779806904502212,-8.804934379377961,4.092027614076435
1776228783039881000,1.283880859375,-0.9861771290980279,-9.055061817368864,3.633688802804053
1776228783059732000,1.30373193359375,-0.7601746630601585,-9.160057146325707,3.418464335890114
1776228783079583000,1.3235830078125,-0.6893913272414356,-9.16068316926956,3.431762208880484
1776228783099434000,1.34343408203125,-0.7341764445811509,-9.090341805064678,3.6051448453649875
1776228783119284000,1.363283935546875,-0.891824482447654,-8.942975653368235,3.9240585270732637
1776228783139135000,1.383135009765625,-1.1347253301858902,-8.67625071631968,4.427805044563114
1776228783158985700,1.40298583984375,-1.3546122359529136,-8.22172824846506,5.170937241277098
1776228783178836700,1.422836669921875,-1.4718322557106613,-7.61487528450489,6.001480302679538
1776228783198687700,1.442687744140625,-1.563670143061131,-6.97234368892014,6.716527683898806
1776228783218537700,1.462537841796875,-1.662699403220415,-6.345524041730165,7.28972913814783
1776228783238389000,1.482388916015625,-1.7342879910074174,-5.771341759750246,7.736552868193388
1776228783258240000,1.502239990234375,-1.8055480774924157,-5.297621254950761,8.052676919183135
1776228783278091000,1.522091064453125,-1.8637344551317392,-4.923565239474177,8.273777000132203
1776228783297942000,1.54194189453125,-1.861423401710391,-4.590244554489851,8.463754213064908
1776228783317792000,1.5617919921875,-1.763695433408022,-4.255855363491177,8.657219268113375
1776228783337643000,1.58164306640625,-1.5757245918616651,-3.996036844830215,8.81584740305841
1776228783357493800,1.60149365234375,-1.4055166398905217,-3.8666134693205354,8.901922342967987
1776228783377344800,1.6213447265625,-1.333870038305968,-3.864797359809279,8.913726178008318
1776228783397195800,1.64119580078125,-1.4234699374713002,-3.9496848434999583,8.862511539077758
1776228783417045800,1.661045654296875,-1.7171553621597586,-4.096397207462787,8.74307150518298
1776228783436896800,1.680896728515625,-2.2009156149365006,-4.286840284341573,8.541039112797378
1776228783456748000,1.700748046875,-2.7682272804945707,-4.53032287749052,8.24520849277377
1776228783476599000,1.72059912109375,-3.3963244002744553,-4.833455052699148,7.827711394977569
1776228783496450000,1.740449951171875,-4.003113066826761,-5.127220849147439,7.338738960510492
1776228783516300800,1.76030078125,-4.391623724113405,-5.430796384209394,6.884074453836679
1776228783536151000,1.780151123046875,-4.538204570651054,-5.862834633055329,6.4188984900206325
1776228783556001800,1.800001708984375,-4.485867649692297,-6.407756333759426,5.915069262683391
1776228783575852800,1.819852783203125,-4.352723792354762,-6.979383670559525,5.33969864770174
1776228783595703800,1.839703857421875,-4.176914513245225,-7.496338921451568,4.746437863503396
1776228783615554800,1.859554931640625,-3.98512586697638,-7.926603730884194,4.178291354556381
1776228783635404800,1.87940478515625,-3.786015499517321,-8.256582704225183,3.696663145372271
1776228783655255800,1.899255859375,-3.5616593393817544,-8.486295715218782,3.386407401894033
1776228783675107000,1.919107177734375,-3.2328096623316407,-8.622533739179373,3.372128408911824
1776228783694958000,1.9389580078125,-2.814848161894083,-8.68771903579533,3.5735911847159265
1776228783714808800,1.958808837890625,-2.5684087647661564,-8.629894038814307,3.885691679278016
1776228783734659000,1.9786591796875,-2.5817174514114853,-8.384048808187245,4.383244310563803
1776228783754509800,1.998509765625,-2.6289658170595764,-8.027865718531608,4.981195590665936
1776228783774360800,2.01836083984375,-2.6501430451229213,-7.625697707292437,5.567391551044583
1776228783794211800,2.0382119140625,-2.8089819002091883,-7.082187042430043,6.174351482510566
1776228783814062800,2.058062744140625,-3.137574095366895,-6.403185957103967,6.732401544857025
1776228783833914000,2.0779140625,-3.5032650180801745,-5.735260392543673,7.141729949244857
1776228783853764000,2.09776416015625,-3.7965789791077373,-5.16944203428328,7.418439689213037
1776228783873615000,2.117614990234375,-3.938867973670363,-4.708495670861005,7.647599742498993
1776228783893466000,2.137466064453125,-3.974964246185124,-4.349355484965443,7.839206017938256
1776228783913316900,2.15731689453125,-3.9806124812051653,-4.031169533009827,8.004671889948844
1776228783933167900,2.17716796875,-3.9133039088249206,-3.6705192348122595,8.208760045820474
1776228783953017900,2.197017822265625,-3.630273149141669,-3.2448484751716253,8.512488725617528
1776228783972868900,2.216868896484375,-3.1792727179333564,-2.864483422678709,8.8236805809021
1776228783992720100,2.23672021484375,-2.8061078060775992,-2.7313042017668483,8.990890666231513
1776228784012571100,2.256571044921875,-2.6487264563232658,-2.8044696834817526,9.01607479184866
1776228784032422100,2.276422119140625,-2.8399259045273064,-2.9882720071718096,8.898057484233378
1776228784052273200,2.296273193359375,-3.268987767910957,-3.2169048217132685,8.66808143838942
1776228784072123100,2.316123046875,-3.608727964548766,-3.4993989903017875,8.420313130745292
1776228784091974100,2.33597412109375,-3.739569974684715,-3.955725584968924,8.157097663122416
1776228784111825000,2.355824951171875,-3.67393050456047,-4.645644077889621,7.816047845190763
1776228784131676000,2.375676025390625,-3.4679566810727116,-5.450151657542586,7.378312846007943
1776228784151527000,2.39552685546875,-3.1793171415969725,-6.237258312800527,6.867236131760477
1776228784171378200,2.415378173828125,-2.8709014730274673,-6.950041840741038,6.294857684332132
1776228784191228000,2.435227783203125,-2.5619091736137865,-7.581543508267402,5.668085967937111
1776228784211079200,2.4550791015625,-2.229599126976728,-8.101552886033058,5.056097394654154
1776228784230930200,2.47493017578125,-1.8457870027698575,-8.50312059329152,4.523317674903572
1776228784250781200,2.49478125,-1.469736744736135,-8.784130076280237,4.10479415666908
1776228784270632000,2.5146318359375,-1.225238617869094,-8.919568474295735,3.88722224984616
1776228784290482000,2.53448193359375,-1.2057528500240295,-8.881927602687478,3.9784313377737996
1776228784310333000,2.5543330078125,-1.4124812182061373,-8.676221490225196,4.347237177637219
1776228784330184000,2.574183837890625,-1.7674794819913804,-8.303371927928923,4.90921814969182
1776228784350035000,2.594034912109375,-2.133246392550319,-7.805261662760376,5.540536277344822
1776228784369886000,2.613885986328125,-2.4536194792866706,-7.190204934078454,6.200892867955565
1776228784389737200,2.6337373046875,-2.7632787181764837,-6.408881538397074,6.889189020371437
1776228784409587200,2.653587158203125,-2.9027582082763312,-5.558592743039131,7.539656669652461
1776228784429438200,2.673438232421875,-2.796266211020946,-4.810443010424077,8.075327726930379
1776228784449289000,2.6932890625,-2.6402844989314675,-4.217305560344458,8.45065800012648
1776228784469140000,2.713139892578125,-2.5193068802058693,-3.7588399078220127,8.700264629113674
1776228784488991000,2.732990966796875,-2.4163190916791555,-3.397774306821823,8.876199872690439
1776228784508842000,2.752842041015625,-2.2618317098006604,-3.089170129942894,9.028373716929554
1776228784528692000,2.77269189453125,-2.018400846838951,-2.8011808710694313,9.178770614624023
1776228784548543000,2.79254296875,-1.7141740082614123,-2.537053841559589,9.316402723291516
1776228784568394000,2.81239404296875,-1.4027879455789922,-2.3294424799978732,9.422115845128893
1776228784588245000,2.832244873046875,-1.118144636132568,-2.278499936006963,9.47251624506712
1776228784608096000,2.852095947265625,-0.9394378089506179,-2.4359974594868716,9.452712058922648
1776228784627946200,2.8719462890625,-1.0272799777284265,-2.753521586532891,9.355918741121888
1776228784647797000,2.891796875,-1.40451243128404,-3.150339761176705,9.180037858080864
1776228784667648000,2.91164794921875,-1.9257839379400015,-3.628268239060044,8.904908080780505
1776228784687499000,2.9314990234375,-2.413957623244822,-4.168722731222212,8.54195155146718
1776228784707350000,2.95135009765625,-2.73698926166594,-4.781729541637003,8.112603272357582
1776228784727201000,2.971200927734375,-2.8368244313806295,-5.4719414645463225,7.627625460484624
1776228784747051000,2.991051025390625,-2.743520709261298,-6.192334882968664,7.092142034733295
1776228784766902000,3.010902099609375,-2.5076287173718215,-6.893702113881707,6.508382946112752
1776228784786753000,3.0307529296875,-2.192245986268669,-7.550565601679683,5.861178098019957
1776228784806604000,3.05060400390625,-1.842683629927039,-8.129116600263119,5.166466233342885
1776228784826455000,3.070455078125,-1.4728401175789534,-8.592741242983937,4.490648454228043
1776228784846305500,3.090305419921875,-1.1171712610557674,-8.921223255765437,3.9158796045318245
1776228784866155500,3.110155517578125,-0.8348195696778595,-9.105467478004098,3.5445641199350355
1776228784886006500,3.130006591796875,-0.7049961619999259,-9.153117117929458,3.4487440310806035
1776228784905857500,3.149857421875,-0.7613425377957522,-9.087472971630095,3.606736498470604
1776228784925708800,3.169708740234375,-0.9812990016676485,-8.910688417747616,3.9758085880547758
1776228784945559800,3.189559814453125,-1.3255635438621043,-8.610624105677008,4.502265826785564
1776228784965410800,3.209410888671875,-1.7135766268901527,-8.171906525197624,5.143343131908774
1776228784985260800,3.2292607421875,-1.9972820709645747,-7.547292279097437,5.934613336586952
1776228785005111800,3.24911181640625,-1.9998530904963612,-6.795773070049285,6.78147741819322
1776228785024962600,3.268962646484375,-1.8594504942022263,-6.072771514955162,7.472233823242783
1776228785044813600,3.2888134765625,-1.879115856397897,-5.5139656658053395,7.888947077184915
1776228785064664600,3.30866455078125,-2.0141082642115653,-5.089304083207249,8.137120458498597
1776228785084514600,3.3285146484375,-2.079997325182706,-4.738412377957999,8.330152967348694
1776228785104365600,3.348365478515625,-2.0149388698168096,-4.4287095921874045,8.514513509443402
1776228785124216600,3.368216552734375,-1.8680759914673863,-4.115980736593902,8.702838278993964
1776228785144067800,3.38806787109375,-1.6593537460543215,-3.7835195910483597,8.893925498995184
1776228785163918800,3.4079189453125,-1.3373923672132193,-3.4987411109149456,9.063144586059451
1776228785183769600,3.42776953125,-0.9919349619723856,-3.3587793902561067,9.159969468042254
1776228785203619800,3.447619873046875,-0.7928993402499706,-3.3794884162858128,9.171735893681644
1776228785223470600,3.467470703125,-0.8699764424506574,-3.5600028043463823,9.096147276473046
1776228785243321600,3.487321533203125,-1.2288165494211016,-3.8806083846643564,8.921954492649435
1776228785263172600,3.507172607421875,-1.7383786213219166,-4.286702044914662,8.64711697629392
1776228785283023600,3.527023681640625,-2.1865189869239927,-4.75238975764513,8.29483673929572
1776228785302874600,3.54687451171875,-2.4006366616398096,-5.309793923303484,7.887547147259116
1776228785322724600,3.566724609375,-2.36830587913841,-5.970477261650562,7.410460380896925
1776228785342575600,3.58657568359375,-2.171768138646334,-6.689064507433772,6.834487708368897
1776228785362427000,3.606427001953125,-1.8986482398636637,-7.400641582193971,6.147846921944618
1776228785382277600,3.626277587890625,-1.614516240940243,-8.043178438475728,5.373174216324091
1776228785402128600,3.646128662109375,-1.3337997495487333,-8.573478908631206,4.5702112357646225
1776228785421979600,3.665979736328125,-1.0562041666567326,-8.972695668849349,3.813866213995218
1776228785441829600,3.68582958984375,-0.794859022950381,-9.232109406101703,3.2104113680407402
1776228785461680600,3.7056806640625,-0.5702313158644363,-9.359412428456544,2.871694376970827
1776228785481531600,3.72553173828125,-0.43127749360650774,-9.366036230510472,2.87432794034481
1776228785501382700,3.745382568359375,-0.4524848245471716,-9.26846432955265,3.171938721783459
1776228785521233700,3.765233642578125,-0.6304268048364668,-9.057526161655783,3.705966395768523
1776228785541084700,3.785084716796875,-0.8979440613064914,-8.723687590277194,4.3887762257277965
1776228785560934700,3.8049345703125,-1.1359264496039598,-8.228522146388888,5.212625926971436
1776228785580785700,3.82478564453125,-1.2484354421265422,-7.548363123199343,6.13465660098195
1776228785600636700,3.84463671875,-1.217798092604801,-6.758474143746495,7.000742684930563
1776228785620487700,3.86448779296875,-1.155837310993299,-6.000692367172241,7.669820342135429
1776228785640338700,3.884338623046875,-1.1235148579288274,-5.367174099126458,8.130285059520602
1776228785660188700,3.904188720703125,-1.0317290660917757,-4.881292324151098,8.442683952507377
1776228785680039700,3.924039794921875,-0.8478235742881893,-4.479005654968321,8.682746508079767
1776228785699890700,3.943890625,-0.6152308431398124,-4.098305963693559,8.887956945979594
1776228785719741700,3.96374169921875,-0.32645036082342266,-3.701605862471461,9.075347649550437
1776228785739592400,3.983592529296875,0.006090148410020629,-3.347494026131928,9.217626707240939
1776228785759443700,4.003443603515625,0.28680397634534166,-3.127052116830647,9.29030148282945
1776228785779293400,4.02329345703125,0.4172136046797037,-3.086554394486546,9.298898630782961
1776228785799144700,4.043144775390625,0.36288682507798076,-3.203009859612584,9.261717777901888
1776228785818995700,4.06299560546875,0.14275820124326272,-3.4204628162309527,9.189691821610927
1776228785838847700,4.08284765625,-0.17429273706674575,-3.719230074228346,9.072340284428
1776228785858698500,4.102698486328125,-0.520761292111501,-4.106906034256518,8.890023230859637
1776228785878549500,4.122549560546875,-0.8597017897389828,-4.579526176598668,8.628976923969388
1776228785898399500,4.1423994140625,-1.1665355959445238,-5.1191427566319705,8.282749995660781
1776228785918250500,4.16225048828125,-1.4037399856068193,-5.697716551569104,7.857220398056507
1776228785938101500,4.1821015625,-1.533560982131958,-6.29072102291882,7.365149997574091
1776228785957952500,4.201952392578125,-1.5458398873381316,-6.893618527251482,6.801380973058938
1776228785977803500,4.221803466796875,-1.4665322496064006,-7.4784952217251055,6.171852066910266
1776228785997654500,4.241654541015625,-1.3406141057386993,-8.009806914749742,5.496921592023968
1776228786017504500,4.26150439453125,-1.1586738495934754,-8.464771865674853,4.814095103190839
1776228786037355500,4.28135546875,-0.8859732722014189,-8.800185723546146,4.235822044765949
1776228786057206500,4.30120654296875,-0.551750633408688,-8.98231689915359,3.896655848623812
1776228786077057500,4.3210576171875,-0.28493283044490963,-9.006267683583497,3.869928292956948
1776228786096908500,4.340908447265625,-0.22637913559684528,-8.9043019315809,4.102748037794232
1776228786116759600,4.360759521484375,-0.4161288051176816,-8.691546485128999,4.5226367069020865
1776228786136609500,4.380609619140625,-0.7868908936154096,-8.384863631701469,5.024465408071875
1776228786156460500,4.40046044921875,-1.1575704914614557,-7.962737705060839,5.605821527203918
1776228786176311600,4.4203115234375,-1.3752692395344375,-7.413837163853645,6.270090907344222
1776228786196162600,4.44016259765625,-1.3545021997071802,-6.777749922102689,6.956853274321555
1776228786216013300,4.460013427734375,-1.2127058109670876,-6.179890411937237,7.517225642135739
1776228786235864600,4.479864501953125,-1.2002619975227862,-5.726340003985166,7.870121380683779
1776228786255714300,4.49971435546875,-1.3134215629085897,-5.370441576489806,8.09960935074985
1776228786275565600,4.519565673828125,-1.3890467127352952,-5.03669009887278,8.29895644957423
1776228786295416600,4.53941650390625,-1.3576853597879408,-4.753272093437611,8.469563191604614
1776228786315267600,4.559267578125,-1.2371943555355072,-4.545860053840279,8.60086668177247
1776228786335118600,4.57911865234375,-1.0182689152117819,-4.3428202379778025,8.733465472447872
1776228786354969600,4.598969482421875,-0.6390047366328537,-4.10874844725281,8.881455893522501
1776228786374819600,4.618819580078125,-0.186755876266025,-3.8947327716067432,8.998142244794964
1776228786394670600,4.638670654296875,0.020879866251698694,-3.826616974496841,9.029227118888496
1776228786414521300,4.658521240234375,-0.19973973313746973,-3.9517078737601636,8.972987929794192
1776228786434372400,4.678372314453125,-0.7214712037216872,-4.188163637012243,8.837937654313444
1776228786454223600,4.6982236328125,-1.3883919020883737,-4.49150331749171,8.606343067356944
1776228786474073600,4.718073486328125,-2.075738206433505,-4.8557782359272235,8.263359651014209
1776228786493924600,4.737924560546875,-2.637853472392261,-5.297366403406858,7.819847237473726
1776228786513775600,4.757775634765625,-2.9503754072368142,-5.846667926630378,7.299462012133002
1776228786533626600,4.777626708984375,-3.0017671562999486,-6.480778315350413,6.720066379418968
1776228786553477600,4.7974775390625,-2.8570521036341785,-7.121179328647256,6.1070811963140965
1776228786573328400,4.817328369140625,-2.585108847415447,-7.683308769261837,5.518548901942372
1776228786593178600,4.8371787109375,-2.275694523197412,-8.135278630024194,4.980846046575904
1776228786613029400,4.857029296875,-2.0185937390625477,-8.474237028634548,4.503662249580025
1776228786632880400,4.87688037109375,-1.8905736544795333,-8.6909853441149,4.1307255935221905
1776228786652731400,4.8967314453125,-1.9285953420989215,-8.759808704972267,3.964421517121792
1776228786672582700,4.916582763671875,-2.1006965604707597,-8.643694016107917,4.128437774845957
1776228786692433700,4.93643359375,-2.2709384147115053,-8.31697375230193,4.673454460357129
1776228786712283600,4.95628369140625,-2.2479652431420982,-7.86055217282772,5.41560466029644
1776228786732134700,4.976134765625,-2.0250250872842965,-7.367572840806841,6.147235512048006
1776228786751985700,4.995985595703125,-1.8655030722394585,-6.807174169507622,6.808277162313461
1776228786771836400,5.01583642578125,-1.8879868528567254,-6.0770654127568005,7.461578573715687
1776228786791687400,5.0356875,-1.8291804436229169,-5.263593313142657,8.06963915989995
1776228786811538400,5.055538330078125,-1.351918759085238,-4.63604155228585,8.535210845035314
1776228786831388400,5.075388427734375,-0.6131210113789886,-4.322267279292642,8.781370548439025
1776228786851239200,5.0952392578125,0.0639786196733592,-4.124981204651296,8.89667450544238
1776228786871090200,5.115090087890625,0.5325447784835472,-3.9353757476404305,8.966583323448896
1776228786890941200,5.134941162109375,0.8925148027993738,-3.7988480930835005,8.9968083658427
1776228786910792200,5.154792236328125,1.261460197263956,-3.720516022385657,8.985368103417754
1776228786930643200,5.174643310546875,1.6227138681821525,-3.6437457941770552,8.958812104925514
1776228786950493200,5.1944931640625,1.8561684037916362,-3.558293370079994,8.947824262443184
1776228786970344200,5.21434423828125,1.8780749690428375,-3.5140824724316593,8.960717061764
1776228786990195200,5.2341953125,1.662980119857937,-3.5652392436951397,8.982980331498384
1776228787010046200,5.254046142578125,1.1820132971920072,-3.7313250011697408,8.991686785045266
1776228787029897200,5.273897216796875,0.43028976121079177,-3.9686856043070553,8.957386456036566
1776228787049747200,5.293747314453125,-0.47973655021861195,-4.22592521239072,8.836391009393333
1776228787069598200,5.31359814453125,-1.2814745190277694,-4.489819894449413,8.623789292198419
1776228787089449200,5.33344921875,-1.7407460811056195,-4.825380467315018,8.357983223560453
1776228787109300200,5.35330029296875,-1.8250708163470029,-5.2882969617664815,8.05440242780149
1776228787129151200,5.373151123046875,-1.6705729130744933,-5.831243563005327,7.705593081784248
1776228787149002200,5.393002197265625,-1.431262198782712,-6.391074663549661,7.2990429099380965
1776228787168852000,5.41285205078125,-1.198168970766291,-6.941061830949783,6.823228063207864
1776228787188703200,5.432703125,-0.9980337903041392,-7.45642484421432,6.290949570977688
1776228787208554200,5.45255419921875,-0.7992656604114919,-7.899394236919283,5.755965326920151
1776228787228405200,5.4724052734375,-0.5984184592224657,-8.264637415865064,5.244813209348917
1776228787248256300,5.49225634765625,-0.4128558478616178,-8.546847506815194,4.790752806048095
1776228787268107300,5.512107177734375,-0.25728839739514514,-8.750433558383584,4.419739227007329
1776228787287957200,5.531957275390625,-0.16207573638195172,-8.892261365175246,4.131803451886773
1776228787307808300,5.551808349609375,-0.16970783869558945,-8.977778671202064,3.9422164073154327
1776228787327659000,5.571658935546875,-0.2587177908774465,-9.009465018320084,3.8643233125567433
1776228787347510000,5.591510009765625,-0.3759292254699394,-8.991926439020038,3.8954236764803527
1776228787367361300,5.611361328125,-0.4967458449475467,-8.927031649783252,4.0288603792846205
1776228787387212300,5.63121240234375,-0.6290257789321243,-8.81582636027038,4.249226885262131
1776228787407062300,5.651062255859375,-0.8021361012812703,-8.653211786037684,4.544106780432164
1776228787426913300,5.670913330078125,-1.027731082496792,-8.42753431417048,4.908239075526595
1776228787446764300,5.690764404296875,-1.2752160431548953,-8.11682527396679,5.3536313114643095
1776228787466615300,5.710615234375,-1.4750706531099975,-7.742243773311376,5.835428739735484
1776228787486466000,5.730466064453125,-1.5500383619412779,-7.371130825549364,6.279666544941067
1776228787506317000,5.750317138671875,-1.4667195888720452,-7.058864034509658,6.647672758859396
1776228787526167000,5.7701669921875,-1.2652436613254248,-6.7936395651519295,6.958163187876344
1776228787546018000,5.79001806640625,-1.0425199246972798,-6.555731557264924,7.218442017525434
1776228787565869000,5.809869140625,-0.9081260672986506,-6.3424535482436415,7.42421593452692
1776228787585720300,5.82972021484375,-0.8502134650994092,-6.093075467315316,7.6368819491297
1776228787605571300,5.8495712890625,-0.7713699377480894,-5.771185692405701,7.891056032162904
1776228787625422300,5.86942236328125,-0.5842329532099887,-5.413927666994929,8.155884780201315
1776228787645272300,5.889272216796875,-0.3992305330151692,-5.144698053649067,8.339250466039775
1776228787665123300,5.909123291015625,-0.4380010297078639,-4.956223646494746,8.450704177355766
1776228787684974000,5.92897412109375,-0.6700319622550159,-4.7876314591571685,8.532293496283888
1776228787704825000,5.9488251953125,-0.8860019137740135,-4.649400215552747,8.58885709502697
1776228787724676000,5.968676025390625,-0.9737048202116042,-4.6067853549242015,8.602314542493223
1776228787744527000,5.988527099609375,-0.9841881472378968,-4.733559969490766,8.53201000316739
1776228787764377000,6.008377197265625,-0.9465759172022342,-5.026643921154737,8.36703220693469
1776228787784228000,6.02822802734375,-0.8438950026676059,-5.430341626179218,8.122168388560414
1776228787804079400,6.048079345703125,-0.6925630891453475,-5.900796991702914,7.8020087984442705
1776228787823930400,6.067930419921875,-0.533527213649638,-6.415308356574178,7.397941675585508
1776228787843781400,6.087781494140625,-0.38993963064383713,-6.945000339442491,6.912690891990065
1776228787863631400,6.10763134765625,-0.26576171803958715,-7.4715359041064975,6.346331850981712
1776228787883482400,6.127482421875,-0.14460117136198095,-7.952112266150117,5.737018634387851
1776228787903333400,6.14733349609375,0.04048742014579475,-8.31464443257153,5.199563616302609
1776228787923184400,6.167184326171875,0.32210758237875997,-8.518930741363762,4.847107438215613
1776228787943035400,6.187035400390625,0.612536489489302,-8.57009394236803,4.72743534913063
1776228787962886400,6.206886474609375,0.7694451071653514,-8.509322370541096,4.813495383732021
1776228787982737400,6.2267373046875,0.7033911379560828,-8.377691548115015,5.048754630675911
1776228788002587400,6.24658740234375,0.41496608148124065,-8.156412018945813,5.428731852895021
1776228788022438400,6.2664384765625,-0.0056342510188173035,-7.805875410744547,5.936217264652252
1776228788042289400,6.286289306640625,-0.3823172825392335,-7.309172089764475,6.526885986530781
1776228788062140400,6.306140380859375,-0.5427112946456298,-6.702984896236658,7.137636542451381
1776228788081991400,6.325991455078125,-0.4963126046294346,-6.089993867912888,7.670463900735974
1776228788101841400,6.34584130859375,-0.43575401796605434,-5.583565271732211,8.05011086808741
1776228788121692400,6.3656923828125,-0.5364923470655456,-5.22197886172831,8.283326918765901
1776228788141543400,6.38554345703125,-0.7138082678783685,-4.928711370190978,8.447998425528407
1776228788161394400,6.40539453125,-0.850264026242867,-4.661877127549052,8.585704768475889
1776228788181245400,6.425245361328125,-0.8701142434861511,-4.393687378644943,8.724034211757779
1776228788201096200,6.44509619140625,-0.7551477017436176,-4.122985062398016,8.865727578514814
1776228788220946400,6.464946533203125,-0.5802545876309275,-3.860693139360845,8.996039135035872
1776228788240797400,6.48479736328125,-0.4278670275758952,-3.657918696436286,9.088836076676845
1776228788260648400,6.5046484375,-0.3995456633789465,-3.6005925888881087,9.112985598549246
1776228788280499500,6.52449951171875,-0.6082905224826186,-3.6698926273465156,9.073712741824984
1776228788300350500,6.5443505859375,-1.0158084433823824,-3.788783502925932,8.987971563914417
1776228788320201500,6.564201416015625,-1.4639644449450075,-3.9507787762165067,8.855425380209088
1776228788340051500,6.584051513671875,-1.8142986624419688,-4.203020722143352,8.672561214151978
1776228788359902500,6.60390234375,-1.9965562409080564,-4.63879260455966,8.406292788699268
1776228788379753500,6.62375341796875,-1.9980026403240858,-5.267540004941821,8.026915870460867
1776228788399604200,6.643604248046875,-1.8435213959254324,-5.948797344762086,7.575197354111075
1776228788419455200,6.663455322265625,-1.6114951395533978,-6.574342149710655,7.095879467695951
1776228788439306500,6.683306396484375,-1.392002201540023,-7.1490703751355404,6.566850332650542
1776228788459157500,6.703157470703125,-1.217156872091815,-7.669542694237828,5.988909574919939
1776228788479007500,6.723007568359375,-1.0486554317776113,-8.132987304216623,5.378216302144527
1776228788498858500,6.7428583984375,-0.8068912599191069,-8.536381057858467,4.759152091386914
1776228788518709500,6.76270947265625,-0.45707456349022685,-8.853317009752988,4.192880728662014
1776228788538560500,6.782560546875,-0.04730670823920518,-9.046467007502914,3.785445006152987
1776228788558411300,6.802411376953125,0.270061935984157,-9.119955437561869,3.594973872223496
1776228788578262300,6.82226220703125,0.3850444790134206,-9.109263363155723,3.6115699099764225
1776228788598112300,6.8421123046875,0.2508002226859331,-9.032175447300077,3.8114673361599443
1776228788617963300,6.86196337890625,-0.13174281316688283,-8.864439292269944,4.192227233189344
1776228788637814500,6.881814453125,-0.6432365289837122,-8.582059105449915,4.701584576298296
1776228788657665500,6.90166552734375,-1.0966872759535908,-8.206718310859799,5.2552299739450214
1776228788677516500,6.9215166015625,-1.3437551802434027,-7.760223082116246,5.8432554878383876
1776228788697367600,6.941367431640625,-1.415066850785166,-7.2988073476165525,6.394949459156393
1776228788717217500,6.961217529296875,-1.4687496333949266,-6.891491452094912,6.820594207572936
1776228788737068300,6.981068359375,-1.592961265605688,-6.567712502437829,7.106196863570809
1776228788756919300,7.000919189453125,-1.7241989970609544,-6.280026610425114,7.332039755132794
1776228788776770300,7.020770263671875,-1.7416119041547178,-5.9730316223084925,7.5802406089752905
1776228788796621300,7.040621337890625,-1.643221380290389,-5.635788210922479,7.855451634818315
1776228788816472300,7.060472412109375,-1.4995305561058223,-5.310171524444222,8.107026349008082
1776228788836322300,7.080322265625,-1.3467045315682886,-5.035007260352373,8.306952709025143
1776228788856172800,7.1001728515625,-1.184238937352225,-4.833878246547282,8.449946636986732
1776228788876023800,7.12002392578125,-1.094832807193324,-4.704783956861496,8.534443952316046
1776228788895874800,7.139874755859375,-1.1701832317318768,-4.662249175731837,8.547776896619796
1776228788915725800,7.159725830078125,-1.4785269310437141,-4.7221544861182565,8.4667358592242
1776228788935576600,7.17957666015625,-2.008353500077128,-4.863062255455553,8.275718781849742
1776228788955426800,7.1994267578125,-2.5565137443110344,-5.086487856742739,7.985126647001504
1776228788975277600,7.219277587890625,-2.908232548034191,-5.455923226681351,7.612192913553118
1776228788995128800,7.23912890625,-2.9744875197082754,-5.98642769497633,7.175338788858055
1776228789014979800,7.258979736328125,-2.7855528015658257,-6.587147855269908,6.709737877628207
1776228789034830800,7.278830810546875,-2.4548732787400485,-7.188136895632743,6.202794317662716
1776228789054681900,7.298681884765625,-2.077892900249362,-7.741770895102619,5.649577082300186
1776228789074531800,7.31853173828125,-1.655696538721025,-8.224801664561033,5.077569806271791
1776228789094382800,7.3383828125,-1.1465236853335052,-8.642761119171977,4.4898289545387025
1776228789114233900,7.35823388671875,-0.5950046687236056,-8.966534223610163,3.9265295933619138
1776228789134084600,7.378084716796875,-0.06681006197331008,-9.167748285350203,3.4811373574241995
1776228789153935600,7.397935546875,0.40039219720568503,-9.22821649031639,3.2939486061662433
1776228789173787000,7.417786865234375,0.7245091101128608,-9.164391376137733,3.4145845718473193
1776228789193636900,7.437636962890625,0.8203607631493359,-9.00969415090084,3.7845477650523183
1776228789213487900,7.45748779296875,0.6814735398542136,-8.786273518049716,4.302020025555789
1776228789233339000,7.4773388671875,0.3108670437769964,-8.492401046356559,4.8941667110323905
1776228789253190000,7.49718994140625,-0.2591421903019771,-8.074109583312273,5.559853556755185
1776228789273041000,7.517041015625,-0.7721200985282659,-7.455600668349861,6.323624344611168
1776228789292891600,7.5368916015625,-0.9656213208686559,-6.7096864397019145,7.086471003359556
1776228789312742700,7.55674267578125,-0.9201533358313143,-6.045668988496065,7.666393290296196
1776228789332592600,7.576592529296875,-0.9193963069189339,-5.599316967615485,7.998296509698033
1776228789352443600,7.596443603515625,-1.022535267419368,-5.256093897297978,8.215733976486325
1776228789372294700,7.616294677734375,-1.0761409662049264,-4.904721422794461,8.42353969157636
1776228789392146000,7.63614599609375,-0.9753284758906811,-4.550202759219705,8.632195301494002
1776228789411997000,7.655996826171875,-0.8113134602755308,-4.199541063334047,8.824738565522432
1776228789431848000,7.675847900390625,-0.7031056720782071,-3.8409932903736825,8.995711218255758
1776228789451698000,7.695697998046875,-0.5592811750439927,-3.5423432290151715,9.127398154783249
1776228789471548700,7.715548583984375,-0.23125642277700825,-3.4430729997068643,9.179441645753384
1776228789491399700,7.735399658203125,0.1202667487761937,-3.5256007685288786,9.150195677524804
1776228789511250700,7.755250732421875,0.1996769883658737,-3.7284798408716915,9.068018914097546
1776228789531101700,7.775101806640625,-0.0900342537282966,-4.022655679425597,8.943183158639073
1776228789550952700,7.79495263671875,-0.6694785661559551,-4.380026809822023,8.748573025208712
1776228789570802700,7.814802734375,-1.2236198575608432,-4.779115559746325,8.4754469889462
1776228789590654000,7.834654052734375,-1.435778945554793,-5.306479099667072,8.120973625817895
1776228789610505000,7.8545048828125,-1.3341561617709696,-5.996842706006765,7.643839513182639
1776228789630355700,7.874355712890625,-1.0920773710053413,-6.723885645446181,7.054580658102035
1776228789650206700,7.894206787109375,-0.8698132147129625,-7.361314364933967,6.4206584854304785
1776228789670057700,7.9140576171875,-0.7373340318292378,-7.885986473813652,5.782555812203884
1776228789689907700,7.93390771484375,-0.6149892894688993,-8.322762857097386,5.150124754872918
1776228789709758700,7.9537587890625,-0.40688046324644234,-8.698613939297198,4.509871333353221
1776228789729609700,7.973609619140625,-0.08477452483549713,-8.981137918502093,3.9373005782231685
1776228789749460700,7.993460693359375,0.24989446948524563,-9.126351860600709,3.5801708553671836
1776228789769311700,8.013311767578125,0.35924550943356004,-9.110476830598712,3.6111706815257665
1776228789789162800,8.033162841796875,0.15193496658247896,-8.942328003114461,4.022692504304647
1776228789809013800,8.053013671875,-0.23071986821489407,-8.596441266545654,4.713634495054185
1776228789828863700,8.07286376953125,-0.6450300613369793,-8.063709769850968,5.543547734120488
1776228789848715500,8.092715576171875,-1.0159565466161817,-7.358872817000746,6.40196898252964
1776228789868566500,8.11256640625,-1.2631437664367258,-6.444557831934094,7.283029932770132
1776228789888417500,8.13241748046875,-1.2546795972131193,-5.356627570670843,8.118047509238123
1776228789908268500,8.1522685546875,-1.0551507851462811,-4.382150085586309,8.709408889555931
1776228789928119300,8.172119384765624,-0.870868349789083,-3.7263150640532374,9.02920490705669
1776228789947969500,8.191969482421875,-0.6735067987587302,-3.2805703614160415,9.2170848554492
1776228789967820500,8.211820556640625,-0.42251277053374797,-3.001314444096386,9.326519043636322
1776228789987671600,8.231671630859376,-0.19792990723652765,-2.8544834221899507,9.379932069393991
1776228790007522600,8.2515224609375,-0.02056203019089298,-2.722216932208836,9.4212256182909
1776228790027373600,8.27137353515625,0.22523009342588482,-2.516654027609527,9.47555166724026
1776228790047224600,8.291224609375,0.5782004681127145,-2.3183266272217034,9.51112040874958
1776228790067074600,8.311074462890625,0.9168694918550551,-2.2871377082318065,9.492034600007534
1776228790086925600,8.330925537109374,1.0281694008488207,-2.4592241674259303,9.43745136142671
1776228790106776600,8.350776611328126,0.8369543897494673,-2.758550812871754,9.373381917098165
1776228790126627300,8.37062744140625,0.45914183475095777,-3.1344267372518777,9.280890680405497
1776228790146478300,8.390478271484374,0.027543972916551866,-3.5873347556471824,9.126917677789926
1776228790166329600,8.41032958984375,-0.5007253795703873,-4.147460747484862,8.872329168736934
1776228790186180600,8.4301806640625,-1.1812712466530502,-4.812170857129991,8.462742405673861
1776228790206030600,8.450030517578124,-1.8781459884524345,-5.521904057589173,7.883625005379319
1776228790225881600,8.469881591796875,-2.3609571238107976,-6.24980390611887,7.178872808203101
1776228790245732600,8.489732666015625,-2.5315415078788996,-6.99571287406981,6.389183735236525
1776228790265583600,8.50958349609375,-2.3998458035230636,-7.700549826920032,5.577872613048553
1776228790285434400,8.529434326171875,-2.044177385391295,-8.316404427981377,4.77798743249923
1776228790305285400,8.549285400390625,-1.583830156905949,-8.795802978417276,4.03679497167617
1776228790325135400,8.56913525390625,-1.1512970372151583,-9.099901660570502,3.469392266833782
1776228790344986400,8.588986328125,-0.8813564991209656,-9.233560189431905,3.1835438193812964
1776228790364837600,8.608837646484375,-0.8350340892113745,-9.228117121595144,3.2116879638478157
1776228790384688600,8.628688720703124,-0.9434049590159207,-9.101727706953882,3.526882917293906
1776228790404539600,8.64853955078125,-1.0832847004797308,-8.830612425991893,4.125185787312686
1776228790424390700,8.668390625,-1.1177484033565968,-8.393660686141253,4.946460961893201
1776228790444241400,8.688241455078124,-0.9200256177984177,-7.790515929049253,5.884880460646748
1776228790464091600,8.708091552734375,-0.49894152836091815,-7.04828535735011,6.800231218501925
1776228790483942400,8.7279423828125,-0.1553472866434604,-6.180063430416584,7.612690926203131
1776228790503793400,8.74779345703125,-0.11834132453841156,-5.340385460922121,8.224151091697811
1776228790523644400,8.76764453125,-0.24010332597419617,-4.732898875233531,8.585594293838739
1776228790543495400,8.787495361328125,-0.29046682796813544,-4.369085144568979,8.774800522398948
1776228790563346700,8.8073466796875,-0.14651047558202407,-4.10973745829016,8.902751779529451
1776228790583196700,8.82719677734375,0.10722405612329021,-3.913711320582032,8.991204554486274
1776228790603047700,8.847047607421874,0.4134965569179505,-3.7611274342373013,9.047281831017136
1776228790622898700,8.866898681640626,0.7610626248758285,-3.6063831549882885,9.087639560368656
1776228790642749400,8.88674951171875,1.0093338405407966,-3.4941356629461047,9.107284756559133
1776228790662600400,8.906600341796874,1.0185877719026057,-3.4852453772649166,9.109662007084488
1776228790682451500,8.926451416015626,0.7809468174539506,-3.6866160908713934,9.053693451625108
1776228790702302500,8.946302490234375,0.3749388261931017,-4.105713609601557,8.897916029936075
1776228790722152400,8.96615234375,-0.09192414999497123,-4.636605908170342,8.640822260063887
1776228790742003500,8.98600341796875,-0.4818796266619116,-5.208734764751791,8.295015018472075
1776228790761854700,9.005854736328125,-0.6863088510561735,-5.825379639407992,7.859026570695638
1776228790781705700,9.025705810546874,-0.7129121958214789,-6.4788055539727205,7.327157243788242
1776228790801556500,9.045556396484375,-0.6502678889252245,-7.115019636973738,6.717441876134276
1776228790821407500,9.065407470703125,-0.598841360809654,-7.701967292502522,6.040816872289777
1776228790841257200,9.08525732421875,-0.6102846919745206,-8.228137530985475,5.30053392752707
1776228790861108000,9.10510791015625,-0.6712534668739885,-8.670680222710967,4.532011561229825
1776228790880959000,9.124958984375,-0.7366594205033034,-9.034092094576359,3.743382226449251
1776228790900810000,9.14481005859375,-0.7387658181980252,-9.320397345885635,2.9588533127248287
1776228790920661000,9.164660888671875,-0.6051590560564771,-9.514021390888095,2.2994759424097833
1776228790940512300,9.18451220703125,-0.3392699487775564,-9.606419104078412,1.942153765721619
1776228790960363300,9.20436328125,-0.11853568719988689,-9.599684827387332,2.000599963340908
1776228790980213200,9.224213134765625,-0.03708958070131484,-9.502325692397356,2.423802725432813
1776228791000064300,9.244064208984375,-0.08930507180406712,-9.306330826610326,3.0910557975590227
1776228791019915000,9.2639150390625,-0.27360539901098235,-8.99427095631957,3.8985388858914374
1776228791039766000,9.28376611328125,-0.5556015366831794,-8.536148418146372,4.795399462810159
1776228791059617000,9.303616943359375,-0.8497093149695545,-7.899986942115426,5.747921721196175
1776228791079468000,9.323468017578126,-1.0323146108947694,-7.123491112720966,6.660373835000396
1776228791099319000,9.343319091796875,-1.0704670122217386,-6.296942673912644,7.441303262928128
1776228791119169000,9.3631689453125,-1.081531061745435,-5.476681937071681,8.062668736365437
1776228791139020000,9.38302001953125,-1.1394687253206968,-4.64705248338282,8.560192141556739
1776228791158871300,9.402871337890625,-1.1457803196202963,-3.8710017674073574,8.93716609030664
1776228791178722000,9.42272216796875,-1.046580013743043,-3.2991987817794084,9.1755300252676
1776228791198573000,9.442572998046876,-0.8090530410628766,-2.9310332856461403,9.32335035047233
1776228791218424000,9.462424072265625,-0.4703992879549041,-2.6427123106002806,9.4321357193619
1776228791238274000,9.482274169921874,0.007792957143622333,-2.3063317996539174,9.531586858195066
1776228791258125000,9.502125,0.5995588979618623,-1.9548941509597002,9.591106968656181
1776228791277976000,9.52197607421875,1.1213571684382855,-1.687641829036176,9.595041385495662
1776228791297827000,9.5418271484375,1.3623514519028366,-1.5788009305670856,9.582367781883478
1776228791317678000,9.561677978515625,1.1741689403671771,-1.6085615703195333,9.602304069975018
1776228791337529000,9.581529052734375,0.6150380970466882,-1.717163107074797,9.635531216794252
1776228791357380000,9.601380126953124,-0.15815158520815892,-1.8961252972573042,9.620295069217681
1776228791377230000,9.62122998046875,-0.9598374037049711,-2.1960189289361236,9.509289101669191
1776228791397081000,9.6410810546875,-1.580496482438594,-2.6354654082119464,9.312718481820822
1776228791416932000,9.66093212890625,-1.8853991744510827,-3.201849583661556,9.075451109924911
1776228791436783000,9.680783203125,-1.889406948787719,-3.8683606052488084,8.81114609349966
1776228791456634000,9.700634033203125,-1.7062524214819073,-4.652079371634126,8.462697982010244
1776228791476485000,9.720485107421876,-1.4052161956392228,-5.52970450220704,7.976096368327736
1776228791496336000,9.7403359375,-1.0774158815115689,-6.411921636745333,7.341444712337851
1776228791516186000,9.76018603515625,-0.8121626975160091,-7.207125673741102,6.600612901520729
1776228791536036900,9.780036865234376,-0.6385658337589353,-7.8586916396528474,5.8312599296182395
1776228791555888000,9.79988818359375,-0.521389945403859,-8.357298163905739,5.104319281509518
1776228791575739100,9.8197392578125,-0.3702173506291583,-8.70913065713644,4.492704802235961
1776228791595590100,9.839590087890626,-0.09125715571991168,-8.92273015319705,4.067796259139478
1776228791615441200,9.859441162109375,0.2833269296182319,-9.018129970812797,3.842325708021223
1776228791635292200,9.879292236328125,0.5738797553693875,-9.026507338535785,3.7898853266879913
1776228791655142100,9.89914208984375,0.6214107008185237,-8.95437967543602,3.950101607607305
1776228791674993200,9.9189931640625,0.4595355102436617,-8.760907606124878,4.382429779310524
1776228791694844000,9.938843994140624,0.19581057699499652,-8.412970951288939,5.035270879724622
1776228791714695000,9.95869482421875,-0.08071139444927684,-7.933798026302457,5.763569372183084
1776228791734546200,9.978546142578125,-0.2616685304418206,-7.39103730302453,6.44006987286508
1776228791754397200,9.998397216796874,-0.1789058203527704,-6.790266289326548,7.073236258733272
1776228791774248200,10.018248291015626,0.2427917248079553,-6.193054429414868,7.5998372898489235
1776228791794098200,10.03809814453125,0.7885803080070763,-5.754011270242929,7.901890729910135
1776228791813949200,10.05794921875,1.1603412713490426,-5.542609576487541,8.006465203106403
1776228791833800200,10.07780029296875,1.2707912124499678,-5.446013827085495,8.055832168343663
1776228791853651000,10.09765087890625,1.2158102797884494,-5.338695608139038,8.135755015364289
1776228791873502000,10.117501953125,1.1418190878391266,-5.148257791957259,8.268137532940507
1776228791893353000,10.13735302734375,1.0992257814552635,-4.874476798917353,8.438103638979792
1776228791913204000,10.157203857421875,1.1136548504326491,-4.534165232132375,8.623892168051004
1776228791933054000,10.177053955078126,1.234836540362984,-4.222794805410504,8.764334073442221
1776228791952905000,10.196905029296875,1.489140241125226,-3.9923306837886567,8.832561806493997
1776228791972756000,10.216755859375,1.8061581722147761,-3.855297125536203,8.834299590072035
1776228791992607000,10.23660693359375,1.9803204147696494,-3.7999782661572095,8.820933912542461
1776228792012457700,10.256457763671875,1.8522903933145105,-3.811141757467389,8.843901531153916
1776228792032309000,10.27630908203125,1.4690112069405614,-3.891112827543914,8.88097132487595
1776228792052160000,10.296159912109376,0.9983365726429968,-4.106970623925328,8.849095008143783
1776228792072010000,10.316010009765625,0.5855233948793261,-4.488080065044761,8.69969413574934
1776228792091861000,10.335861083984375,0.31763288465011863,-4.987244223180413,8.43782599108219
1776228792111712000,10.3557119140625,0.25638226060196756,-5.503935270178317,8.11242031700611
1776228792131563000,10.37556298828125,0.3854588685005903,-6.006729309248924,7.7421578485935925
1776228792151414000,10.3954140625,0.5865345812158659,-6.558897912341356,7.266858550170063
1776228792171264800,10.4152646484375,0.7434666893653571,-7.167917114424705,6.651212623423338
1776228792191115800,10.43511572265625,0.8769077760837972,-7.7175272652059785,5.986753273668885
1776228792210965800,10.4549658203125,1.0700095507778227,-8.137201707041264,5.367626519069075
1776228792230816800,10.474816650390625,1.2718762312076985,-8.459750238120556,4.794302022962272
1776228792250668000,10.49466796875,1.474213451758772,-8.669892871725558,4.339357822564244
1776228792270519000,10.51451904296875,1.6653651152983306,-8.773851843371986,4.051724537521601
1776228792290370000,10.5343701171875,1.748965189526975,-8.8020982791692,3.9540576517567034
1776228792310221000,10.554220947265625,1.6888547119572759,-8.75168911140263,4.08975353166461
1776228792330071800,10.57407177734375,1.5253072407886386,-8.607718447363377,4.444210528180003
1776228792349922800,10.5939228515625,1.3030949608139692,-8.352685117152333,4.970411161801219
1776228792369772800,10.613772705078125,0.9901912601102143,-7.997072520861029,5.588983789649605
1776228792389623800,10.633623779296874,0.6027080096425488,-7.59005122437179,6.180474349305033
1776228792409474800,10.653474853515625,0.23356161271315068,-7.180871288543939,6.674648444068431
1776228792429326000,10.673326171875,-0.02625627119357232,-6.775441645160317,7.089647879830002
1776228792449177000,10.693177001953124,-0.1272369896476157,-6.351189812406897,7.471049581894278
1776228792469028000,10.713028076171875,-0.11850297224037348,-5.924654837152362,7.813757688426971
1776228792488878800,10.73287890625,-0.07213348091919906,-5.536471512123942,8.093988003736733
1776228792508729000,10.75272900390625,0.021352235287090297,-5.1669624924272295,8.335012097817659
1776228792528579800,10.772579833984375,0.19346056153643876,-4.792747194735705,8.553509302791953
1776228792548430800,10.792430908203125,0.3547693138675764,-4.469319542734325,8.721796661964058
1776228792568281900,10.81228173828125,0.3918074703423306,-4.206980857945978,8.849755517879128
1776228792588132900,10.8321328125,0.354657231795229,-3.9828015156820413,8.95443403597176
1776228792607983900,10.85198388671875,0.3130878616316244,-3.852708862608671,9.01271379098296
1776228792627835100,10.871835205078124,0.24775475404281166,-3.8420100662007926,9.019310120508074
1776228792647685000,10.89168505859375,0.16896036306284368,-3.957764397320151,8.970949701964855
1776228792667536100,10.9115361328125,0.10293205801779404,-4.248358285734057,8.83805865034461
1776228792687387000,10.931386962890626,-0.007813765323744155,-4.731289394210279,8.589833246582746
1776228792707238000,10.95123779296875,-0.2133138840522617,-5.330880550473928,8.228400565835834
1776228792727089000,10.9710888671875,-0.4775053936330601,-5.954577681729197,7.777235007193684
1776228792746940000,10.99093994140625,-0.6952935370225459,-6.580268617150187,7.237888476273417
1776228792766791000,11.010791015625,-0.7894791565429419,-7.202263036140799,6.608670535770059
1776228792786641000,11.030640869140624,-0.7598278954491019,-7.793792174240946,5.903375902280211
1776228792806492000,11.050491943359376,-0.6221954945206641,-8.321127364850044,5.151901701417565
1776228792826343200,11.07034326171875,-0.28571082908008244,-8.739191448879241,4.440189017578959
1776228792846194400,11.0901943359375,0.3596150003330782,-8.989566724151372,3.902400529755652
1776228792866045400,11.11004541015625,1.1300228515833615,-9.041995415046811,3.624323885348439
1776228792885896400,11.129896484375,1.6973542447552084,-8.938896859622002,3.6586186613991853
1776228792905747500,11.14974755859375,1.8452552339807151,-8.766691450223327,3.9888030941843984
1776228792925597400,11.169597412109376,1.5909544558279216,-8.57477479366064,4.484696267825365
1776228792945448700,11.18944873046875,1.1277948002703486,-8.316256543943286,5.073298704823851
1776228792965299700,11.2092998046875,0.6201306709453464,-7.936087014022469,5.727506125155091
1776228792985150500,11.229150390625,0.13380682389144785,-7.40606886793971,6.426711209598183
1776228793005001500,11.24900146484375,-0.28006779995812103,-6.712755764144658,7.14358872885406
1776228793024852500,11.2688525390625,-0.5076210939008742,-5.910591240486502,7.808818478459119
1776228793044703500,11.288703369140626,-0.555606578184478,-5.183702030304074,8.306077095234393
1776228793064554500,11.308554443359375,-0.5534780782558023,-4.635822941099107,8.62399036772847
1776228793084404500,11.328404541015624,-0.5032589897012337,-4.2028994338512415,8.84605958597064
1776228793104255500,11.34825537109375,-0.3744896941861138,-3.8560561272099614,9.008938948619365
1776228793124106800,11.368106689453125,-0.25019401868740093,-3.57431190020591,9.128641432842612
1776228793143957500,11.38795751953125,-0.13856787341395393,-3.333330768483877,9.221718360468744
1776228793163808500,11.40780859375,0.029048178350867235,-3.2076769746407865,9.267164352869987
1776228793183659500,11.427659423828125,0.18334411332746967,-3.264138866575062,9.245656285417079
1776228793203510500,11.447510498046874,0.14660812727021985,-3.5143455072820187,9.15413886219263
1776228793223360500,11.467360595703125,-0.14980261246259324,-3.942906143145263,8.977831278172134
1776228793243211500,11.48721142578125,-0.6087100265363231,-4.4588852424815295,8.71310423694253
1776228793263062500,11.5070625,-1.0492322087522596,-4.968994280740619,8.389195523425936
1776228793282913500,11.52691357421875,-1.3085229772120714,-5.469939477074146,8.033549024865032
1776228793302764300,11.546764404296875,-1.3380163443304598,-6.03877630637288,7.610075775268673
1776228793322615600,11.566615478515626,-1.2172650086414067,-6.678857586196065,7.0768275612235065
1776228793342466600,11.586466552734375,-1.0220959992192684,-7.310469728359579,6.456218459111452
1776228793362316500,11.606316650390625,-0.8051497500140219,-7.887810182109475,5.771013258448243
1776228793382167600,11.62616748046875,-0.5910537026081234,-8.399191432261466,5.0273874329984185
1776228793402018600,11.6460185546875,-0.37101175240986045,-8.835715302088856,4.238260377828777
1776228793421869600,11.66586962890625,-0.08305628620814531,-9.178688197037577,3.45183644413799
1776228793441720600,11.685720458984376,0.36117066880986093,-9.409461530739069,2.73897575930804
1776228793461571300,11.7055712890625,0.9875563084967434,-9.50065571335852,2.220957993751019
1776228793481422300,11.72542236328125,1.6388023948043584,-9.443473105934261,2.074967806582898
1776228793501272300,11.745272216796875,2.0585135153882206,-9.288136413750053,2.379797141098231
1776228793521123600,11.76512353515625,2.144642669703066,-9.096815969514847,2.9696517701148983
1776228793540974600,11.784974609375,1.9974132961288094,-8.871144927388428,3.671993399018049
1776228793560825600,11.80482568359375,1.7176470911994575,-8.591420808035135,4.405400028270483
1776228793580676600,11.824676513671875,1.2810371505238114,-8.209628645348548,5.20877509676218
1776228793600527600,11.844527587890624,0.7435739491321146,-7.619400652974844,6.128805536866188
1776228793620378400,11.86437841796875,0.2874571978233754,-6.853610926511883,7.008264312607049
1776228793640229400,11.8842294921875,-0.02337479975641472,-6.104038175356388,7.67532069311738
1776228793660079400,11.904079345703124,-0.23731276367390527,-5.486585491448641,8.124742038440704
1776228793679930400,11.923930419921875,-0.33411271214485166,-4.919425070929527,8.476910047236084
1776228793699781400,11.943781494140625,-0.30154220260344444,-4.400390091153979,8.758767671486735
1776228793719632600,11.963632568359374,-0.2315358059739694,-4.015037021115422,8.944062864083051
1776228793739483600,11.983483642578125,-0.1714165605759248,-3.7485003001153467,9.060337711945175
1776228793759334700,12.003334716796875,-0.04964722978363279,-3.489565870812535,9.164653241944313
1776228793779185400,12.023185302734374,0.17483214117307214,-3.2466388657197354,9.251983150351046
1776228793799035600,12.04303564453125,0.4145851924048736,-3.122469465215504,9.287017054331303
1776228793818886400,12.062886474609375,0.5624907116750255,-3.1328751238957047,9.275724675944447
1776228793838737400,12.0827373046875,0.56767764932625,-3.2365804130420086,9.239735078674554
1776228793858588000,12.102587890625,0.44541379018239674,-3.382471816010773,9.194068136999011
1776228793878439000,12.12243896484375,0.27999389447169376,-3.5577333981096744,9.134248751330375
1776228793898290000,12.1422900390625,0.08411553120380268,-3.843415549084544,9.0217230268687
1776228793918141000,12.162140869140625,-0.16101174214594066,-4.25713721999526,8.832962788510322
1776228793937991000,12.181990966796874,-0.43564379905723033,-4.7593218949958676,8.563262050521374
1776228793957842000,12.201842041015626,-0.6588943360384554,-5.3108033926069735,8.217760513877868
1776228793977693000,12.22169287109375,-0.7362981129102408,-5.891542841145396,7.8049962898224585
1776228793997544000,12.2415439453125,-0.679392203535512,-6.537765692463517,7.277803722554445
1776228794017395000,12.26139501953125,-0.5488095019228756,-7.2088219562649725,6.625864247155189
1776228794037246000,12.281245849609375,-0.37998664763458073,-7.814529841843247,5.912621285009384
1776228794057097000,12.301096923828124,-0.14659009842318482,-8.3050793163687,5.212921110525727
1776228794076948000,12.320947998046876,0.16320221966123208,-8.641981951493024,4.632482983021438
1776228794096798000,12.3407978515625,0.49347285115886474,-8.821174735561012,4.256021367707849
1776228794116649000,12.36064892578125,0.7176514262378215,-8.853682920455933,4.155438302235305
1776228794136500000,12.3805,0.6841328221913426,-8.786443613919616,4.3012478721395135
1776228794156351000,12.40035107421875,0.4158654780063778,-8.643504046493769,4.613812184821069
1776228794176201700,12.42020166015625,0.046097903271601536,-8.388246844398974,5.079919584268331
1776228794196052700,12.440052734375,-0.25364101733611893,-7.973076143723726,5.704044585546851
1776228794215904000,12.459904052734375,-0.35225364125221964,-7.413430921140312,6.409942445626855
1776228794235755000,12.479755126953124,-0.26974505205471067,-6.807291073885559,7.0539645720303055
1776228794255605000,12.49960498046875,-0.20465464891428126,-6.20190993604362,7.593736050364375
1776228794275456000,12.5194560546875,-0.28086519741350785,-5.579115891107916,8.060084565091133
1776228794295307000,12.53930712890625,-0.39679114050641656,-4.898983171403407,8.486042617240548
1776228794315158000,12.559157958984375,-0.37634471093565225,-4.2796965500667685,8.815494936358927
1776228794335008800,12.5790087890625,-0.19737192629389463,-3.869218098860979,9.008914983221889
1776228794354859800,12.59885986328125,0.04000147695948835,-3.606077157779038,9.119484312918782
1776228794374710800,12.618710693359375,0.2721418475307524,-3.3236987245246765,9.222219295728205
1776228794394560800,12.638560791015625,0.5420074572252109,-2.9750676576837893,9.328749579167365
1776228794414412000,12.658412109375,0.9326345586765556,-2.6276751927271484,9.401907754358648
1776228794434263000,12.678262939453125,1.3199613399408756,-2.381494300404936,9.421071304512024
1776228794454114000,12.698114013671875,1.391647981274873,-2.3425170656263825,9.420527699154615
1776228794473965000,12.717965087890626,1.0579255836218595,-2.507153501075506,9.421536583936215
1776228794493815800,12.73781591796875,0.530358885811828,-2.747827174283564,9.398859472703933
1776228794513666800,12.757666748046875,0.03847450485422741,-3.017472967214882,9.330797159346938
1776228794533517800,12.777517822265626,-0.3069688672946766,-3.3637641929313538,9.206588011354208
1776228794553367800,12.797367919921875,-0.535714092702046,-3.8192946687847376,9.016451808467506
1776228794573218800,12.81721875,-0.6650679101068526,-4.371951347655058,8.752948171553015
1776228794593069800,12.83706982421875,-0.6358376509040594,-4.99901883212626,8.412840602907538
1776228794612921000,12.856921142578125,-0.44749790298007425,-5.713175401985645,7.958001324188709
1776228794632772000,12.876772216796875,-0.15737333084465935,-6.4713482237041,7.3666311760425565
1776228794652622800,12.896622802734376,0.12766963631068357,-7.204833178889751,6.651651599362492
1776228794672473900,12.916473876953125,0.3575664703054353,-7.847638915240764,5.870017238035798
1776228794692323800,12.93632373046875,0.5158802786042913,-8.352853459456563,5.112152459353208
1776228794712174800,12.9561748046875,0.626235417561233,-8.688067410841583,4.505078546118736
1776228794732025900,12.97602587890625,0.7208220921631902,-8.873028256917,4.113414100976288
1776228794751876900,12.995876953125,0.7566239848412573,-8.939708176004887,3.959739789046347
1776228794771728000,13.015727783203126,0.6669511665701866,-8.917413926610351,4.025580334700644
1776228794791579100,13.0355791015625,0.4462682515872642,-8.776040877848864,4.353426679927111
1776228794811430000,13.055429931640624,0.19982357549602164,-8.454021923601626,4.965881701678037
1776228794831281000,13.075281005859376,0.06776488304669037,-7.962087132197618,5.724595206144452
1776228794851131400,13.09513134765625,0.057900957427220415,-7.388269007354975,6.44829526489675
1776228794870982400,13.114982421875,0.02533148449885193,-6.811147164791822,7.055353396040201
1776228794890833400,13.13483349609375,-0.107404892582912,-6.1791813868850465,7.6142346485137935
1776228794910684400,13.154684326171875,-0.26938200916228816,-5.487296854588389,8.123263198059798
1776228794930535400,13.174535400390624,-0.3526635737599805,-4.876818978129327,8.500743342766166
1776228794950386200,13.19438623046875,-0.35482433199044316,-4.464078719471395,8.724475525784491
1776228794970237200,13.2142373046875,-0.3259218799699098,-4.121623126395047,8.892490497756004
1776228794990088200,13.234088134765624,-0.35749702179841697,-3.7824154291987417,9.040791299954057
1776228795009938200,13.253938232421875,-0.4558496613377705,-3.455673245821893,9.166291072279215
1776228795029789200,13.2737890625,-0.49847588361054657,-3.1237732412904498,9.28245252289474
1776228795049640400,13.293640380859374,-0.3740540792478248,-2.7678283443048595,9.400510747042297
1776228795069491500,13.313491455078125,-0.17346123641235753,-2.43915811547488,9.496885547170043
1776228795089342500,13.333342529296875,-0.18989766315678133,-2.246605645226687,9.543955925902724
1776228795109193200,13.353193115234374,-0.5221827762819826,-2.204360640823841,9.541410917595028
1776228795129044200,13.373044189453125,-0.9776532655764371,-2.2503335797086357,9.49476607079804
1776228795148894200,13.392894287109375,-1.3679311517313122,-2.395929360731691,9.410562769979238
1776228795168745200,13.4127451171875,-1.623883058091998,-2.6919650018081067,9.289064634510874
1776228795188596200,13.43259619140625,-1.7701969242565332,-3.1552269486963747,9.11489698512852
1776228795208447200,13.452447265625,-1.8761996766902505,-3.7413793621942397,8.868615116649865
1776228795228298500,13.472298583984376,-1.9593878091171382,-4.414306972825527,8.534932612615822
1776228795248149500,13.4921494140625,-1.9245503044918177,-5.161641005143523,8.113197146597503
1776228795268000300,13.512000244140625,-1.66653693555668,-5.93513882176578,7.626741078865527
1776228795287851300,13.531851318359376,-1.2349066829897462,-6.698796212375163,7.054892208269238
1776228795307701200,13.551701171875,-0.775320721200481,-7.370026079177856,6.4227697784960265
1776228795327552300,13.57155224609375,-0.40453119670655574,-7.889537444293499,5.81050121922791
1776228795347403300,13.5914033203125,-0.15586939255511387,-8.230675525030493,5.329360209038853
1776228795367254300,13.611254150390625,0.01563184948793496,-8.374469078937173,5.102783742505312
1776228795387105300,13.631105224609374,0.08406099713812581,-8.332562366577982,5.170274977976083
1776228795406956500,13.65095654296875,-0.0062935820064070865,-8.171673885485529,5.421629911935329
1776228795426807300,13.670807373046875,-0.252510186675284,-7.930816964665055,5.762706033352017
1776228795446658300,13.690658203125,-0.5924585279047488,-7.597154334375261,6.172730603310465
1776228795466508300,13.71050830078125,-0.9226483675174415,-7.144105446204542,6.654385992762446
1776228795486359300,13.730359375,-1.126410360174626,-6.5420730342686175,7.218231005123257
1776228795506210300,13.750210205078124,-1.0840106036014854,-5.777838720554113,7.849323507326841
1776228795526061300,13.770061279296876,-0.7761979424264281,-4.992027365803718,8.40521025415957
1776228795545912300,13.789912353515625,-0.47650914913732556,-4.406713741217553,8.74781197770834
1776228795565763300,13.809763427734374,-0.358783517944999,-4.024878616172075,8.935435905513167
1776228795585614000,13.829614013671875,-0.3058240263747983,-3.704211368794739,9.075002197113633
1776228795605464300,13.84946435546875,-0.16743603957239536,-3.423083812384307,9.188298321425915
1776228795625315300,13.8693154296875,0.12248365764068439,-3.1434985169798133,9.288368468940257
1776228795645166300,13.889166259765625,0.5128766763415187,-2.7932033163189884,9.386446565854548
1776228795665017300,13.909017333984375,0.9117513451237231,-2.359672490827739,9.474759055557847
1776228795684868400,13.928868408203124,1.2215689894456416,-1.9632227111048994,9.530158871218562
1776228795704719400,13.94871923828125,1.37776821674332,-1.7679110052764415,9.547074350184202
1776228795724570400,13.9685703125,1.2999720064878464,-1.7509443806454539,9.561100537449121
1776228795744421000,13.988421142578124,1.024417135643214,-1.7687872035890817,9.591262451478839
1776228795764271400,14.008271240234375,0.7144825869433581,-1.7987835517935453,9.613754853793978
1776228795784122000,14.0281220703125,0.4803241408482194,-1.9069138177752494,9.607463644695281
1776228795803973400,14.047973388671876,0.3066259721411392,-2.17112341100201,9.558377249965071
1776228795823824400,14.067824462890625,0.14362163140587508,-2.626474877026677,9.447295294570923
1776228795843675400,14.08767529296875,-0.03154122585917357,-3.2386656948834656,9.256372909742593
1776228795863526400,14.1075263671875,-0.17666644392814487,-3.9669823075205084,8.966728284877538
1776228795883377700,14.127377685546875,-0.24200170694142578,-4.773633621203899,8.562956345573067
1776228795903228400,14.147228515625,-0.24301362393032758,-5.616211988314986,8.035513018414377
1776228795923078700,14.16707861328125,-0.1940061213889159,-6.424861197817325,7.406342424184084
1776228795942929400,14.186929443359375,-0.14161708665043116,-7.157055528670549,6.702751087480783
1776228795962780400,14.206780517578125,-0.08521898066736758,-7.754289015892147,6.002842823204398
1776228795982631400,14.22663134765625,0.07099058536123484,-8.127317441886664,5.487447076714038
1776228796002482400,14.246482421875,0.32921208062171936,-8.263051023456454,5.2710535660207265
1776228796022333400,14.26633349609375,0.5271592495203018,-8.225121398034691,5.314119969809055
1776228796042184400,14.286184326171876,0.5375766351709143,-8.105413068592547,5.493967418393493
1776228796062035500,14.306035400390625,0.3159841310624033,-7.918727882942557,5.776182185518741
1776228796081885400,14.325885498046874,-0.10844072017036378,-7.599961208489537,6.1967111983567476
1776228796101736400,14.345736328125,-0.6119052058484404,-7.1046163163810965,6.732044401982426
1776228796121587500,14.36558740234375,-1.0153199292130768,-6.494940696215629,7.277036829835176
1776228796141438500,14.3854384765625,-1.218731427932158,-5.878541320753097,7.754213028046489
1776228796161289500,14.40528955078125,-1.284637513103336,-5.331598343354464,8.129830886012316
1776228796181140500,14.425140380859375,-1.3316538235612212,-4.85110556794107,8.418067397645116
1776228796200991500,14.444991455078124,-1.3390161690227687,-4.395193107032775,8.66370103134811
1776228796220842200,14.46484228515625,-1.2056388682555406,-3.9887344128623603,8.877320985674858
1776228796240692500,14.4846923828125,-0.9065492464359849,-3.605843641284108,9.074494832113384
1776228796260543200,14.504543212890624,-0.542904077271372,-3.1660479101791976,9.265622968646884
1776228796280394500,14.52439453125,-0.21417616343740373,-2.663085528804362,9.435702471932768
1776228796300245500,14.54424560546875,-0.02545962037356803,-2.233710069426894,9.548834930115937
1776228796320096500,14.564096435546874,-0.06647004376344848,-2.036700912030786,9.592590485212206
1776228796339947500,14.583947509765625,-0.2762914962898008,-2.0484923259809613,9.586330255773664
1776228796359798500,14.603798583984375,-0.5349817963721231,-2.1814866918452083,9.545956744331122
1776228796379649300,14.623649169921874,-0.7589541813544929,-2.425513328742981,9.471603221875428
1776228796399499500,14.64349951171875,-0.952126171740517,-2.8068033871263265,9.348032371786235
1776228796419350300,14.663350341796875,-1.1481377694666386,-3.3532904374510046,9.143719759508967
1776228796439201300,14.683201171875,-1.3353323659434915,-4.0388007585406305,8.83602685225606
1776228796459052500,14.703052490234375,-1.443442027528584,-4.789143032763898,8.435103872641921
1776228796478903600,14.722903564453125,-1.4134410031490028,-5.570246355953812,7.946377521890401
1776228796498754600,14.742754638671874,-1.2430375286057591,-6.3553101072072975,7.364459092700481
1776228796518605600,14.76260546875,-0.9756744397841394,-7.098056227213144,6.695972387126088
1776228796538455600,14.78245556640625,-0.6647160279292613,-7.761473958960175,5.9571864029228685
1776228796558306600,14.802306640625,-0.35883649024125186,-8.27262549200952,5.254073789647221
1776228796578157300,14.8221572265625,-0.0688347590342164,-8.579397777286172,4.74969365042895
1776228796598008300,14.84200830078125,0.2795988490058109,-8.659021349099278,4.594947909875214
1776228796617859300,14.861859375,0.653545595421642,-8.521878485253453,4.808415888510644
1776228796637710300,14.88171044921875,0.9559340395908802,-8.218922543394566,5.263639490371943
1776228796657561600,14.9015615234375,1.103528008693829,-7.813779315736889,5.822153078576922
1776228796677412600,14.92141259765625,1.0175991261914372,-7.3280375337541095,6.4369824282437555
1776228796697263400,14.941263427734375,0.6651929247260093,-6.715754945960641,7.115231818419694
1776228796717113600,14.961113525390624,0.1834326683937572,-5.920992807513475,7.815280367949605
1776228796736964400,14.98096435546875,-0.19719702638471498,-5.009257902067899,8.428453767102956
1776228796756815400,15.0008154296875,-0.34974092777892946,-4.211038901165128,8.849589513662456
1776228796776666400,15.020666259765624,-0.35637353419382123,-3.670618895794451,9.086800186935067
1776228796796517400,15.040517333984376,-0.2907484031221829,-3.275746594521403,9.238795751997827
1776228796816368400,15.060368408203125,-0.13665182892587036,-2.906321161454916,9.365095734789968
1776228796836219600,15.0802197265625,0.09982660281574353,-2.5625080162897707,9.46540962793231
1776228796856070400,15.1000703125,0.4254147390529513,-2.226053563324362,9.541177693361043
1776228796875920600,15.119920654296875,0.7469191679067909,-1.8414521884359418,9.603204818207026
1776228796895771400,15.139771484375,0.9378528047814965,-1.4551010472707449,9.652643679636716
1776228796915622400,15.159622314453125,0.9778770643949508,-1.2784149853266775,9.673664840355515
1776228796935473400,15.179473388671875,0.8617289847176521,-1.427413122139126,9.663867084440588
1776228796955324400,15.199324462890624,0.6413873939856887,-1.7483204618826507,9.628208326560259
1776228796975175700,15.21917578125,0.4012858581097796,-2.1763965290993452,9.553673602318764
1776228796995026700,15.239026611328125,0.16326962234163656,-2.761098451527953,9.408510513624549
1776228797014876700,15.258876708984374,-0.06732088387254626,-3.4941584592998027,9.162789201638102
1776228797034727700,15.278727783203125,-0.25047376721054315,-4.309618225599825,8.805386799320578
1776228797054578400,15.298578369140625,-0.29075159972626713,-5.1315077326864005,8.351855680590868
1776228797074429400,15.318429443359374,-0.13882036860398947,-5.9200125643044705,7.8169398255944245
1776228797094280400,15.338280517578125,0.14557545062107966,-6.67017568256855,7.187345452994108
1776228797114131500,15.35813134765625,0.45553606534395363,-7.388989722844958,6.431615348252654
1776228797133982500,15.377982421875,0.7581236488144845,-8.016853326129914,5.596935625436902
1776228797153833700,15.397833740234375,1.0564094069052488,-8.4250506806612,4.906415951752662
1776228797173684500,15.4176845703125,1.349069653264433,-8.573850080031155,4.565031495039165
1776228797193534700,15.43753466796875,1.604363826368749,-8.499208388283849,4.621671081627905
1776228797213385500,15.457385498046875,1.7433289372056722,-8.273201246070862,4.968433724248409
1776228797233236500,15.477236572265625,1.762844661797583,-7.9588921355485915,5.451495473366975
1776228797253087500,15.49708740234375,1.67970387564376,-7.56946319437325,6.004350889679789
1776228797272938500,15.5169384765625,1.4932761718861758,-7.085464456665515,6.613373598894476
1776228797292789500,15.53678955078125,1.191947319772467,-6.502015164646506,7.2438576138108965
1776228797312640500,15.556640625,0.8039702579058706,-5.836290325000882,7.839754883992671
1776228797332491500,15.576491455078125,0.48246677890010176,-5.116351080086827,8.352278874439001
1776228797352341500,15.596341552734375,0.336126061261259,-4.453798440736532,8.730467459675669
1776228797372192500,15.616192626953126,0.34066487373467536,-3.9339322708338496,8.9765523442775
1776228797392043500,15.63604345703125,0.45847865813449024,-3.499463872231543,9.14953224518001
1776228797411894500,15.65589453125,0.6386841263763606,-3.096116880340874,9.283131737330555
1776228797431745500,15.67574560546875,0.874516716228798,-2.687758490028977,9.390502563247084
1776228797451596500,15.695596435546875,1.218642288343981,-2.3070530996657905,9.453191366872192
1776228797471447600,15.715447509765625,1.6281280021853743,-2.0333429799050093,9.454370932045578
1776228797491298600,15.735298583984376,1.9679614300645887,-1.8894526876255868,9.41952816672325
1776228797511148500,15.7551484375,2.1089994016528126,-1.8487588581874965,9.397052131021022
1776228797530999300,15.774999267578124,2.005835233645886,-1.9116893616139887,9.407043363681435
1776228797550850600,15.7948505859375,1.6804630234479903,-2.105298793569207,9.429429383012652
1776228797570701600,15.81470166015625,1.2612607291691005,-2.4379703669950366,9.414665529122948
1776228797590552600,15.834552490234374,0.8687432473938912,-2.8875536248818037,9.331544762843846
1776228797610403600,15.854403564453126,0.5547749496659263,-3.4466344915807245,9.164240569490193
1776228797630254600,15.874254638671875,0.3420943950811401,-4.080068003952503,8.911026855921746
1776228797650105600,15.894105712890624,0.24884965487373992,-4.755356206235289,8.572925366401671
1776228797669955600,15.91395556640625,0.286575026427675,-5.456655048087239,8.14328891800046
1776228797689806300,15.933806396484375,0.43037232492771,-6.167977271303534,7.611914681133627
1776228797709657300,15.9536572265625,0.6423618650410324,-6.860542187079787,6.977875019562244
1776228797729508600,15.973508544921875,0.9126299545891582,-7.491128493326902,6.2626289009004825
1776228797749359600,15.993359619140625,1.1979401304464787,-7.965681941819191,5.593141493850946
1776228797769210600,16.013210693359376,1.4427021689467132,-8.247339075061678,5.10592028696537
1776228797789061600,16.0330615234375,1.6444817556150257,-8.35080938640833,4.871350483590364
1776228797808912600,16.05291259765625,1.7285731204919517,-8.332122806116939,4.874234222333133
1776228797828762600,16.0727626953125,1.6685428685516117,-8.237793248081207,5.052237796616554
1776228797848613000,16.092613037109373,1.5109702340088784,-8.068290083378553,5.365635637512803
1776228797868463900,16.1124638671875,1.3257671036101877,-7.809418197917938,5.781495489495993
1776228797888315000,16.13231494140625,1.1500781629446892,-7.463681683474778,6.256290345528721
1776228797908166000,16.152165771484373,0.9593582418859005,-7.059070370736718,6.739402363529801
1776228797928017000,16.172016845703126,0.7185707330398261,-6.657845777827501,7.164294832274317
1776228797947868000,16.191867919921876,0.42286399512421335,-6.277765679755807,7.522049701291322
1776228797967719000,16.211718994140625,0.08534584931689314,-5.891900568541884,7.838916679602861
1776228797987569000,16.23156884765625,-0.21960565940653903,-5.477907679474353,8.131095206859708
1776228798007420200,16.251420166015624,-0.3595032470542937,-5.0403585582524535,8.40451876476407
1776228798027271000,16.27127099609375,-0.29735678841127083,-4.580654011584818,8.666002294027805
1776228798047122000,16.291121826171874,-0.04535221317056566,-4.072799181993306,8.920797139307856
1776228798066973000,16.310972900390624,0.3095536961561069,-3.573526302786171,9.127127521148324
1776228798086824000,16.330823974609373,0.5816990142855792,-3.1267168935269116,9.276617240869998
1776228798106675000,16.350675048828126,0.7221460342433303,-2.7639447808697817,9.381338429060579
1776228798126526000,16.37052587890625,0.7861203476343304,-2.572585758189857,9.430494381895661
1776228798146376000,16.3903759765625,0.7601281205046921,-2.5479808937653896,9.43929903512001
1776228798166227000,16.41022705078125,0.6169262488808482,-2.6722189755916594,9.415361694693566
1776228798186078000,16.430077880859375,0.40024767416846,-2.991790244425833,9.330562766069173
1776228798205929000,16.449928955078125,0.20880718375016002,-3.540774956785142,9.142740685343743
1776228798225780000,16.469780029296874,0.10947420053710229,-4.292880441288649,8.816439523732662
1776228798245631000,16.489630859375,0.10928543649935163,-5.124882761588692,8.360264612495898
1776228798265482000,16.50948193359375,0.13200560142206957,-5.953113454395532,7.7918813721835605
1776228798285333000,16.5293330078125,0.08360135287027806,-6.747643537652492,7.115664949139952
1776228798305183000,16.549182861328124,-0.03393461695186561,-7.492510303074121,6.327046135753393
1776228798325034000,16.569033935546877,-0.1942312901806086,-8.157024597886204,5.44018497480154
1776228798344885000,16.588885009765626,-0.3462042415527627,-8.67899095493853,4.552543477126956
1776228798364735700,16.60873583984375,-0.41080859647560863,-9.009894057387113,3.850122645507753
1776228798384587000,16.6285869140625,-0.4414920501613989,-9.164922122013568,3.4611659980192777
1776228798404438000,16.64843798828125,-0.6130127286989242,-9.213519856444,3.302367767204344
1776228798424289000,16.6682890625,-1.0851602850932627,-9.217592220449447,3.1668270778581498
1776228798444140000,16.68814013671875,-1.9277916245006024,-9.145543467804789,2.9686802947342392
1776228798463990000,16.707989990234374,-3.050349693161249,-8.915114417496323,2.71780788359493
1776228798483841000,16.727841064453123,-4.24239411663264,-8.48975082410872,2.469131813456118
1776228798503692000,16.747692138671876,-5.360395983293652,-7.890207890900969,2.2762159167230127
1776228798523542800,16.767542724609374,-6.357210972392559,-7.153603926911949,2.1406113683603705
1776228798543393800,16.787393798828123,-7.1995654676198955,-6.331847983077168,2.0601818869918582
1776228798563245000,16.8072451171875,-7.896343617177009,-5.496794166252017,1.898259825067967
1776228798583096000,16.827095947265626,-8.438495268645882,-4.693401269842684,1.7129400825522838
1776228798602947000,16.846947021484375,-8.819525799310206,-3.976613474696874,1.604023488498479
1776228798622797000,16.866797119140625,-9.028180240184069,-3.4732539106979963,1.6120960280559955
1776228798642648000,16.88664794921875,-9.120925743898749,-3.267552182149887,1.5173007522046564
1776228798662499000,16.9064990234375,-9.128390088430047,-3.3346132095098495,1.3127213056847453
1776228798682349800,16.926349853515624,-9.086201051998138,-3.532932718852162,1.0628826945725829
1776228798702200800,16.946200927734374,-9.082273649421333,-3.589589841097593,0.8930455486752092
1776228798722051800,16.9660517578125,-9.094460346299408,-3.584504208396375,0.7826281216043979
1776228798741902800,16.98590283203125,-9.134818660172819,-3.45860696118623,0.8737892056718468
1776228798761754000,17.005754150390626,-9.186561706891656,-3.2113585857629774,1.2102259037848562
1776228798781604000,17.02560400390625,-9.243387171441316,-2.9044150355726477,1.5147759099021554
1776228798801455000,17.045455078125,-9.293445626074075,-2.706395678220689,1.5740639651730655
1776228798821306000,17.06530615234375,-9.330690776363015,-2.709317995408177,1.3297342536754906
1776228798841156900,17.085156982421875,-9.335317851641774,-2.841918247388303,0.9724841193102299
1776228798861008000,17.1050078125,-9.28905352859497,-2.9737285180345174,1.020198714230582
1776228798880859100,17.124859130859374,-9.213011906921864,-3.1326667418420313,1.215400822204724
1776228798900710100,17.144710205078123,-9.136263013762235,-3.3158190771907567,1.3055388468347489
1776228798920561200,17.16456103515625,-9.068804511517286,-3.4729140112191437,1.366030140415579
1776228798940412200,17.184412109375,-9.012353140977025,-3.6005180623471733,1.408597800901532
1776228798960262100,17.20426220703125,-8.956974952626227,-3.711924719651043,1.4712589858673513
1776228798980113200,17.224113037109376,-8.901410301792621,-3.813487443810701,1.5467995261505245
1776228798999964000,17.2439638671875,-8.858813269081711,-3.8908769729614257,1.5977771414548159
1776228799019815000,17.26381494140625,-8.848474245896934,-3.895808876405656,1.6424264305204153
1776228799039666000,17.283666015625,-8.905615936788916,-3.8139498006254433,1.5212429139591752
1776228799059517200,17.30351708984375,-9.02194806779623,-3.6132983412042257,1.311073976869136
1776228799079368200,17.3233681640625,-9.157521490368246,-3.370207377721369,0.975647259516269
1776228799099218200,17.34321826171875,-9.24912542283237,-3.2048180780783295,0.5943091607401148
1776228799119069200,17.363069091796874,-9.286046163472532,-3.1358532629236575,0.3258080443318933
1776228799138920200,17.382920166015627,-9.293236367237567,-3.127301415416598,0.16164167407993227
1776228799158771000,17.40277099609375,-9.303426337340474,-3.1002976731568572,0.0692152782178251
1776228799178622000,17.4226220703125,-9.319431131201982,-3.0525524639025328,0.022535193427384363
1776228799198473000,17.442472900390626,-9.335653951728343,-3.002650368875265,-0.006582939178933156
1776228799218324000,17.462323974609376,-9.348575977143645,-2.9619118235126134,-0.03984691201886162
1776228799238175000,17.482175048828125,-9.355147172227502,-2.9411840927824375,-0.03228105932486942
1776228799258025000,17.50202490234375,-9.361543010744452,-2.9208140894487498,0.027209811342030297
1776228799277876200,17.521876220703124,-9.376278223061561,-2.869595066604018,0.1456413919967599
1776228799297727200,17.541727294921873,-9.386584513020514,-2.8236773650377986,0.2987650660403073
