time,seconds_elapsed,z,y,x
1776228781828983000,0.072983154296875,0.07090547680854797,0.2578331232070923,1.5533485412597656
1776228781848834000,0.092833984375,0.36544081568717957,0.2584376633167267,1.000806450843811
1776228781868684000,0.11268408203125,0.8210746049880981,1.160893440246582,0.43364039063453674
1776228781888535000,0.13253515625,1.1586265563964844,1.232530951499939,-0.08374013006687164
1776228781908386000,0.152385986328125,0.9547141194343567,0.7788723707199097,-0.3776457905769348
1776228781928237000,0.172237060546875,0.38570675253868103,-0.11878740787506104,-0.4003637731075287
1776228781948087000,0.192087158203125,-0.011456997133791447,0.03996043652296066,-0.2646220624446869
1776228781967938300,0.211938232421875,-0.10250294208526611,0.6514411568641663,-0.027120491489768028
1776228781987789000,0.2317890625,-0.003030724823474884,0.8642500638961792,0.16853153705596924
1776228782007640000,0.25164013671875,0.0026955928187817335,1.3137335777282715,-0.014538686722517014
1776228782027491000,0.271490966796875,-0.028142767027020454,0.8214789032936096,-0.7507006525993347
1776228782047341000,0.291341064453125,0.051855187863111496,0.8819781541824341,-1.4118773937225342
1776228782067192000,0.311192138671875,0.010475005023181438,1.2626453638076782,-1.6311091184616089
1776228782087043000,0.33104296875,-0.05436747521162033,1.2446818351745605,-1.4325116872787476
1776228782106894000,0.35089404296875,0.0728725716471672,1.3729928731918335,-1.1914689540863037
1776228782126745000,0.3707451171875,-0.14379362761974335,2.427993059158325,-0.95147305727005
1776228782146595000,0.390594970703125,-0.5758753418922424,3.034165382385254,-0.44462645053863525
1776228782166446000,0.410446044921875,-0.5520177483558655,3.1905341148376465,0.11831541359424591
1776228782186297000,0.430297119140625,-0.26927733421325684,2.5219380855560303,0.35419055819511414
1776228782206148000,0.450148193359375,-0.44072893261909485,2.453209638595581,0.689241886138916
1776228782225998000,0.469998046875,-0.5930933356285095,1.7369111776351929,1.219175100326538
1776228782245849000,0.48984912109375,-0.7952688336372375,0.9244218468666077,1.5188850164413452
1776228782265700000,0.5097001953125,-0.7389770746231079,0.44435611367225647,1.522335410118103
1776228782285551000,0.529551025390625,-0.5242296457290649,-0.7088983058929443,1.652356743812561
1776228782305402000,0.549402099609375,-0.3424270451068878,-2.2159013748168945,1.9903738498687744
1776228782325252000,0.569252197265625,-0.2706751823425293,-3.341773748397827,2.662846326828003
1776228782345103000,0.58910302734375,-0.25597769021987915,-3.483975887298584,3.4142889976501465
1776228782364954000,0.6089541015625,-0.45536547899246216,-3.249469757080078,3.8629865646362305
1776228782384804900,0.628804931640625,-0.6417945623397827,-2.9784207344055176,4.135110855102539
1776228782404656000,0.64865625,-0.6147947311401367,-2.1221349239349365,4.09556770324707
1776228782424506000,0.668506103515625,-0.4724438488483429,-0.7374181747436523,3.817638635635376
1776228782444357000,0.688357177734375,-0.3843379318714142,0.6676150560379028,3.22078275680542
1776228782464208100,0.7082080078125,-0.2845779359340668,1.5409421920776367,2.196357488632202
1776228782484059100,0.72805908203125,-0.333642840385437,1.6019185781478882,1.065577745437622
1776228782503910100,0.74791015625,-0.5460779666900635,1.3917006254196167,0.3248503506183624
1776228782523760000,0.767760009765625,-0.9175394177436829,0.8963568806648254,0.030076252296566963
1776228782543611100,0.787611083984375,-1.3883123397827148,0.5061907172203064,0.05684942752122879
1776228782563462100,0.807462158203125,-1.6238040924072266,1.00969398021698,-0.24798603355884552
1776228782583313000,0.82731298828125,-1.6212894916534424,2.157602548599243,-0.777825653553009
1776228782603164000,0.847163818359375,-1.600452184677124,2.892179489135742,-1.3950848579406738
1776228782623014000,0.867013916015625,-1.4596179723739624,2.6426336765289307,-2.184553384780884
1776228782642865200,0.886865234375,-1.2469443082809448,2.0682284832000732,-2.792038917541504
1776228782662716200,0.906716064453125,-1.2869478464126587,2.695439577102661,-3.172402858734131
1776228782682567200,0.926567138671875,-1.5256797075271606,3.3668386936187744,-3.468867301940918
1776228782702418200,0.946418212890625,-1.5587159395217896,2.74751615524292,-3.8085238933563232
1776228782722268200,0.96626806640625,-1.1957570314407349,2.498377799987793,-3.450923204421997
1776228782742119200,0.986119140625,-0.88064044713974,3.048323154449463,-2.095311403274536
1776228782761970000,1.005969970703125,-0.5887048840522766,3.022233247756958,-0.8813489079475403
1776228782781821000,1.025821044921875,-0.4886205196380615,2.576505661010742,-0.47532278299331665
1776228782801672000,1.045671875,-0.31931549310684204,1.731872797012329,-0.3636898398399353
1776228782821522000,1.06552197265625,0.1611454039812088,0.9564723372459412,0.6112348437309265
1776228782841373000,1.085373046875,0.7811785936355591,0.088192418217659,2.474025011062622
1776228782861224000,1.105223876953125,1.6631616353988647,-0.8051820397377014,3.5235860347747803
1776228782881075000,1.125074951171875,2.745816707611084,-1.5711569786071777,3.710839033126831
1776228782900925000,1.144925048828125,3.6528759002685547,-2.1256861686706543,3.5059444904327393
1776228782920776000,1.16477587890625,4.104137897491455,-2.6534037590026855,3.1259653568267822
1776228782940627000,1.184626953125,4.159097671508789,-3.0486130714416504,2.8596842288970947
1776228782960478000,1.20447802734375,4.145488739013672,-2.978154182434082,3.049294948577881
1776228782980328700,1.22432861328125,4.178438663482666,-2.685840129852295,3.5046868324279785
1776228783000180000,1.244179931640625,3.8847899436950684,-2.1865363121032715,3.735255479812622
1776228783020030000,1.264030029296875,3.018350601196289,-1.4050977230072021,3.2211766242980957
1776228783039881000,1.283880859375,1.7940645217895508,-0.9960827827453613,2.155522346496582
1776228783059732000,1.30373193359375,0.43332716822624207,-0.7382419109344482,1.044623613357544
1776228783079583000,1.3235830078125,-0.5849964618682861,-0.31959590315818787,0.16885338723659515
1776228783099434000,1.34343408203125,-1.3442469835281372,0.08788159489631653,-0.5875171422958374
1776228783119284000,1.363283935546875,-2.194300651550293,0.48830729722976685,-1.4115811586380005
1776228783139135000,1.383135009765625,-3.464822292327881,1.3626737594604492,-2.1740541458129883
1776228783158985700,1.40298583984375,-4.6666412353515625,2.543224573135376,-2.625852108001709
1776228783178836700,1.422836669921875,-4.721938610076904,2.7494049072265625,-2.7246835231781006
1776228783198687700,1.442687744140625,-4.083493232727051,2.3233401775360107,-3.002283811569214
1776228783218537700,1.462537841796875,-3.4553067684173584,2.2777187824249268,-3.2848994731903076
1776228783238389000,1.482388916015625,-2.7082724571228027,2.0779330730438232,-3.3541550636291504
1776228783258240000,1.502239990234375,-1.8543684482574463,1.7291719913482666,-3.320666790008545
1776228783278091000,1.522091064453125,-1.358717918395996,1.7036229372024536,-3.2110562324523926
1776228783297942000,1.54194189453125,-1.3208239078521729,1.930030345916748,-3.1037042140960693
1776228783317792000,1.5617919921875,-1.278639316558838,2.245896577835083,-2.718966007232666
1776228783337643000,1.58164306640625,-0.7524242997169495,2.062981605529785,-2.0719401836395264
1776228783357493800,1.60149365234375,-0.06499967724084854,1.5419974327087402,-1.7877559661865234
1776228783377344800,1.6213447265625,0.5469245910644531,0.8194950819015503,-1.8759236335754395
1776228783397195800,1.64119580078125,1.0599253177642822,-0.04219067841768265,-2.3328170776367188
1776228783417045800,1.661045654296875,1.5184398889541626,-0.9754350185394287,-2.7779314517974854
1776228783436896800,1.680896728515625,1.8975995779037476,-1.9861366748809814,-2.455425262451172
1776228783456748000,1.700748046875,2.114746332168579,-2.9409337043762207,-1.2945342063903809
1776228783476599000,1.72059912109375,2.0528008937835693,-4.092883586883545,-0.03855360671877861
1776228783496450000,1.740449951171875,1.5481975078582764,-4.046237468719482,0.671011745929718
1776228783516300800,1.76030078125,1.6333584785461426,-3.1648495197296143,1.526633858680725
1776228783536151000,1.780151123046875,1.7985819578170776,-2.8926610946655273,2.9993736743927
1776228783556001800,1.800001708984375,1.7648528814315796,-3.5640227794647217,4.0960917472839355
1776228783575852800,1.819852783203125,1.94798743724823,-3.7513468265533447,4.033476829528809
1776228783595703800,1.839703857421875,1.9322172403335571,-3.6084537506103516,3.5285654067993164
1776228783615554800,1.859554931640625,1.6358367204666138,-3.5106723308563232,3.094050407409668
1776228783635404800,1.87940478515625,1.0447684526443481,-3.2701079845428467,2.7161378860473633
1776228783655255800,1.899255859375,-0.0792953222990036,-2.6479787826538086,2.5899527072906494
1776228783675107000,1.919107177734375,-1.1862250566482544,-1.1347525119781494,2.7976651191711426
1776228783694958000,1.9389580078125,-1.5841995477676392,-0.47271305322647095,2.4002692699432373
1776228783714808800,1.958808837890625,-2.323913097381592,0.07917118072509766,0.5264531373977661
1776228783734659000,1.9786591796875,-3.1533472537994385,0.9802889823913574,-0.9672678709030151
1776228783754509800,1.998509765625,-3.1034910678863525,1.8408266305923462,-1.2216949462890625
1776228783774360800,2.01836083984375,-3.114833116531372,2.364943504333496,-2.1338136196136475
1776228783794211800,2.0382119140625,-3.4392359256744385,2.200579881668091,-3.767782211303711
1776228783814062800,2.058062744140625,-3.0313570499420166,1.6971935033798218,-4.708105087280273
1776228783833914000,2.0779140625,-2.108795642852783,1.3103572130203247,-4.661622524261475
1776228783853764000,2.09776416015625,-1.3225759267807007,1.3521485328674316,-4.140683650970459
1776228783873615000,2.117614990234375,-0.868145227432251,1.6340351104736328,-3.5120413303375244
1776228783893466000,2.137466064453125,-0.47821199893951416,1.7079952955245972,-3.1413187980651855
1776228783913316900,2.15731689453125,-0.5175702571868896,1.5893044471740723,-3.122058153152466
1776228783933167900,2.17716796875,-1.086647391319275,2.2796294689178467,-2.875030517578125
1776228783953017900,2.197017822265625,-1.6558417081832886,3.196640729904175,-2.1514317989349365
1776228783972868900,2.216868896484375,-1.2476946115493774,2.8777170181274414,-1.0759663581848145
1776228783992720100,2.23672021484375,0.18603895604610443,1.7981175184249878,-0.5738645195960999
1776228784012571100,2.256571044921875,1.1726866960525513,0.5169188976287842,-1.3905004262924194
1776228784032422100,2.276422119140625,1.9268423318862915,-1.4673858880996704,-2.249314546585083
1776228784052273200,2.296273193359375,2.0048153400421143,-1.9592753648757935,-1.483933687210083
1776228784072123100,2.316123046875,1.4588255882263184,-1.9421476125717163,1.2974307537078857
1776228784091974100,2.33597412109375,1.6267715692520142,-2.2586898803710938,4.340756893157959
1776228784111825000,2.355824951171875,2.286318302154541,-2.4662492275238037,5.710920810699463
1776228784131676000,2.375676025390625,2.8405709266662598,-2.502716064453125,5.802988529205322
1776228784151527000,2.39552685546875,3.1265995502471924,-2.4297399520874023,5.13320779800415
1776228784171378200,2.415378173828125,3.3725926876068115,-2.460200786590576,4.471285343170166
1776228784191228000,2.435227783203125,3.2668516635894775,-2.8102519512176514,4.178851127624512
1776228784211079200,2.4550791015625,2.7960901260375977,-2.8895835876464844,4.036725997924805
1776228784230930200,2.47493017578125,2.331737756729126,-2.391218662261963,3.637303352355957
1776228784250781200,2.49478125,1.6138432025909424,-2.020028591156006,2.8360586166381836
1776228784270632000,2.5146318359375,0.18569791316986084,-1.69711172580719,1.5517102479934692
1776228784290482000,2.53448193359375,-1.5540118217468262,-1.1714540719985962,-0.06559614837169647
1776228784310333000,2.5543330078125,-2.846135377883911,-0.21041512489318848,-1.6206555366516113
1776228784330184000,2.574183837890625,-3.482656240463257,1.1444326639175415,-3.0372371673583984
1776228784350035000,2.594034912109375,-3.542301654815674,2.239358901977539,-3.714601993560791
1776228784369886000,2.613885986328125,-4.010601997375488,2.2117245197296143,-4.179612159729004
1776228784389737200,2.6337373046875,-4.415506362915039,2.2152371406555176,-4.451306343078613
1776228784409587200,2.653587158203125,-3.995946168899536,2.8707094192504883,-3.868446111679077
1776228784429438200,2.673438232421875,-3.084670305252075,2.879962921142578,-3.10524582862854
1776228784449289000,2.6932890625,-2.183333396911621,2.3057119846343994,-2.9667274951934814
1776228784469140000,2.713139892578125,-1.455925464630127,1.905875325202942,-3.0182416439056396
1776228784488991000,2.732990966796875,-1.0446804761886597,1.8019412755966187,-2.9693479537963867
1776228784508842000,2.752842041015625,-0.9734117388725281,2.0573575496673584,-2.757866859436035
1776228784528692000,2.77269189453125,-0.9815037846565247,2.289715528488159,-2.4177072048187256
1776228784548543000,2.79254296875,-1.0016638040542603,2.205369234085083,-1.8787598609924316
1776228784568394000,2.81239404296875,-0.6793946027755737,1.8160130977630615,-0.7297059297561646
1776228784588245000,2.832244873046875,0.23649948835372925,1.2638343572616577,0.3751252591609955
1776228784608096000,2.852095947265625,1.3343368768692017,0.2878305912017822,0.29959598183631897
1776228784627946200,2.8719462890625,2.0047717094421387,-1.1741876602172852,-0.5155766606330872
1776228784647797000,2.891796875,2.4985642433166504,-2.423492431640625,-0.6466953158378601
1776228784667648000,2.91164794921875,2.7958450317382812,-3.1504814624786377,0.3855469226837158
1776228784687499000,2.9314990234375,2.8634862899780273,-3.405332088470459,1.8451882600784302
1776228784707350000,2.95135009765625,2.987075090408325,-3.1917130947113037,3.1990699768066406
1776228784727201000,2.971200927734375,3.2203102111816406,-2.889432907104492,4.0700483322143555
1776228784747051000,2.991051025390625,3.389594793319702,-2.5912907123565674,4.391810894012451
1776228784766902000,3.010902099609375,3.5910093784332275,-2.4350063800811768,4.393336296081543
1776228784786753000,3.0307529296875,3.8021907806396484,-2.4587650299072266,4.15420389175415
1776228784806604000,3.05060400390625,3.7699103355407715,-2.5483951568603516,3.862208127975464
1776228784826455000,3.070455078125,3.341872453689575,-2.3466928005218506,3.4066336154937744
1776228784846305500,3.090305419921875,2.5135018825531006,-2.0218164920806885,2.76459002494812
1776228784866155500,3.110155517578125,1.1955262422561646,-1.3780570030212402,1.740778923034668
1776228784886006500,3.130006591796875,-0.24820390343666077,-0.34103918075561523,0.3304181694984436
1776228784905857500,3.149857421875,-1.4695260524749756,0.2657455503940582,-0.8956432342529297
1776228784925708800,3.169708740234375,-2.550861358642578,0.42955684661865234,-1.8461198806762695
1776228784945559800,3.189559814453125,-3.309250593185425,0.6848623752593994,-2.5903987884521484
1776228784965410800,3.209410888671875,-4.084427356719971,1.4228503704071045,-3.1909093856811523
1776228784985260800,3.2292607421875,-4.9354376792907715,2.8321142196655273,-3.293015718460083
1776228785005111800,3.24911181640625,-4.9296040534973145,3.573594331741333,-2.5889079570770264
1776228785024962600,3.268962646484375,-3.8407697677612305,2.456805944442749,-2.3042070865631104
1776228785044813600,3.2888134765625,-2.34989070892334,1.1909575462341309,-2.7359530925750732
1776228785064664600,3.30866455078125,-1.6265983581542969,1.1688767671585083,-3.09177303314209
1776228785084514600,3.3285146484375,-1.1976735591888428,1.7037025690078735,-2.961927890777588
1776228785104365600,3.348365478515625,-1.1524683237075806,2.137267589569092,-2.7802956104278564
1776228785124216600,3.368216552734375,-1.3467103242874146,2.143322229385376,-2.4638571739196777
1776228785144067800,3.38806787109375,-1.6297231912612915,2.048865556716919,-1.2721139192581177
1776228785163918800,3.4079189453125,-1.2790799140930176,1.8787282705307007,0.32058262825012207
1776228785183769600,3.42776953125,-0.3955916166305542,1.3950616121292114,0.7086700201034546
1776228785203619800,3.447619873046875,0.5435003042221069,0.39073777198791504,0.06750151515007019
1776228785223470600,3.467470703125,1.4531235694885254,-1.1507980823516846,-0.3091379702091217
1776228785243321600,3.487321533203125,2.120371103286743,-2.5732650756835938,-0.1315603107213974
1776228785263172600,3.507172607421875,2.412503242492676,-3.3045899868011475,0.5778449177742004
1776228785283023600,3.527023681640625,2.585097551345825,-3.144503355026245,1.8020929098129272
1776228785302874600,3.54687451171875,2.9387142658233643,-2.679248332977295,3.202472448348999
1776228785322724600,3.566724609375,3.431157112121582,-2.4618091583251953,4.169779300689697
1776228785342575600,3.58657568359375,3.9240634441375732,-2.5563008785247803,4.485981464385986
1776228785362427000,3.606427001953125,4.3198723793029785,-2.7577104568481445,4.235875606536865
1776228785382277600,3.626277587890625,4.426097393035889,-2.8914310932159424,3.697089195251465
1776228785402128600,3.646128662109375,4.218011856079102,-2.940424919128418,3.213709831237793
1776228785421979600,3.665979736328125,3.602341651916504,-2.763606309890747,2.706862688064575
1776228785441829600,3.68582958984375,2.470186948776245,-2.2459309101104736,2.128274917602539
1776228785461680600,3.7056806640625,0.8605520725250244,-1.0887209177017212,1.3940142393112183
1776228785481531600,3.72553173828125,-0.8608180284500122,0.36016762256622314,0.2401553839445114
1776228785501382700,3.745382568359375,-2.2784383296966553,0.8578150272369385,-0.8753674030303955
1776228785521233700,3.765233642578125,-3.387949228286743,0.9751983284950256,-1.7257955074310303
1776228785541084700,3.785084716796875,-4.177343845367432,1.379609227180481,-2.2836756706237793
1776228785560934700,3.8049345703125,-5.147982597351074,2.3433592319488525,-2.6104373931884766
1776228785580785700,3.82478564453125,-5.675470352172852,3.02492356300354,-2.6996777057647705
1776228785600636700,3.84463671875,-5.2688493728637695,3.0248472690582275,-2.5646986961364746
1776228785620487700,3.86448779296875,-4.280855178833008,2.174344062805176,-2.485537052154541
1776228785640338700,3.884338623046875,-3.0920705795288086,1.7925575971603394,-2.2710556983947754
1776228785660188700,3.904188720703125,-2.3207592964172363,2.1555545330047607,-2.2565009593963623
1776228785680039700,3.924039794921875,-1.9606070518493652,2.4696781635284424,-2.3767528533935547
1776228785699890700,3.943890625,-2.0686919689178467,2.511476516723633,-2.313908100128174
1776228785719741700,3.96374169921875,-2.0866012573242188,2.6221413612365723,-2.073500394821167
1776228785739592400,3.983592529296875,-1.6473065614700317,2.373014450073242,-1.5730302333831787
1776228785759443700,4.003443603515625,-0.7585863471031189,1.5643824338912964,-1.1421692371368408
1776228785779293400,4.02329345703125,0.2134362757205963,0.5833485126495361,-1.1670968532562256
1776228785799144700,4.043144775390625,0.8925570249557495,-0.30761411786079407,-1.3647103309631348
1776228785818995700,4.06299560546875,1.3906079530715942,-1.1271930932998657,-1.1497342586517334
1776228785838847700,4.08284765625,1.912251591682434,-1.694332242012024,-0.4711931347846985
1776228785858698500,4.102698486328125,2.4188692569732666,-2.1447038650512695,0.3910798132419586
1776228785878549500,4.122549560546875,2.8609375953674316,-2.5424225330352783,1.1938363313674927
1776228785898399500,4.1423994140625,3.168499708175659,-2.8304131031036377,1.8222883939743042
1776228785918250500,4.16225048828125,3.356585741043091,-2.886414051055908,2.3051557540893555
1776228785938101500,4.1821015625,3.548008441925049,-2.7175803184509277,2.638498306274414
1776228785957952500,4.201952392578125,3.810612201690674,-2.568471670150757,2.8272244930267334
1776228785977803500,4.221803466796875,3.9211301803588867,-2.4956588745117188,2.7906978130340576
1776228785997654500,4.241654541015625,3.894467353820801,-2.73376727104187,2.791531801223755
1776228786017504500,4.26150439453125,3.4882166385650635,-2.952224016189575,3.0174496173858643
1776228786037355500,4.28135546875,2.5094401836395264,-2.383748769760132,2.9627554416656494
1776228786057206500,4.30120654296875,0.9698312878608704,-0.8643207550048828,2.2289557456970215
1776228786077057500,4.3210576171875,-0.6207234263420105,0.7428239583969116,0.6761473417282104
1776228786096908500,4.340908447265625,-1.900476336479187,1.262322187423706,-0.959947943687439
1776228786116759600,4.360759521484375,-2.7081336975097656,0.944068431854248,-2.245189666748047
1776228786136609500,4.380609619140625,-3.1301186084747314,0.8131066560745239,-2.9247734546661377
1776228786156460500,4.40046044921875,-3.731011390686035,1.715073585510254,-3.185985565185547
1776228786176311600,4.4203115234375,-4.142683029174805,2.986164093017578,-3.253220319747925
1776228786196162600,4.44016259765625,-4.070219993591309,3.899203300476074,-3.0358667373657227
1776228786216013300,4.460013427734375,-3.077207326889038,3.220951557159424,-3.0435235500335693
1776228786235864600,4.479864501953125,-1.9231377840042114,2.1020729541778564,-3.582834482192993
1776228786255714300,4.49971435546875,-1.4310252666473389,2.038144111633301,-4.180221080780029
1776228786275565600,4.519565673828125,-1.2103559970855713,2.5231220722198486,-4.388016700744629
1776228786295416600,4.53941650390625,-0.8133825659751892,2.6366806030273438,-3.8376333713531494
1776228786315267600,4.559267578125,-0.6966567635536194,2.459923267364502,-2.9024319648742676
1776228786335118600,4.57911865234375,-0.9738805294036865,2.960845470428467,-2.5507760047912598
1776228786354969600,4.598969482421875,-1.1792311668395996,3.734100341796875,-2.4928250312805176
1776228786374819600,4.618819580078125,-0.8603769540786743,3.3339362144470215,-2.6395320892333984
1776228786394670600,4.638670654296875,0.19692054390907288,1.361769676208496,-3.352749824523926
1776228786414521300,4.658521240234375,1.1909816265106201,-0.4238232672214508,-4.140894412994385
1776228786434372400,4.678372314453125,1.9200160503387451,-1.3585600852966309,-4.576876640319824
1776228786454223600,4.6982236328125,2.645728588104248,-1.8580257892608643,-4.261714458465576
1776228786474073600,4.718073486328125,3.1782031059265137,-2.1944384574890137,-3.0391340255737305
1776228786493924600,4.737924560546875,3.6098949909210205,-2.041417360305786,-1.2586758136749268
1776228786513775600,4.757775634765625,3.9917633533477783,-1.5125293731689453,0.38304832577705383
1776228786533626600,4.777626708984375,4.2359514236450195,-0.9855332374572754,1.4859461784362793
1776228786553477600,4.7974775390625,4.1298675537109375,-0.4592933654785156,1.959675669670105
1776228786573328400,4.817328369140625,3.7425687313079834,0.13048520684242249,1.9144901037216187
1776228786593178600,4.8371787109375,3.2822635173797607,0.4627443850040436,1.5667983293533325
1776228786613029400,4.857029296875,2.7258033752441406,0.48892274498939514,0.9459978938102722
1776228786632880400,4.87688037109375,1.775130271911621,0.39346086978912354,0.08425344526767731
1776228786652731400,4.8967314453125,0.24741439521312714,0.5935799479484558,-0.9403783082962036
1776228786672582700,4.916582763671875,-1.7378841638565063,1.598097562789917,-1.9641474485397339
1776228786692433700,4.93643359375,-3.287278175354004,3.180140495300293,-2.397346019744873
1776228786712283600,4.95628369140625,-3.6427083015441895,4.401544570922852,-2.0461483001708984
1776228786732134700,4.976134765625,-3.5523557662963867,4.197177886962891,-1.8628679513931274
1776228786751985700,4.995985595703125,-3.9726192951202393,3.042604684829712,-2.6313390731811523
1776228786771836400,5.01583642578125,-4.54572868347168,2.6379785537719727,-3.7050507068634033
1776228786791687400,5.0356875,-3.995901584625244,3.808197498321533,-3.491549253463745
1776228786811538400,5.055538330078125,-2.377438545227051,5.138466835021973,-2.1315934658050537
1776228786831388400,5.075388427734375,-1.1292836666107178,4.984750270843506,-1.3975650072097778
1776228786851239200,5.0952392578125,-1.1287082433700562,4.184355735778809,-2.0008108615875244
1776228786871090200,5.115090087890625,-1.1287041902542114,3.4366934299468994,-2.90826416015625
1776228786890941200,5.134941162109375,-0.8943568468093872,3.359631061553955,-3.2207891941070557
1776228786910792200,5.154792236328125,-0.8019657731056213,3.3714122772216797,-3.041710615158081
1776228786930643200,5.174643310546875,-1.0334728956222534,3.0142009258270264,-2.9660284519195557
1776228786950493200,5.1944931640625,-1.1037523746490479,2.0792038440704346,-3.331418991088867
1776228786970344200,5.21434423828125,-0.8574819564819336,1.0269103050231934,-3.9518768787384033
1776228786990195200,5.2341953125,-0.21920466423034668,-0.10748530924320221,-4.5683369636535645
1776228787010046200,5.254046142578125,0.5342797636985779,-1.4168654680252075,-5.017014026641846
1776228787029897200,5.273897216796875,1.1886218786239624,-2.6594207286834717,-4.967684745788574
1776228787049747200,5.293747314453125,1.679387092590332,-3.355280637741089,-3.8411362171173096
1776228787069598200,5.31359814453125,1.9446710348129272,-2.822892189025879,-1.9325947761535645
1776228787089449200,5.33344921875,2.375826835632324,-1.620790958404541,0.10736645758152008
1776228787109300200,5.35330029296875,2.8781960010528564,-0.6446608901023865,1.5899330377578735
1776228787129151200,5.373151123046875,3.180631637573242,-0.18594443798065186,2.147169589996338
1776228787149002200,5.393002197265625,3.445138692855835,-0.12462672591209412,2.0669329166412354
1776228787168852000,5.41285205078125,3.6801204681396484,-0.17100831866264343,1.7362213134765625
1776228787188703200,5.432703125,3.6424331665039062,-0.15027987957000732,1.4173685312271118
1776228787208554200,5.45255419921875,3.351102590560913,0.056866101920604706,1.2572801113128662
1776228787228405200,5.4724052734375,3.0072214603424072,0.13398753106594086,1.1097617149353027
1776228787248256300,5.49225634765625,2.432748556137085,0.1311081498861313,0.9375824332237244
1776228787268107300,5.512107177734375,1.9170845746994019,0.39970654249191284,0.5747928023338318
1776228787287957200,5.531957275390625,1.3826751708984375,0.621231198310852,-0.023365464061498642
1776228787307808300,5.551808349609375,0.7644662857055664,0.6110920310020447,-0.5962463021278381
1776228787327659000,5.571658935546875,0.14214006066322327,0.4642365276813507,-0.8266372084617615
1776228787347510000,5.591510009765625,-0.45308664441108704,0.48136255145072937,-0.8792695999145508
1776228787367361300,5.611361328125,-0.9671711325645447,0.8468361496925354,-1.077074408531189
1776228787387212300,5.63121240234375,-1.371272087097168,1.5361037254333496,-1.5776954889297485
1776228787407062300,5.651062255859375,-1.7127302885055542,2.1460182666778564,-2.2990691661834717
1776228787426913300,5.670913330078125,-2.1288390159606934,2.382817268371582,-2.85978627204895
1776228787446764300,5.690764404296875,-2.571303606033325,2.4725430011749268,-3.1042912006378174
1776228787466615300,5.710615234375,-2.5896105766296387,2.6120495796203613,-2.935561418533325
1776228787486466000,5.730466064453125,-2.1673943996429443,2.9698684215545654,-2.499584674835205
1776228787506317000,5.750317138671875,-1.6883176565170288,3.295621156692505,-2.002181053161621
1776228787526167000,5.7701669921875,-1.5180989503860474,3.3658993244171143,-1.7141180038452148
1776228787546018000,5.79001806640625,-1.2891454696655273,2.877220392227173,-1.7048300504684448
1776228787565869000,5.809869140625,-1.2536702156066895,2.2422099113464355,-1.965151309967041
1776228787585720300,5.82972021484375,-1.6219596862792969,2.0727007389068604,-2.200869560241699
1776228787605571300,5.8495712890625,-2.0923774242401123,2.2646350860595703,-1.9701106548309326
1776228787625422300,5.86942236328125,-1.9327359199523926,2.424222707748413,-1.5352870225906372
1776228787645272300,5.889272216796875,-1.2069119215011597,1.631044626235962,-1.7011120319366455
1776228787665123300,5.909123291015625,-0.9181235432624817,0.47974836826324463,-2.5148181915283203
1776228787684974000,5.92897412109375,-0.7209644317626953,0.055656224489212036,-2.848126173019409
1776228787704825000,5.9488251953125,-0.3998543918132782,0.25974464416503906,-2.1258647441864014
1776228787724676000,5.968676025390625,0.24842335283756256,0.08616992086172104,-0.574273943901062
1776228787744527000,5.988527099609375,1.1399433612823486,-0.5578112006187439,1.1337062120437622
1776228787764377000,6.008377197265625,1.8963772058486938,-1.0061367750167847,2.340559482574463
1776228787784228000,6.02822802734375,2.43282151222229,-1.073436975479126,2.8605260848999023
1776228787804079400,6.048079345703125,2.9549508094787598,-1.1167762279510498,2.8555219173431396
1776228787823930400,6.067930419921875,3.3920974731445312,-1.240133285522461,2.6260082721710205
1776228787843781400,6.087781494140625,3.7404487133026123,-1.3496872186660767,2.317426919937134
1776228787863631400,6.10763134765625,3.997129201889038,-1.5024815797805786,2.0501625537872314
1776228787883482400,6.127482421875,3.7410247325897217,-1.7943768501281738,2.175508975982666
1776228787903333400,6.14733349609375,2.7801902294158936,-1.5729466676712036,2.4190948009490967
1776228787923184400,6.167184326171875,1.4410984516143799,-0.8223237991333008,2.3055100440979004
1776228787943035400,6.187035400390625,0.035574957728385925,-0.09505841135978699,1.4897181987762451
1776228787962886400,6.206886474609375,-0.9787644743919373,-0.0004901180509477854,0.31854069232940674
1776228787982737400,6.2267373046875,-1.794762372970581,-0.5578112602233887,-0.7809147834777832
1776228788002587400,6.24658740234375,-2.734779119491577,-1.0711778402328491,-1.6196401119232178
1776228788022438400,6.2664384765625,-3.587327480316162,-0.8039831519126892,-2.190577507019043
1776228788042289400,6.286289306640625,-4.230391502380371,0.5085672736167908,-2.4318313598632812
1776228788062140400,6.306140380859375,-4.257148742675781,1.9347959756851196,-2.3475520610809326
1776228788081991400,6.325991455078125,-3.659010171890259,2.303203582763672,-2.0815746784210205
1776228788101841400,6.34584130859375,-2.55488657951355,1.377722144126892,-2.1186985969543457
1776228788121692400,6.3656923828125,-1.7334011793136597,0.657910168170929,-2.6478934288024902
1776228788141543400,6.38554345703125,-1.402283787727356,0.7442681789398193,-3.0192747116088867
1776228788161394400,6.40539453125,-1.2364996671676636,1.1006577014923096,-3.0216429233551025
1776228788181245400,6.425245361328125,-1.3176543712615967,1.6354223489761353,-2.5892632007598877
1776228788201096200,6.44509619140625,-1.3534561395645142,1.8570916652679443,-2.0657718181610107
1776228788220946400,6.464946533203125,-1.27518892288208,1.7404379844665527,-1.733693242073059
1776228788240797400,6.48479736328125,-0.7032778263092041,1.2953499555587769,-1.651872992515564
1776228788260648400,6.5046484375,0.20874592661857605,0.38158929347991943,-2.088243246078491
1776228788280499500,6.52449951171875,0.7472096681594849,-0.7313151359558105,-2.7206640243530273
1776228788300350500,6.5443505859375,1.036751627922058,-1.5257270336151123,-2.462721824645996
1776228788320201500,6.564201416015625,1.2369221448898315,-1.9463636875152588,-0.9710983633995056
1776228788340051500,6.584051513671875,1.6518052816390991,-2.15744686126709,1.217172622680664
1776228788359902500,6.60390234375,2.4983012676239014,-2.3462321758270264,3.2382092475891113
1776228788379753500,6.62375341796875,3.176677942276001,-2.423571825027466,4.517940521240234
1776228788399604200,6.643604248046875,3.215327262878418,-2.351897954940796,4.77493953704834
1776228788419455200,6.663455322265625,3.2658355236053467,-2.251939296722412,4.253908634185791
1776228788439306500,6.683306396484375,3.4815621376037598,-2.313988447189331,3.501162052154541
1776228788459157500,6.703157470703125,3.542938470840454,-2.3826005458831787,2.905240058898926
1776228788479007500,6.723007568359375,3.517486095428467,-2.4235970973968506,2.804344892501831
1776228788498858500,6.7428583984375,3.3710103034973145,-2.485764503479004,3.11430287361145
1776228788518709500,6.76270947265625,2.7503597736358643,-1.9341384172439575,3.186302661895752
1776228788538560500,6.782560546875,1.6708427667617798,-0.8281968832015991,2.519176483154297
1776228788558411300,6.802411376953125,0.44350072741508484,0.2925925850868225,1.1350754499435425
1776228788578262300,6.82226220703125,-0.6336027979850769,0.5421361327171326,-0.2282904088497162
1776228788598112300,6.8421123046875,-1.6133073568344116,-0.17344780266284943,-1.416170358657837
1776228788617963300,6.86196337890625,-2.661156415939331,-1.0812411308288574,-2.212684392929077
1776228788637814500,6.881814453125,-3.218599557876587,-0.92750084400177,-2.513014554977417
1776228788657665500,6.90166552734375,-3.4726061820983887,0.4398704767227173,-2.5104050636291504
1776228788677516500,6.9215166015625,-3.507375717163086,1.7459659576416016,-2.206292152404785
1776228788697367600,6.941367431640625,-3.108421564102173,1.7923834323883057,-1.817177176475525
1776228788717217500,6.961217529296875,-2.305417060852051,1.1307756900787354,-1.7623343467712402
1776228788737068300,6.981068359375,-1.6364662647247314,0.7750119566917419,-1.9791617393493652
1776228788756919300,7.000919189453125,-1.4984993934631348,1.2236616611480713,-2.1441843509674072
1776228788776770300,7.020770263671875,-1.67740797996521,1.9856359958648682,-2.089949607849121
1776228788796621300,7.040621337890625,-1.809635877609253,2.1605594158172607,-1.8006082773208618
1776228788816472300,7.060472412109375,-1.6300225257873535,1.8527241945266724,-1.4509936571121216
1776228788836322300,7.080322265625,-1.2737970352172852,1.6811556816101074,-1.1266378164291382
1776228788856172800,7.1001728515625,-0.8165450692176819,1.4903836250305176,-1.1066280603408813
1776228788876023800,7.12002392578125,-0.34698954224586487,0.9556941390037537,-1.521193027496338
1776228788895874800,7.139874755859375,0.3206213116645813,0.008542251773178577,-1.9737577438354492
1776228788915725800,7.159725830078125,1.0346041917800903,-1.278096079826355,-2.3842108249664307
1776228788935576600,7.17957666015625,1.5112757682800293,-2.493844509124756,-1.8025506734848022
1776228788955426800,7.1994267578125,1.78304922580719,-3.0336737632751465,0.025049395859241486
1776228788975277600,7.219277587890625,2.215111017227173,-2.933983087539673,2.1419668197631836
1776228788995128800,7.23912890625,2.559751272201538,-2.571462869644165,3.7095038890838623
1776228789014979800,7.258979736328125,2.701624631881714,-2.2650437355041504,4.472500324249268
1776228789034830800,7.278830810546875,2.9338912963867188,-2.4035091400146484,4.608165264129639
1776228789054681900,7.298681884765625,3.0008456707000732,-2.503371000289917,4.386151313781738
1776228789074531800,7.31853173828125,3.0738651752471924,-2.413350820541382,4.310386657714844
1776228789094382800,7.3383828125,3.1067123413085938,-2.2644550800323486,4.361389636993408
1776228789114233900,7.35823388671875,2.804973840713501,-2.2352497577667236,4.043185710906982
1776228789134084600,7.378084716796875,1.8490283489227295,-1.878274917602539,3.4881417751312256
1776228789153935600,7.397935546875,0.18857672810554504,-0.8425279259681702,2.56630277633667
1776228789173787000,7.417786865234375,-1.4699817895889282,0.6012348532676697,0.9778855443000793
1776228789193636900,7.437636962890625,-2.7150299549102783,1.3191072940826416,-0.7031638026237488
1776228789213487900,7.45748779296875,-3.2775394916534424,0.9344325065612793,-1.8934071063995361
1776228789233339000,7.4773388671875,-3.710136651992798,0.17487764358520508,-3.0168724060058594
1776228789253190000,7.49718994140625,-4.457610130310059,0.39024004340171814,-4.024975299835205
1776228789273041000,7.517041015625,-5.174241542816162,1.779882788658142,-4.0431952476501465
1776228789292891600,7.5368916015625,-4.878658294677734,2.7367427349090576,-3.081448793411255
1776228789312742700,7.55674267578125,-3.362325429916382,2.311814069747925,-2.42399263381958
1776228789332592600,7.576592529296875,-1.9788825511932373,1.3579001426696777,-2.56026029586792
1776228789352443600,7.596443603515625,-1.7555333375930786,1.1596394777297974,-2.8467061519622803
1776228789372294700,7.616294677734375,-1.7767879962921143,1.717797875404358,-2.7462682723999023
1776228789392146000,7.63614599609375,-1.7749438285827637,2.2364323139190674,-2.4193639755249023
1776228789411997000,7.655996826171875,-1.7938381433486938,1.973997712135315,-2.4387121200561523
1776228789431848000,7.675847900390625,-1.8135018348693848,1.550817608833313,-2.4156360626220703
1776228789451698000,7.695697998046875,-1.0821584463119507,1.786013126373291,-1.4151910543441772
1776228789471548700,7.715548583984375,0.036595769226551056,2.224569320678711,-0.07363008707761765
1776228789491399700,7.735399658203125,0.8164330720901489,1.55410635471344,-0.40717437863349915
1776228789511250700,7.755250732421875,1.3566510677337646,0.0016462237108498812,-1.4087629318237305
1776228789531101700,7.775101806640625,1.8959457874298096,-1.8822163343429565,-1.6671193838119507
1776228789550952700,7.79495263671875,2.186014175415039,-3.3280551433563232,-0.6771970987319946
1776228789570802700,7.814802734375,2.4603374004364014,-3.19922137260437,1.3302613496780396
1776228789590654000,7.834654052734375,3.231489419937134,-2.36552095413208,3.38869571685791
1776228789610505000,7.8545048828125,4.083043575286865,-2.1365280151367188,4.42335844039917
1776228789630355700,7.874355712890625,4.279049396514893,-2.341492176055908,4.358829975128174
1776228789650206700,7.894206787109375,4.078798294067383,-2.6738884449005127,3.5378222465515137
1776228789670057700,7.9140576171875,3.755702257156372,-2.942620277404785,2.832691192626953
1776228789689907700,7.93390771484375,3.646493673324585,-3.003380060195923,2.7984957695007324
1776228789709758700,7.9537587890625,3.490316390991211,-2.926658868789673,3.057000160217285
1776228789729609700,7.973609619140625,2.748584032058716,-2.7286574840545654,3.233999252319336
1776228789749460700,7.993460693359375,1.0731860399246216,-1.8600850105285645,2.1861307621002197
1776228789769311700,8.013311767578125,-1.3053269386291504,-0.5382590889930725,-0.12687554955482483
1776228789789162800,8.033162841796875,-3.2032828330993652,0.15703602135181427,-1.8996533155441284
1776228789809013800,8.053013671875,-4.60610818862915,0.4999103546142578,-2.71346378326416
1776228789828863700,8.07286376953125,-5.254817962646484,0.9064160585403442,-3.1271145343780518
1776228789848715500,8.092715576171875,-5.702993869781494,1.5414979457855225,-3.6242496967315674
1776228789868566500,8.11256640625,-6.454303741455078,2.5532479286193848,-3.911144495010376
1776228789888417500,8.13241748046875,-6.246946334838867,3.1970629692077637,-3.526254892349243
1776228789908268500,8.1522685546875,-4.356762409210205,2.6321961879730225,-2.809891700744629
1776228789928119300,8.172119384765624,-2.7019002437591553,2.060516834259033,-2.673780918121338
1776228789947969500,8.191969482421875,-1.806976318359375,2.179185390472412,-2.5466673374176025
1776228789967820500,8.211820556640625,-0.962746262550354,2.103543519973755,-2.3389883041381836
1776228789987671600,8.231671630859376,-0.5704541206359863,1.712304711341858,-2.201136589050293
1776228790007522600,8.2515224609375,-0.895659863948822,1.5204662084579468,-1.8455390930175781
1776228790027373600,8.27137353515625,-1.2406572103500366,1.9365967512130737,-1.0980849266052246
1776228790047224600,8.291224609375,-0.7605996131896973,2.115046262741089,-0.40218663215637207
1776228790067074600,8.311074462890625,0.38363078236579895,1.4930098056793213,-0.5487799644470215
1776228790086925600,8.330925537109374,1.1849943399429321,0.05836326256394386,-1.1604756116867065
1776228790106776600,8.350776611328126,1.7263586521148682,-1.3566348552703857,-1.1715880632400513
1776228790126627300,8.37062744140625,2.184257745742798,-1.9608491659164429,-0.8422751426696777
1776228790146478300,8.390478271484374,2.774150848388672,-2.2972967624664307,-0.6234530210494995
1776228790166329600,8.41032958984375,3.5171523094177246,-3.2788546085357666,-0.34953856468200684
1776228790186180600,8.4301806640625,4.148444652557373,-4.477492332458496,0.21342697739601135
1776228790206030600,8.450030517578124,4.291322708129883,-4.75819730758667,1.1378101110458374
1776228790225881600,8.469881591796875,4.4942169189453125,-4.266758441925049,2.2229833602905273
1776228790245732600,8.489732666015625,4.534972667694092,-3.5533862113952637,3.161538600921631
1776228790265583600,8.50958349609375,4.394809246063232,-2.885406970977783,3.8078253269195557
1776228790285434400,8.529434326171875,4.169431209564209,-2.3961539268493652,3.980894088745117
1776228790305285400,8.549285400390625,3.5203754901885986,-1.9295955896377563,3.5765109062194824
1776228790325135400,8.56913525390625,2.2927722930908203,-1.16553795337677,2.5003175735473633
1776228790344986400,8.588986328125,0.6813424825668335,-0.11894064396619797,0.8959059119224548
1776228790364837600,8.608837646484375,-0.9000269770622253,0.6902725696563721,-0.5208746194839478
1776228790384688600,8.628688720703124,-2.4050612449645996,1.264418125152588,-1.3000707626342773
1776228790404539600,8.64853955078125,-3.8580470085144043,2.290891170501709,-1.7028553485870361
1776228790424390700,8.668390625,-4.889849662780762,3.8966591358184814,-1.92243492603302
1776228790444241400,8.688241455078124,-5.494409084320068,5.359407901763916,-1.8427958488464355
1776228790464091600,8.708091552734375,-5.891279220581055,5.173762321472168,-1.8165762424468994
1776228790483942400,8.7279423828125,-5.873626232147217,3.4164106845855713,-2.6073496341705322
1776228790503793400,8.74779345703125,-4.518564701080322,1.722273826599121,-3.473214864730835
1776228790523644400,8.76764453125,-2.637648582458496,1.3219925165176392,-3.6889734268188477
1776228790543495400,8.787495361328125,-1.5612778663635254,1.8782932758331299,-3.243978500366211
1776228790563346700,8.8073466796875,-1.2579925060272217,2.4812402725219727,-2.661773204803467
1776228790583196700,8.82719677734375,-0.9483983516693115,2.6183931827545166,-2.4393699169158936
1776228790603047700,8.847047607421874,-0.9658722281455994,2.87427020072937,-2.3907976150512695
1776228790622898700,8.866898681640626,-0.9971846342086792,2.7880680561065674,-2.4004404544830322
1776228790642749400,8.88674951171875,-0.7116014361381531,1.7901660203933716,-2.6409912109375
1776228790662600400,8.906600341796874,0.0808655247092247,0.5444280505180359,-3.195094585418701
1776228790682451500,8.926451416015626,1.4978243112564087,-0.45747557282447815,-3.4918394088745117
1776228790702302500,8.946302490234375,2.6610751152038574,-1.1510967016220093,-3.1290230751037598
1776228790722152400,8.96615234375,3.2747819423675537,-1.5382184982299805,-2.0620296001434326
1776228790742003500,8.98600341796875,3.6182804107666016,-1.4847553968429565,-0.5918081402778625
1776228790761854700,9.005854736328125,4.06092643737793,-1.095715880393982,0.5719361305236816
1776228790781705700,9.025705810546874,4.40115213394165,-0.7147467732429504,1.0871094465255737
1776228790801556500,9.045556396484375,4.487921237945557,-0.4499489367008209,0.9419060349464417
1776228790821407500,9.065407470703125,4.642569065093994,-0.4651300311088562,0.5002471208572388
1776228790841257200,9.08525732421875,4.591258525848389,-0.5752112865447998,0.12260226905345917
1776228790861108000,9.10510791015625,4.47031831741333,-0.6896576881408691,-0.062005165964365005
1776228790880959000,9.124958984375,4.381469249725342,-0.8033847808837891,0.06854858249425888
1776228790900810000,9.14481005859375,3.9919016361236572,-0.9120625257492065,0.5897807478904724
1776228790920661000,9.164660888671875,2.8256261348724365,-0.3892211616039276,1.2371649742126465
1776228790940512300,9.18451220703125,0.8718003034591675,1.4868642091751099,1.1564037799835205
1776228790960363300,9.20436328125,-1.3285777568817139,3.6206369400024414,0.04110908508300781
1776228790980213200,9.224213134765625,-2.972482681274414,4.509510517120361,-1.0813034772872925
1776228791000064300,9.244064208984375,-4.0345540046691895,3.988574981689453,-1.9650051593780518
1776228791019915000,9.2639150390625,-4.689584732055664,3.132538080215454,-2.7337894439697266
1776228791039766000,9.28376611328125,-5.337960243225098,2.906766176223755,-3.4321539402008057
1776228791059617000,9.303616943359375,-5.706730842590332,3.2344794273376465,-4.011398792266846
1776228791079468000,9.323468017578126,-5.542694568634033,3.8446619510650635,-4.2952775955200195
1776228791099319000,9.343319091796875,-4.881725788116455,4.029718399047852,-4.732748508453369
1776228791119169000,9.3631689453125,-4.425327777862549,3.3238110542297363,-5.308897972106934
1776228791139020000,9.38302001953125,-4.16260290145874,2.6416420936584473,-5.358970642089844
1776228791158871300,9.402871337890625,-3.2844066619873047,2.285235643386841,-4.784414291381836
1776228791178722000,9.42272216796875,-2.0618793964385986,2.311232089996338,-3.856879234313965
1776228791198573000,9.442572998046876,-1.359201431274414,2.5220351219177246,-2.9574098587036133
1776228791218424000,9.462424072265625,-1.5102758407592773,2.7093281745910645,-2.1611618995666504
1776228791238274000,9.482274169921874,-1.9042001962661743,3.311553716659546,-1.471269965171814
1776228791258125000,9.502125,-1.7967008352279663,3.3817317485809326,-1.2948359251022339
1776228791277976000,9.52197607421875,-1.2344434261322021,2.5357916355133057,-1.9001713991165161
1776228791297827000,9.5418271484375,-0.6513122320175171,0.7524133920669556,-3.4738826751708984
1776228791317678000,9.561677978515625,-0.24210573732852936,-1.2034014463424683,-5.37066125869751
1776228791337529000,9.581529052734375,0.30589815974235535,-2.4808528423309326,-6.406158924102783
1776228791357380000,9.601380126953124,1.3101418018341064,-3.138826370239258,-5.958272933959961
1776228791377230000,9.62122998046875,2.3700919151306152,-3.0022871494293213,-4.035478591918945
1776228791397081000,9.6410810546875,2.9962291717529297,-2.165661334991455,-1.476706624031067
1776228791416932000,9.66093212890625,3.2427897453308105,-1.0744624137878418,0.9331828355789185
1776228791436783000,9.680783203125,3.5924112796783447,-0.4814744293689728,2.4746484756469727
1776228791456634000,9.700634033203125,4.366004467010498,-0.24689838290214539,3.203498363494873
1776228791476485000,9.720485107421876,5.113367080688477,-0.12130368500947952,3.1929101943969727
1776228791496336000,9.7403359375,5.462128639221191,-0.17817579209804535,2.6291706562042236
1776228791516186000,9.76018603515625,5.317117691040039,-0.39691686630249023,1.8874049186706543
1776228791536036900,9.780036865234376,4.829851150512695,-0.5838164687156677,1.2985807657241821
1776228791555888000,9.79988818359375,4.063084602355957,-0.6799134016036987,1.1035932302474976
1776228791575739100,9.8197392578125,3.028683662414551,-0.5729390382766724,1.4899579286575317
1776228791595590100,9.839590087890626,1.8096271753311157,-0.004216259811073542,1.9565907716751099
1776228791615441200,9.859441162109375,0.7289992570877075,1.0944242477416992,1.6060760021209717
1776228791635292200,9.879292236328125,-0.34125155210494995,1.9083102941513062,0.20662853121757507
1776228791655142100,9.89914208984375,-1.777756690979004,1.8233187198638916,-1.2393600940704346
1776228791674993200,9.9189931640625,-3.2919108867645264,1.2289365530014038,-1.9247832298278809
1776228791694844000,9.938843994140624,-4.332452297210693,0.6965370774269104,-2.1334776878356934
1776228791714695000,9.95869482421875,-4.505264759063721,0.937445342540741,-2.2740843296051025
1776228791734546200,9.978546142578125,-4.356483459472656,2.048170804977417,-2.3445560932159424
1776228791754397200,9.998397216796874,-4.389548301696777,3.535863161087036,-1.7107231616973877
1776228791774248200,10.018248291015626,-3.624067544937134,3.926081657409668,-0.4531112611293793
1776228791794098200,10.03809814453125,-2.032362222671509,3.216188669204712,-0.01879495196044445
1776228791813949200,10.05794921875,-0.8982488512992859,1.898963212966919,-0.6306483149528503
1776228791833800200,10.07780029296875,-0.7903955578804016,1.1676963567733765,-1.6892050504684448
1776228791853651000,10.09765087890625,-1.3005403280258179,1.2438606023788452,-2.7125680446624756
1776228791873502000,10.117501953125,-1.8649262189865112,1.6650190353393555,-3.2380781173706055
1776228791893353000,10.13735302734375,-2.307063102722168,1.6778075695037842,-3.1515841484069824
1776228791913204000,10.157203857421875,-2.312872886657715,1.6108295917510986,-2.3974671363830566
1776228791933054000,10.177053955078126,-1.7746303081512451,1.7889748811721802,-1.4889287948608398
1776228791952905000,10.196905029296875,-1.2216384410858154,2.217216968536377,-0.9480046629905701
1776228791972756000,10.216755859375,-0.7687344551086426,2.1576969623565674,-1.2210990190505981
1776228791992607000,10.23660693359375,-0.5625401735305786,1.0509507656097412,-1.9588897228240967
1776228792012457700,10.256457763671875,-0.31632956862449646,-0.4911336600780487,-2.593233108520508
1776228792032309000,10.27630908203125,0.3737982511520386,-1.552065134048462,-2.363473892211914
1776228792052160000,10.296159912109376,1.570337176322937,-2.039071559906006,-1.2720885276794434
1776228792072010000,10.316010009765625,2.644116163253784,-2.124518394470215,0.17950233817100525
1776228792091861000,10.335861083984375,3.1797640323638916,-1.8968020677566528,1.465606927871704
1776228792111712000,10.3557119140625,3.2145655155181885,-1.353357195854187,2.4334425926208496
1776228792131563000,10.37556298828125,3.4825847148895264,-0.9892559051513672,2.880483865737915
1776228792151414000,10.3954140625,4.335814476013184,-1.2066129446029663,2.791486978530884
1776228792171264800,10.4152646484375,4.8308939933776855,-1.600329875946045,2.3800456523895264
1776228792191115800,10.43511572265625,4.3868632316589355,-1.4751932621002197,2.1775307655334473
1776228792210965800,10.4549658203125,3.8672420978546143,-1.3577522039413452,2.2237508296966553
1776228792230816800,10.474816650390625,3.4656522274017334,-1.8460696935653687,2.1764252185821533
1776228792250668000,10.49466796875,2.3803517818450928,-1.4488862752914429,1.9714109897613525
1776228792270519000,10.51451904296875,1.3177108764648438,-0.8083294630050659,1.2352302074432373
1776228792290370000,10.5343701171875,-0.13945412635803223,0.22322756052017212,-0.029674140736460686
1776228792310221000,10.554220947265625,-1.5953480005264282,0.7196913957595825,-1.0542957782745361
1776228792330071800,10.57407177734375,-2.6871066093444824,0.37605971097946167,-1.3208354711532593
1776228792349922800,10.5939228515625,-3.536012887954712,-0.23730674386024475,-1.4284740686416626
1776228792369772800,10.613772705078125,-3.8829872608184814,-0.4576018452644348,-1.9674876928329468
1776228792389623800,10.633623779296874,-3.608260154724121,-0.17432883381843567,-2.4809789657592773
1776228792409474800,10.653474853515625,-3.147019624710083,0.4294193685054779,-2.7060399055480957
1776228792429326000,10.673326171875,-2.919131278991699,1.153473973274231,-2.555685043334961
1776228792449177000,10.693177001953124,-2.888699769973755,1.6145315170288086,-2.135679244995117
1776228792469028000,10.713028076171875,-2.62929368019104,1.6388908624649048,-1.8773081302642822
1776228792488878800,10.73287890625,-2.2709929943084717,1.6813298463821411,-1.890104055404663
1776228792508729000,10.75272900390625,-2.2890989780426025,1.9976738691329956,-1.922317624092102
1776228792528579800,10.772579833984375,-2.1488449573516846,2.130607843399048,-1.7658344507217407
1776228792548430800,10.792430908203125,-1.7237972021102905,1.5433461666107178,-1.8223797082901
1776228792568281900,10.81228173828125,-1.4937255382537842,0.8664331436157227,-2.056117296218872
1776228792588132900,10.8321328125,-1.139504075050354,0.628578782081604,-1.9301122426986694
1776228792607983900,10.85198388671875,-0.44647786021232605,0.3763990104198456,-1.5090082883834839
1776228792627835100,10.871835205078124,0.24842140078544617,-0.08983099460601807,-0.8580831289291382
1776228792647685000,10.89168505859375,1.081692099571228,-0.45069411396980286,0.16419197618961334
1776228792667536100,10.9115361328125,2.2547290325164795,-0.9730153679847717,1.1052157878875732
1776228792687387000,10.931386962890626,3.275364637374878,-1.6899079084396362,1.4470438957214355
1776228792707238000,10.95123779296875,3.7779295444488525,-2.4527370929718018,1.3938931226730347
1776228792727089000,10.9710888671875,3.944688558578491,-2.7947232723236084,1.4755204916000366
1776228792746940000,10.99093994140625,4.187918186187744,-2.8417418003082275,1.8736971616744995
1776228792766791000,11.010791015625,4.3883867263793945,-2.6560211181640625,2.255039691925049
1776228792786641000,11.030640869140624,4.52187442779541,-2.566530227661133,2.4652435779571533
1776228792806492000,11.050491943359376,4.369274616241455,-2.532047986984253,2.8187625408172607
1776228792826343200,11.07034326171875,3.6568589210510254,-2.1085824966430664,3.91377329826355
1776228792846194400,11.0901943359375,2.3866043090820312,-1.5357098579406738,4.946542739868164
1776228792866045400,11.11004541015625,0.8496370315551758,-0.9285323619842529,4.408474445343018
1776228792885896400,11.129896484375,-1.0462697744369507,-0.4671136140823364,2.305323600769043
1776228792905747500,11.14974755859375,-2.378953695297241,-0.5077790021896362,-0.2118963599205017
1776228792925597400,11.169597412109376,-3.1412901878356934,-0.41949039697647095,-2.110365152359009
1776228792945448700,11.18944873046875,-3.7486371994018555,-0.2178846001625061,-2.9090585708618164
1776228792965299700,11.2092998046875,-4.3056135177612305,-0.09643431752920151,-3.1114501953125
1776228792985150500,11.229150390625,-4.871661186218262,0.2963169515132904,-3.4269356727600098
1776228793005001500,11.24900146484375,-5.272493839263916,0.9068942666053772,-3.5157008171081543
1776228793024852500,11.2688525390625,-4.996687889099121,1.4443422555923462,-2.8664498329162598
1776228793044703500,11.288703369140626,-3.700817584991455,1.1469978094100952,-1.9450136423110962
1776228793064554500,11.308554443359375,-2.701159715652466,0.9859182834625244,-1.634621500968933
1776228793084404500,11.328404541015624,-2.1145577430725098,1.2352111339569092,-1.5138694047927856
1776228793104255500,11.34825537109375,-1.6675004959106445,1.4180656671524048,-1.400995135307312
1776228793124106800,11.368106689453125,-1.3940917253494263,1.1532129049301147,-1.4826645851135254
1776228793143957500,11.38795751953125,-1.1127657890319824,1.2326257228851318,-1.3489482402801514
1776228793163808500,11.40780859375,-0.1948367953300476,1.3141241073608398,-0.8475205898284912
1776228793183659500,11.427659423828125,0.7982439398765564,0.8141667246818542,-0.9530364274978638
1776228793203510500,11.447510498046874,1.8872731924057007,-0.3402100205421448,-1.5716108083724976
1776228793223360500,11.467360595703125,2.804945468902588,-1.4382576942443848,-1.8969229459762573
1776228793243211500,11.48721142578125,3.122091293334961,-2.0408802032470703,-1.4623461961746216
1776228793263062500,11.5070625,3.015706777572632,-2.0823771953582764,-0.2544432580471039
1776228793282913500,11.52691357421875,3.05670428276062,-1.7335196733474731,1.2867772579193115
1776228793302764300,11.546764404296875,3.6342577934265137,-1.6256054639816284,2.5708634853363037
1776228793322615600,11.566615478515626,4.069684028625488,-1.7887057065963745,3.15783953666687
1776228793342466600,11.586466552734375,4.228555202484131,-1.9803248643875122,3.2333433628082275
1776228793362316500,11.606316650390625,4.355996608734131,-2.1222798824310303,2.9219071865081787
1776228793382167600,11.62616748046875,4.472954750061035,-2.003974676132202,2.4831411838531494
1776228793402018600,11.6460185546875,4.466548442840576,-2.0287277698516846,2.3253819942474365
1776228793421869600,11.66586962890625,4.177687644958496,-1.9821430444717407,2.6874938011169434
1776228793441720600,11.685720458984376,3.5149238109588623,-1.9755371809005737,3.4739794731140137
1776228793461571300,11.7055712890625,2.1029646396636963,-1.8136740922927856,4.057765007019043
1776228793481422300,11.72542236328125,-0.33972519636154175,-0.7455990314483643,3.2179737091064453
1776228793501272300,11.745272216796875,-2.7528982162475586,0.4951786398887634,1.2155184745788574
1776228793521123600,11.76512353515625,-3.9171760082244873,0.9992412328720093,-0.6343269944190979
1776228793540974600,11.784974609375,-4.388874530792236,1.2326183319091797,-1.7543163299560547
1776228793560825600,11.80482568359375,-4.599369525909424,0.9946276545524597,-2.5567851066589355
1776228793580676600,11.824676513671875,-5.413280487060547,0.4676172733306885,-3.473013162612915
1776228793600527600,11.844527587890624,-6.255090713500977,0.5323387384414673,-3.886112689971924
1776228793620378400,11.86437841796875,-5.860593795776367,0.8296037912368774,-3.6307246685028076
1776228793640229400,11.8842294921875,-4.458152770996094,0.9790751934051514,-3.3389830589294434
1776228793660079400,11.904079345703124,-3.478062629699707,1.2011631727218628,-3.305070161819458
1776228793679930400,11.923930419921875,-3.192450523376465,1.58914315700531,-2.993509531021118
1776228793699781400,11.943781494140625,-2.585665464401245,1.6538892984390259,-2.4440877437591553
1776228793719632600,11.963632568359374,-1.6716753244400024,1.3308312892913818,-2.255962610244751
1776228793739483600,11.983483642578125,-1.3397233486175537,1.392185926437378,-2.324154853820801
1776228793759334700,12.003334716796875,-1.4520339965820312,1.7711600065231323,-2.1063241958618164
1776228793779185400,12.023185302734374,-1.1131694316864014,1.8860456943511963,-1.4055510759353638
1776228793799035600,12.04303564453125,-0.3013373613357544,1.4215842485427856,-0.9100308418273926
1776228793818886400,12.062886474609375,0.26761749386787415,0.7983004450798035,-1.0221189260482788
1776228793838737400,12.0827373046875,0.6842162013053894,0.04027216136455536,-1.235453724861145
1776228793858588000,12.102587890625,0.7639392614364624,-0.4644826054573059,-1.046281337738037
1776228793878439000,12.12243896484375,1.1927024126052856,-0.8431748747825623,-0.3024130165576935
1776228793898290000,12.1422900390625,1.9909026622772217,-1.4772282838821411,0.5676289200782776
1776228793918141000,12.162140869140625,2.6274356842041016,-2.1095025539398193,1.2262123823165894
1776228793937991000,12.181990966796874,3.046915054321289,-2.580259323120117,1.8040380477905273
1776228793957842000,12.201842041015626,3.2560181617736816,-2.5583395957946777,2.4473109245300293
1776228793977693000,12.22169287109375,3.6437880992889404,-2.2714717388153076,3.0066635608673096
1776228793997544000,12.2415439453125,4.389916896820068,-2.1604409217834473,3.201223373413086
1776228794017395000,12.26139501953125,4.688670635223389,-2.0989859104156494,2.981637954711914
1776228794037246000,12.281245849609375,4.549455642700195,-2.118649482727051,2.852280855178833
1776228794057097000,12.301096923828124,3.955113649368286,-2.2099714279174805,3.0527141094207764
1776228794076948000,12.320947998046876,2.8872692584991455,-2.1843760013580322,3.1261518001556396
1776228794096798000,12.3407978515625,1.5060304403305054,-1.3915213346481323,2.4332008361816406
1776228794116649000,12.36064892578125,-0.22608982026576996,-0.09788177907466888,0.6584282517433167
1776228794136500000,12.3805,-1.3689287900924683,0.3517620861530304,-1.1300301551818848
1776228794156351000,12.40035107421875,-2.3034708499908447,0.4012015461921692,-2.232112169265747
1776228794176201700,12.42020166015625,-3.272512197494507,0.6235280632972717,-2.5821831226348877
1776228794196052700,12.440052734375,-4.319370746612549,1.5671148300170898,-2.4491758346557617
1776228794215904000,12.459904052734375,-4.580234050750732,2.6396079063415527,-2.1839449405670166
1776228794235755000,12.479755126953124,-4.253937721252441,3.030608892440796,-2.3220179080963135
1776228794255605000,12.49960498046875,-3.928344964981079,2.5058372020721436,-3.0731143951416016
1776228794275456000,12.5194560546875,-3.9481754302978516,1.8206274509429932,-3.8422112464904785
1776228794295307000,12.53930712890625,-3.8650293350219727,1.9549099206924438,-4.061233043670654
1776228794315158000,12.559157958984375,-2.8535866737365723,2.4003684520721436,-3.6582353115081787
1776228794335008800,12.5790087890625,-1.6469138860702515,2.663623332977295,-3.2177369594573975
1776228794354859800,12.59885986328125,-1.401596188545227,2.5673630237579346,-3.1711554527282715
1776228794374710800,12.618710693359375,-1.8258165121078491,2.33622670173645,-2.9525506496429443
1776228794394560800,12.638560791015625,-2.1076745986938477,2.489741086959839,-2.3102715015411377
1776228794414412000,12.658412109375,-1.895811676979065,2.9413325786590576,-2.101844549179077
1776228794434263000,12.678262939453125,-1.272489070892334,2.258307456970215,-3.033101797103882
1776228794454114000,12.698114013671875,-0.2045450508594513,0.25475698709487915,-4.345879077911377
1776228794473965000,12.717965087890626,0.653423011302948,-1.2535111904144287,-4.852077960968018
1776228794493815800,12.73781591796875,1.0968376398086548,-1.6203664541244507,-4.382516860961914
1776228794513666800,12.757666748046875,1.6034080982208252,-1.2750232219696045,-3.113478660583496
1776228794533517800,12.777517822265626,2.2341346740722656,-0.9644684791564941,-1.4815421104431152
1776228794553367800,12.797367919921875,2.859874963760376,-0.9533279538154602,-0.19358333945274353
1776228794573218800,12.81721875,3.3422977924346924,-0.6367931962013245,0.6245538592338562
1776228794593069800,12.83706982421875,3.9237871170043945,-0.08273877203464508,1.262937068939209
1776228794612921000,12.856921142578125,4.615474224090576,0.42770400643348694,1.696361780166626
1776228794632772000,12.876772216796875,5.182410717010498,0.5964218378067017,1.6499511003494263
1776228794652622800,12.896622802734376,5.268184661865234,0.5727591514587402,1.3229176998138428
1776228794672473900,12.916473876953125,5.093092441558838,0.265357106924057,1.0340145826339722
1776228794692323800,12.93632373046875,4.207853317260742,0.09704989939928055,0.7069999575614929
1776228794712174800,12.9561748046875,2.9105515480041504,0.2872491776943207,0.4422415792942047
1776228794732025900,12.97602587890625,1.4957029819488525,0.7699960470199585,0.08802470564842224
1776228794751876900,12.995876953125,0.10611124336719513,1.391603946685791,-0.7177691459655762
1776228794771728000,13.015727783203126,-1.1460407972335815,1.7136434316635132,-1.6981284618377686
1776228794791579100,13.0355791015625,-2.8676302433013916,2.036492347717285,-2.5054874420166016
1776228794811430000,13.055429931640624,-4.335143089294434,2.5253708362579346,-2.715331554412842
1776228794831281000,13.075281005859376,-4.896708011627197,3.093674898147583,-2.570183515548706
1776228794851131400,13.09513134765625,-4.54548978805542,3.160546064376831,-2.7140252590179443
1776228794870982400,13.114982421875,-4.216500282287598,2.6547844409942627,-3.384678840637207
1776228794890833400,13.13483349609375,-4.424946308135986,2.160144090652466,-4.0264482498168945
1776228794910684400,13.154684326171875,-4.093008518218994,2.0090396404266357,-4.211666107177734
1776228794930535400,13.174535400390624,-2.845547676086426,2.204517126083374,-4.212826251983643
1776228794950386200,13.19438623046875,-1.8239730596542358,2.4319162368774414,-4.4545369148254395
1776228794970237200,13.2142373046875,-1.7739667892456055,2.347487688064575,-4.893230438232422
1776228794990088200,13.234088134765624,-1.647794246673584,1.7062926292419434,-5.119706153869629
1776228795009938200,13.253938232421875,-1.5094938278198242,1.475940227508545,-5.355714321136475
1776228795029789200,13.2737890625,-1.5807198286056519,2.014772653579712,-5.444942951202393
1776228795049640400,13.293640380859374,-1.721301555633545,2.616039276123047,-5.173623561859131
1776228795069491500,13.313491455078125,-1.3814208507537842,1.9765063524246216,-4.785656452178955
1776228795089342500,13.333342529296875,-0.4654208719730377,0.10573237389326096,-4.745948791503906
1776228795109193200,13.353193115234374,0.3166579008102417,-1.1449445486068726,-5.014647006988525
1776228795129044200,13.373044189453125,0.9014022350311279,-1.3609148263931274,-4.229938507080078
1776228795148894200,13.392894287109375,1.4886056184768677,-1.1281474828720093,-2.4073073863983154
1776228795168745200,13.4127451171875,2.178584098815918,-0.8682085871696472,-0.575949490070343
1776228795188596200,13.43259619140625,2.8337419033050537,-0.8627691268920898,0.6674071550369263
1776228795208447200,13.452447265625,3.290978193283081,-1.0872234106063843,1.2467784881591797
1776228795228298500,13.472298583984376,3.8877506256103516,-1.113896131515503,1.5606580972671509
1776228795248149500,13.4921494140625,4.263253688812256,-0.4332278072834015,2.0546672344207764
1776228795268000300,13.512000244140625,4.569863319396973,0.3433787524700165,2.652557373046875
1776228795287851300,13.531851318359376,4.730080604553223,0.6762325763702393,2.836637258529663
1776228795307701200,13.551701171875,4.422586441040039,0.5774700045585632,2.4313509464263916
1776228795327552300,13.57155224609375,3.6296756267547607,0.04999715834856033,1.9096604585647583
1776228795347403300,13.5914033203125,2.2704131603240967,-0.5528109669685364,1.602851390838623
1776228795367254300,13.611254150390625,0.4310816824436188,-0.49076515436172485,1.0949394702911377
1776228795387105300,13.631105224609374,-1.1102330684661865,0.07014451175928116,-0.08616755157709122
1776228795406956500,13.65095654296875,-1.8713492155075073,0.49478983879089355,-1.4012081623077393
1776228795426807300,13.670807373046875,-2.372250556945801,0.5998823642730713,-2.3906044960021973
1776228795446658300,13.690658203125,-2.902571439743042,0.6149225831031799,-2.856050968170166
1776228795466508300,13.71050830078125,-3.5277204513549805,1.0228265523910522,-2.978671073913574
1776228795486359300,13.730359375,-4.357383728027344,1.9597725868225098,-2.9354047775268555
1776228795506210300,13.750210205078124,-4.876344680786133,3.1546742916107178,-2.5763516426086426
1776228795526061300,13.770061279296876,-4.08951473236084,3.4063704013824463,-2.0633809566497803
1776228795545912300,13.789912353515625,-2.5280797481536865,2.205075263977051,-2.0240039825439453
1776228795565763300,13.809763427734374,-1.8070504665374756,1.372331976890564,-2.3715767860412598
1776228795585614000,13.829614013671875,-1.5808364152908325,1.4686707258224487,-2.586992025375366
1776228795605464300,13.84946435546875,-1.427512288093567,2.143052816390991,-2.5997581481933594
1776228795625315300,13.8693154296875,-1.6604796648025513,2.7525203227996826,-2.4890213012695312
1776228795645166300,13.889166259765625,-2.3054068088531494,2.936868190765381,-2.338141441345215
1776228795665017300,13.909017333984375,-2.5581603050231934,2.454343318939209,-2.1529641151428223
1776228795684868400,13.928868408203124,-1.977783203125,1.7829792499542236,-2.2382795810699463
1776228795704719400,13.94871923828125,-0.8041248917579651,0.747592568397522,-2.8034517765045166
1776228795724570400,13.9685703125,-0.3640136122703552,-0.40654322504997253,-3.337653636932373
1776228795744421000,13.988421142578124,-0.2611325979232788,-1.1411235332489014,-3.1495048999786377
1776228795764271400,14.008271240234375,0.14586064219474792,-1.0573686361312866,-2.0972354412078857
1776228795784122000,14.0281220703125,0.8658831119537354,-0.906337559223175,-0.5952275395393372
1776228795803973400,14.047973388671876,1.9374163150787354,-1.036505937576294,0.8554697632789612
1776228795823824400,14.067824462890625,2.922823429107666,-1.4436888694763184,1.891615867614746
1776228795843675400,14.08767529296875,3.6628799438476562,-1.8128662109375,2.5305325984954834
1776228795863526400,14.1075263671875,4.304791450500488,-1.8513131141662598,2.7966201305389404
1776228795883377700,14.127377685546875,4.817625999450684,-1.6784093379974365,2.721222400665283
1776228795903228400,14.147228515625,5.175844192504883,-1.5947602987289429,2.523484230041504
1776228795923078700,14.16707861328125,5.220340251922607,-1.5993032455444336,2.3022398948669434
1776228795942929400,14.186929443359375,5.059221267700195,-2.0053136348724365,2.1949856281280518
1776228795962780400,14.206780517578125,4.137055397033691,-2.4720895290374756,2.4803712368011475
1776228795982631400,14.22663134765625,2.3152036666870117,-1.7814584970474243,2.609266996383667
1776228796002482400,14.246482421875,0.4112756848335266,-0.2327170968055725,1.7196205854415894
1776228796022333400,14.26633349609375,-0.8546541929244995,0.6749095320701599,0.27942410111427307
1776228796042184400,14.286184326171876,-1.4252030849456787,0.3501279354095459,-0.8857020139694214
1776228796062035500,14.306035400390625,-2.1897051334381104,-0.5304148197174072,-1.7423882484436035
1776228796081885400,14.325885498046874,-3.2646169662475586,-1.0810422897338867,-2.39922833442688
1776228796101736400,14.345736328125,-4.026255130767822,-0.6023651957511902,-2.8434898853302
1776228796121587500,14.36558740234375,-3.93658185005188,0.5141316056251526,-2.9590578079223633
1776228796141438500,14.3854384765625,-3.3944830894470215,1.412677526473999,-2.8163278102874756
1776228796161289500,14.40528955078125,-2.696065902709961,1.4531275033950806,-2.6289594173431396
1776228796181140500,14.425140380859375,-2.3904361724853516,1.229315996170044,-2.5934126377105713
1776228796200991500,14.444991455078124,-2.1773605346679688,1.469004511833191,-2.3608062267303467
1776228796220842200,14.46484228515625,-1.895851969718933,2.126028299331665,-1.8875669240951538
1776228796240692500,14.4846923828125,-2.0638813972473145,2.5951929092407227,-1.6241289377212524
1776228796260543200,14.504543212890624,-2.5196869373321533,2.5496931076049805,-1.6844327449798584
1776228796280394500,14.52439453125,-2.6293540000915527,2.0164449214935303,-1.871339201927185
1776228796300245500,14.54424560546875,-1.7159370183944702,0.896002471446991,-2.064523935317993
1776228796320096500,14.564096435546874,-0.388357937335968,-0.350647509098053,-1.9675427675247192
1776228796339947500,14.583947509765625,0.47557854652404785,-1.0272525548934937,-1.4903947114944458
1776228796359798500,14.603798583984375,1.0041123628616333,-1.1543879508972168,-0.6506652235984802
1776228796379649300,14.623649169921874,1.5946812629699707,-1.2045139074325562,0.4879090189933777
1776228796399499500,14.64349951171875,2.3243491649627686,-1.5094150304794312,1.6010183095932007
1776228796419350300,14.663350341796875,3.15773868560791,-1.971428632736206,2.3978078365325928
1776228796439201300,14.683201171875,3.702700614929199,-2.2666144371032715,2.9395086765289307
1776228796459052500,14.703052490234375,4.021000862121582,-2.185249090194702,3.3659303188323975
1776228796478903600,14.722903564453125,4.341434001922607,-1.9354865550994873,3.718825340270996
1776228796498754600,14.742754638671874,4.622385025024414,-1.7829318046569824,3.868608236312866
1776228796518605600,14.76260546875,4.795875549316406,-1.7542815208435059,3.7601449489593506
1776228796538455600,14.78245556640625,4.706434726715088,-1.9329930543899536,3.5455408096313477
1776228796558306600,14.802306640625,3.734971761703491,-2.0898959636688232,3.0914676189422607
1776228796578157300,14.8221572265625,2.051438331604004,-1.753141164779663,2.777992010116577
1776228796598008300,14.84200830078125,-0.24503152072429657,-0.38250499963760376,2.4076147079467773
1776228796617859300,14.861859375,-2.2013556957244873,0.9004419445991516,1.5794390439987183
1776228796637710300,14.88171044921875,-3.4001379013061523,1.5054121017456055,0.5050792098045349
1776228796657561600,14.9015615234375,-3.940875291824341,1.1985267400741577,-0.6173474192619324
1776228796677412600,14.92141259765625,-4.504173278808594,0.39179521799087524,-1.881101131439209
1776228796697263400,14.941263427734375,-5.236851215362549,-0.3347603380680084,-3.062312126159668
1776228796717113600,14.961113525390624,-5.762604236602783,-0.2887260615825653,-3.623142957687378
1776228796736964400,14.98096435546875,-5.310362339019775,0.4585513770580292,-3.425938844680786
1776228796756815400,15.0008154296875,-3.6916143894195557,1.019199252128601,-2.8620526790618896
1776228796776666400,15.020666259765624,-2.327694892883301,1.1504120826721191,-2.4113576412200928
1776228796796517400,15.040517333984376,-1.9762221574783325,1.2272754907608032,-1.8288391828536987
1776228796816368400,15.060368408203125,-1.9237946271896362,1.449385404586792,-1.2685174942016602
1776228796836219600,15.0802197265625,-1.7611465454101562,1.741487741470337,-0.9215316772460938
1776228796856070400,15.1000703125,-1.9044772386550903,2.0144476890563965,-0.6216000914573669
1776228796875920600,15.119920654296875,-2.1976425647735596,1.5237747430801392,-0.6807496547698975
1776228796895771400,15.139771484375,-1.816136360168457,0.7836018800735474,-1.1859068870544434
1776228796915622400,15.159622314453125,-0.17907601594924927,0.007749025709927082,-1.6078468561172485
1776228796935473400,15.179473388671875,1.2593010663986206,-0.7756384611129761,-1.298980712890625
1776228796955324400,15.199324462890624,1.9041343927383423,-1.1813359260559082,-0.3975878059864044
1776228796975175700,15.21917578125,2.659679889678955,-1.426533579826355,0.7489691376686096
1776228796995026700,15.239026611328125,3.6135663986206055,-1.7470391988754272,1.6027581691741943
1776228797014876700,15.258876708984374,4.301905155181885,-1.9811084270477295,2.0809061527252197
1776228797034727700,15.278727783203125,4.677803039550781,-1.9980590343475342,2.5618627071380615
1776228797054578400,15.298578369140625,4.763017177581787,-1.5290277004241943,3.047586441040039
1776228797074429400,15.318429443359374,4.887570858001709,-0.9803505539894104,3.3136959075927734
1776228797094280400,15.338280517578125,5.2209882736206055,-0.8099058270454407,3.215625047683716
1776228797114131500,15.35813134765625,5.660576820373535,-1.2369601726531982,3.165247678756714
1776228797133982500,15.377982421875,5.254234790802002,-1.8665107488632202,3.186677932739258
1776228797153833700,15.397833740234375,3.465548276901245,-1.9741696119308472,2.919473886489868
1776228797173684500,15.4176845703125,0.9859893321990967,-1.1474026441574097,2.3025104999542236
1776228797193534700,15.43753466796875,-1.3533999919891357,-0.1517850011587143,1.2818174362182617
1776228797213385500,15.457385498046875,-2.7302918434143066,0.3865778148174286,0.23496584594249725
1776228797233236500,15.477236572265625,-3.423471212387085,0.5655653476715088,-0.6098194718360901
1776228797253087500,15.49708740234375,-4.009555816650391,0.53654944896698,-1.3045397996902466
1776228797272938500,15.5169384765625,-4.5393218994140625,0.37743228673934937,-2.0788679122924805
1776228797292789500,15.53678955078125,-4.86675500869751,0.1972651332616806,-2.9882853031158447
1776228797312640500,15.556640625,-4.882055759429932,0.23125244677066803,-3.6543874740600586
1776228797332491500,15.576491455078125,-4.53682279586792,0.7697247266769409,-3.6050527095794678
1776228797352341500,15.596341552734375,-3.525282144546509,1.223934292793274,-3.0819144248962402
1776228797372192500,15.616192626953126,-2.7135746479034424,1.5535597801208496,-2.6994376182556152
1776228797392043500,15.63604345703125,-2.3836281299591064,1.8094192743301392,-2.451326370239258
1776228797411894500,15.65589453125,-2.3457911014556885,1.8176943063735962,-2.1937255859375
1776228797431745500,15.67574560546875,-2.3439455032348633,2.0209014415740967,-1.73159921169281
1776228797451596500,15.695596435546875,-1.95098078250885,2.3632383346557617,-1.049210786819458
1776228797471447600,15.715447509765625,-1.1852291822433472,2.2589802742004395,-0.584738552570343
1776228797491298600,15.735298583984376,-0.7054018378257751,1.5742571353912354,-1.0625486373901367
1776228797511148500,15.7551484375,-0.3586253523826599,0.4683535695075989,-1.783692717552185
1776228797530999300,15.774999267578124,0.21653123199939728,-0.8211297392845154,-2.0029170513153076
1776228797550850600,15.7948505859375,1.1824333667755127,-1.821168303489685,-1.3781569004058838
1776228797570701600,15.81470166015625,2.063716173171997,-2.1744799613952637,-0.27355802059173584
1776228797590552600,15.834552490234374,2.8196656703948975,-2.192826271057129,0.8447989225387573
1776228797610403600,15.854403564453126,3.4312639236450195,-2.1721389293670654,1.900020718574524
1776228797630254600,15.874254638671875,3.830780506134033,-2.1484334468841553,2.766801595687866
1776228797650105600,15.894105712890624,4.140787601470947,-1.980318546295166,3.2848339080810547
1776228797669955600,15.91395556640625,4.529030799865723,-1.699304461479187,3.4362027645111084
1776228797689806300,15.933806396484375,4.855592727661133,-1.539852499961853,3.367656946182251
1776228797709657300,15.9536572265625,5.180997848510742,-1.5435538291931152,3.3672802448272705
1776228797729508600,15.973508544921875,5.0667572021484375,-1.8260587453842163,3.469956398010254
1776228797749359600,15.993359619140625,4.08599853515625,-2.013841390609741,3.0943691730499268
1776228797769210600,16.013210693359376,2.485025405883789,-1.52269446849823,2.3507137298583984
1776228797789061600,16.0330615234375,0.7792811989784241,-0.6744412183761597,1.325865626335144
1776228797808912600,16.05291259765625,-0.5922622680664062,-0.15737496316432953,0.1374645233154297
1776228797828762600,16.0727626953125,-1.5319610834121704,0.023896578699350357,-0.7499641180038452
1776228797848613000,16.092613037109373,-2.3493573665618896,0.14316172897815704,-1.236794352531433
1776228797868463900,16.1124638671875,-2.9980862140655518,0.45885172486305237,-1.507541537284851
1776228797888315000,16.13231494140625,-3.433289051055908,0.815678596496582,-1.870512843132019
1776228797908166000,16.152165771484373,-3.4239964485168457,0.9451096057891846,-2.4115560054779053
1776228797928017000,16.172016845703126,-3.035794258117676,0.9588187336921692,-3.0806331634521484
1776228797947868000,16.191867919921876,-2.743363380432129,1.0446833372116089,-3.80975341796875
1776228797967719000,16.211718994140625,-2.6054277420043945,1.0039345026016235,-4.291538715362549
1776228797987569000,16.23156884765625,-2.5425305366516113,1.3723468780517578,-4.245667934417725
1776228798007420200,16.251420166015624,-2.4975662231445312,2.103227138519287,-3.8524210453033447
1776228798027271000,16.27127099609375,-2.7003233432769775,2.7342443466186523,-3.4336605072021484
1776228798047122000,16.291121826171874,-2.9156382083892822,3.209212064743042,-2.8991332054138184
1776228798066973000,16.310972900390624,-2.694060802459717,2.9028146266937256,-2.6583266258239746
1776228798086824000,16.330823974609373,-2.464874029159546,2.071289539337158,-2.936924934387207
1776228798106675000,16.350675048828126,-1.7628933191299438,1.3731889724731445,-2.918259620666504
1776228798126526000,16.37052587890625,-0.760932207107544,0.8989953398704529,-2.741454839706421
1776228798146376000,16.3903759765625,0.051731664687395096,0.15079036355018616,-2.250115394592285
1776228798166227000,16.41022705078125,1.0899728536605835,-0.80740886926651,-0.8347144722938538
1776228798186078000,16.430077880859375,2.358065605163574,-1.450042724609375,0.8225110769271851
1776228798205929000,16.449928955078125,3.7189581394195557,-1.666959285736084,2.1217880249023438
1776228798225780000,16.469780029296874,4.690744876861572,-1.6149225234985352,2.816362142562866
1776228798245631000,16.489630859375,5.075626850128174,-1.5498664379119873,2.836122989654541
1776228798265482000,16.50948193359375,5.318948745727539,-1.8494740724563599,2.3775413036346436
1776228798285333000,16.5293330078125,5.469928741455078,-2.2984118461608887,1.770092248916626
1776228798305183000,16.549182861328124,5.687661647796631,-2.8392183780670166,1.438516616821289
1776228798325034000,16.569033935546877,5.542868137359619,-3.571486711502075,1.327897310256958
1776228798344885000,16.588885009765626,4.655734062194824,-4.198574066162109,1.526961326599121
1776228798364735700,16.60873583984375,2.912501335144043,-3.5557103157043457,1.3987332582473755
1776228798384587000,16.6285869140625,1.2412574291229248,-1.8384780883789062,0.2956058382987976
1776228798404438000,16.64843798828125,0.5718230605125427,-1.0229896306991577,-1.2453597784042358
1776228798424289000,16.6682890625,0.7093597650527954,-1.580343246459961,-3.073432445526123
1776228798444140000,16.68814013671875,0.7131584286689758,-2.5299198627471924,-4.770299911499023
1776228798463990000,16.707989990234374,0.48737168312072754,-2.916422128677368,-5.85463285446167
1776228798483841000,16.727841064453123,0.2905997633934021,-2.071084499359131,-6.33500337600708
1776228798503692000,16.747692138671876,0.41314464807510376,-0.949731171131134,-6.504262447357178
1776228798523542800,16.767542724609374,0.6345989108085632,0.015703866258263588,-6.509222507476807
1776228798543393800,16.787393798828123,1.2234169244766235,0.33713382482528687,-6.208137512207031
1776228798563245000,16.8072451171875,1.8640104532241821,0.03113315999507904,-5.704800605773926
1776228798583096000,16.827095947265626,2.2185211181640625,0.2679808735847473,-5.095165729522705
1776228798602947000,16.846947021484375,2.9207704067230225,1.217528223991394,-4.157739162445068
1776228798622797000,16.866797119140625,3.292726755142212,1.1515817642211914,-2.561746597290039
1776228798642648000,16.88664794921875,3.628735065460205,0.4207605719566345,-0.9375019669532776
1776228798662499000,16.9064990234375,3.850379705429077,-0.007112741470336914,0.4299183785915375
1776228798682349800,16.926349853515624,4.04524040222168,0.4615689516067505,0.32824355363845825
1776228798702200800,16.946200927734374,4.152965068817139,0.6757997870445251,-0.34459736943244934
1776228798722051800,16.9660517578125,4.254724502563477,1.6208233833312988,-0.6677287220954895
1776228798741902800,16.98590283203125,3.8973913192749023,2.7234222888946533,-1.3290032148361206
1776228798761754000,17.005754150390626,2.8144893646240234,3.026918649673462,-2.0210962295532227
1776228798781604000,17.02560400390625,1.0553983449935913,1.5367851257324219,-1.70197594165802
1776228798801455000,17.045455078125,-0.01132095605134964,-0.5507110953330994,-0.5349597334861755
1776228798821306000,17.06530615234375,0.21046362817287445,-1.904026985168457,0.4535755515098572
1776228798841156900,17.085156982421875,1.200507640838623,-0.8544378876686096,0.66636723279953
1776228798861008000,17.1050078125,1.0408309698104858,1.5997201204299927,0.5870934724807739
1776228798880859100,17.124859130859374,0.9834603071212769,0.9632939100265503,0.8785810470581055
1776228798900710100,17.144710205078123,1.2000499963760376,0.8949041962623596,0.788367509841919
1776228798920561200,17.16456103515625,1.1691759824752808,0.7107979655265808,0.6017125844955444
1776228798940412200,17.184412109375,0.8673720359802246,0.5942397117614746,0.5185697674751282
1776228798960262100,17.20426220703125,0.724590003490448,0.7459112405776978,0.47870904207229614
1776228798980113200,17.224113037109376,0.7893568873405457,0.6986497044563293,0.4058605432510376
1776228798999964000,17.2439638671875,0.6467264294624329,0.5409764647483826,0.15847277641296387
1776228799019815000,17.26381494140625,0.46542736887931824,0.3089299499988556,-0.3022770583629608
1776228799039666000,17.283666015625,0.6754324436187744,-0.9293015003204346,-0.8789511322975159
1776228799059517200,17.30351708984375,0.6873509883880615,-1.089249610900879,-1.5228906869888306
1776228799079368200,17.3233681640625,0.36635977029800415,-2.069209098815918,-1.1993662118911743
1776228799099218200,17.34321826171875,0.4544695317745209,-1.6658189296722412,-0.6771228313446045
1776228799119069200,17.363069091796874,0.502951979637146,-0.9589999914169312,-0.13926085829734802
1776228799138920200,17.382920166015627,0.448483943939209,-0.5277436971664429,-0.0722636878490448
1776228799158771000,17.40277099609375,0.5245732069015503,-0.17305955290794373,-0.2184617668390274
1776228799178622000,17.4226220703125,0.6019574999809265,0.031010139733552933,-0.2871953845024109
1776228799198473000,17.442472900390626,0.32958701252937317,-0.09435837715864182,-0.25478991866111755
1776228799218324000,17.462323974609376,0.2517302632331848,-0.014921139925718307,-0.150377556681633
1776228799238175000,17.482175048828125,0.48261892795562744,0.32725781202316284,-0.07685934007167816
1776228799258025000,17.50202490234375,0.4705750346183777,0.604064404964447,-0.1686510294675827
1776228799277876200,17.521876220703124,0.4615163803100586,0.9372372627258301,-0.36593446135520935
1776228799297727200,17.541727294921873,0.4568758010864258,0.9489181637763977,-0.08977372944355011
