time,seconds_elapsed,z,y,x
1776228781820300000,0.064300048828125,0.05987425148487091,0.6268673539161682,1.5807669162750244
1776228781840151000,0.084151123046875,0.23041749000549316,0.014240987598896027,1.24746835231781
1776228781860002000,0.104001953125,0.600500762462616,0.821670413017273,0.6794437766075134
1776228781879852000,0.12385205078125,1.064353108406067,1.2774046659469604,0.13048264384269714
1776228781899703000,0.143703125,1.1116598844528198,1.0904688835144043,-0.27910301089286804
1776228781919554000,0.163553955078125,0.6501567363739014,0.23795583844184875,-0.42458829283714294
1776228781939405000,0.183405029296875,0.1142224445939064,-0.20209957659244537,-0.32815125584602356
1776228781959256000,0.203256103515625,-0.090586356818676,0.42204737663269043,-0.14636200666427612
1776228781979106300,0.223106201171875,-0.05757221579551697,0.7485232353210449,0.12176372110843658
1776228781998957000,0.24295703125,0.01883760280907154,1.2673640251159668,0.11055687069892883
1776228782018808000,0.26280810546875,-0.008130896836519241,1.0699955224990845,-0.3483385443687439
1776228782038659000,0.2826591796875,0.01968049444258213,0.7753279209136963,-1.1685879230499268
1776228782058509000,0.302509033203125,0.047573111951351166,1.0934488773345947,-1.5964958667755127
1776228782078360000,0.322360107421875,-0.031011179089546204,1.3227516412734985,-1.5566136837005615
1776228782098211000,0.342211181640625,-0.013295832090079784,1.2050294876098633,-1.280575156211853
1776228782118062000,0.36206201171875,0.09047903120517731,1.8807318210601807,-1.0831056833267212
1776228782137913000,0.3819130859375,-0.42975908517837524,2.775120258331299,-0.7174071073532104
1776228782157763000,0.40176318359375,-0.634642481803894,3.261627197265625,-0.06743256747722626
1776228782177614000,0.421614013671875,-0.34668177366256714,2.8044683933258057,0.263340562582016
1776228782197465000,0.441465087890625,-0.33954665064811707,2.4509589672088623,0.49945640563964844
1776228782217316000,0.461316162109375,-0.5236701369285583,2.16876220703125,1.002645492553711
1776228782237167000,0.4811669921875,-0.7206873297691345,1.2000893354415894,1.4229756593704224
1776228782257017000,0.50101708984375,-0.8395788669586182,0.6485572457313538,1.5360013246536255
1776228782276868000,0.5208681640625,-0.5992642641067505,-0.1093003898859024,1.5700780153274536
1776228782296719000,0.540718994140625,-0.42896920442581177,-1.5837355852127075,1.8085696697235107
1776228782316570000,0.560570068359375,-0.2674711346626282,-2.9382691383361816,2.3355929851531982
1776228782336420000,0.580420166015625,-0.2781258821487427,-3.542146921157837,3.1125833988189697
1776228782356271000,0.60027099609375,-0.3463379740715027,-3.348858118057251,3.693756103515625
1776228782376122000,0.6201220703125,-0.5759216547012329,-3.1139543056488037,4.042963027954102
1776228782395972900,0.639972900390625,-0.6568958163261414,-2.594177722930908,4.147917747497559
1776228782415824100,0.65982421875,-0.5310670733451843,-1.3701622486114502,3.9727730751037598
1776228782435674000,0.679674072265625,-0.43554455041885376,0.0649571642279625,3.5279366970062256
1776228782455525000,0.699525146484375,-0.30212152004241943,1.2516340017318726,2.695028305053711
1776228782475376000,0.719376220703125,-0.29301854968070984,1.759373426437378,1.5255686044692993
1776228782495227100,0.73922705078125,-0.3850765824317932,1.330803632736206,0.6324378848075867
1776228782515078100,0.759078125,-0.7459405064582825,1.2056330442428589,0.08559346199035645
1776228782534928100,0.77892822265625,-1.1476575136184692,0.560907244682312,0.05661853775382042
1776228782554779100,0.798779052734375,-1.5790777206420898,0.676864743232727,-0.06732843816280365
1776228782574630100,0.818630126953125,-1.6182639598846436,1.6361582279205322,-0.5350114703178406
1776228782594481000,0.83848095703125,-1.6077524423599243,2.671825408935547,-1.1028658151626587
1776228782614332000,0.858331787109375,-1.5490529537200928,2.8922369480133057,-1.8428539037704468
1776228782634182000,0.878181884765625,-1.3074040412902832,2.197051525115967,-2.5488100051879883
1776228782654033200,0.898033203125,-1.2397313117980957,2.288881778717041,-3.029723644256592
1776228782673884200,0.91788427734375,-1.4219626188278198,3.2218408584594727,-3.336970090866089
1776228782693735200,0.937735107421875,-1.5954755544662476,3.122300386428833,-3.675593376159668
1776228782713586200,0.957586181640625,-1.3512541055679321,2.4306793212890625,-3.764853000640869
1776228782733436200,0.977436279296875,-1.0404016971588135,2.856283664703369,-2.7623400688171387
1776228782753287200,0.997287109375,-0.7015053629875183,3.172020673751831,-1.3459168672561646
1776228782773138000,1.017137939453125,-0.5197843313217163,2.811312437057495,-0.5593008399009705
1776228782792989000,1.036989013671875,-0.43636879324913025,2.1065926551818848,-0.45282793045043945
1776228782812840000,1.05683984375,-0.05703265964984894,1.232030987739563,0.05846970155835152
1776228782832690000,1.07668994140625,0.4942728281021118,0.38955947756767273,1.6717690229415894
1776228782852541000,1.096541015625,1.2342818975448608,-0.42677876353263855,3.2031407356262207
1776228782872392000,1.116391845703125,2.276977062225342,-1.2515836954116821,3.7028250694274902
1776228782892243000,1.136242919921875,3.3035717010498047,-1.9049454927444458,3.6178946495056152
1776228782912094000,1.156093994140625,3.9595985412597656,-2.410846710205078,3.3014137744903564
1776228782931944000,1.17594384765625,4.178036212921143,-2.9398674964904785,2.942403554916382
1776228782951795000,1.195794921875,4.13083028793335,-3.0679750442504883,2.911184787750244
1776228782971646000,1.21564599609375,4.183890342712402,-2.822580099105835,3.3049733638763428
1776228782991496700,1.23549658203125,4.094839096069336,-2.462083339691162,3.706479549407959
1776228783011348000,1.255347900390625,3.4431209564208984,-1.741352915763855,3.5402114391326904
1776228783031197700,1.27519775390625,2.364199638366699,-1.1203290224075317,2.658034563064575
1776228783051049000,1.295049072265625,1.0185046195983887,-0.8765110373497009,1.509643793106079
1776228783070900000,1.31489990234375,-0.19788672029972076,-0.5078853368759155,0.5218932628631592
1776228783090751000,1.3347509765625,-1.0141322612762451,-0.08208155632019043,-0.2503379285335541
1776228783110602000,1.35460205078125,-1.8004635572433472,0.29629024863243103,-1.0500953197479248
1776228783130452000,1.374451904296875,-2.8277406692504883,0.8775674700737,-1.8495150804519653
1776228783150303000,1.394302978515625,-4.245285511016846,2.0791144371032715,-2.4925336837768555
1776228783170154000,1.414154052734375,-4.843578338623047,2.810777425765991,-2.6888906955718994
1776228783190004700,1.434004638671875,-4.369375705718994,2.488112211227417,-2.842432737350464
1776228783209855700,1.453855712890625,-3.744682550430298,2.2848854064941406,-3.198505401611328
1776228783229705700,1.473705810546875,-3.05763840675354,2.194669246673584,-3.333268165588379
1776228783249557000,1.493556884765625,-2.21370792388916,1.8466074466705322,-3.3446452617645264
1776228783269408000,1.513407958984375,-1.5183658599853516,1.6667097806930542,-3.2717392444610596
1776228783289259000,1.533259033203125,-1.2774512767791748,1.8098331689834595,-3.144380807876587
1776228783309110000,1.553110107421875,-1.353569507598877,2.1422557830810547,-2.977992057800293
1776228783328960800,1.572960693359375,-1.0223404169082642,2.2172367572784424,-2.3157501220703125
1776228783348811000,1.59281103515625,-0.3764449954032898,1.7805386781692505,-1.8728810548782349
1776228783368661800,1.612661865234375,0.3186805248260498,1.132852554321289,-1.784321904182434
1776228783388512800,1.6325126953125,0.8302245140075684,0.35627394914627075,-2.0945229530334473
1776228783408363800,1.65236376953125,1.3310588598251343,-0.550818681716919,-2.6420631408691406
1776228783428214800,1.67221484375,1.7445933818817139,-1.6118100881576538,-2.7162818908691406
1776228783448064800,1.692064697265625,2.0406975746154785,-2.415693998336792,-1.8645973205566406
1776228783467916000,1.711916015625,2.162656545639038,-3.670358896255493,-0.5429069399833679
1776228783487767000,1.73176708984375,1.7170305252075195,-4.37420654296875,0.40978193283081055
1776228783507618000,1.7516181640625,1.4864020347595215,-3.4300596714019775,1.0678067207336426
1776228783527468800,1.77146875,1.802834391593933,-2.9630982875823975,2.3020689487457275
1776228783547319000,1.791319091796875,1.7606221437454224,-3.2120721340179443,3.7531638145446777
1776228783567169800,1.811169677734375,1.8632899522781372,-3.794994354248047,4.1849284172058105
1776228783587020800,1.831020751953125,1.9745429754257202,-3.6419625282287598,3.735400676727295
1776228783606871800,1.850871826171875,1.7990853786468506,-3.5729727745056152,3.2939040660858154
1776228783626722800,1.870722900390625,1.3446563482284546,-3.3759407997131348,2.8478097915649414
1776228783646574000,1.890573974609375,0.4810566306114197,-3.0687124729156494,2.610883951187134
1776228783666423800,1.910423828125,-0.7727143168449402,-1.805392861366272,2.6851322650909424
1776228783686275000,1.930275146484375,-1.4808810949325562,-0.6683266758918762,2.777118682861328
1776228783706126000,1.9501259765625,-1.875999093055725,-0.17839770019054413,1.424329400062561
1776228783725976800,1.969976806640625,-2.8807311058044434,0.5317651033401489,-0.4843760132789612
1776228783745827800,1.989827880859375,-3.238882064819336,1.5563310384750366,-1.1648589372634888
1776228783765677800,2.009677734375,-3.0167887210845947,2.1859025955200195,-1.5783379077911377
1776228783785528800,2.02952880859375,-3.3234498500823975,2.346039056777954,-3.06007719039917
1776228783805379800,2.0493798828125,-3.317805767059326,1.927558422088623,-4.445911407470703
1776228783825230800,2.06923095703125,-2.524268388748169,1.4566420316696167,-4.772711277008057
1776228783845082000,2.08908203125,-1.624582052230835,1.2483596801757812,-4.4085307121276855
1776228783864933000,2.10893310546875,-1.1011539697647095,1.623021125793457,-3.8004767894744873
1776228783884783000,2.128783203125,-0.6185159683227539,1.7066411972045898,-3.241806745529175
1776228783904634000,2.148634033203125,-0.4300645589828491,1.5917503833770752,-3.1310930252075195
1776228783924484900,2.16848486328125,-0.7689267992973328,1.856781244277954,-3.0279407501220703
1776228783944336000,2.1883359375,-1.4600770473480225,2.835242986679077,-2.526942491531372
1776228783964187100,2.208187255859375,-1.6148362159729004,3.2635433673858643,-1.5540781021118164
1776228783984036900,2.228036865234375,-0.38455912470817566,2.2637131214141846,-0.6337966322898865
1776228784003888000,2.24788818359375,0.7370567321777344,1.0687435865402222,-0.9154504537582397
1776228784023739100,2.2677392578125,1.694345474243164,-0.5810972452163696,-2.0014076232910156
1776228784043590100,2.287590087890625,2.065722942352295,-1.7670105695724487,-2.1403496265411377
1776228784063441200,2.307441162109375,1.6913142204284668,-1.916200041770935,-0.06884004920721054
1776228784083291100,2.327291015625,1.4398020505905151,-2.116765022277832,3.125140905380249
1776228784103142100,2.34714208984375,1.9861671924591064,-2.378598213195801,5.324289798736572
1776228784122993000,2.366992919921875,2.634673833847046,-2.5183358192443848,5.875131607055664
1776228784142844000,2.386843994140625,3.0113673210144043,-2.471809148788452,5.4813079833984375
1776228784162695000,2.40669482421875,3.27754807472229,-2.40669584274292,4.715828895568848
1776228784182546200,2.426546142578125,3.3752846717834473,-2.6519486904144287,4.273863315582275
1776228784202396000,2.44639599609375,3.017364740371704,-2.9329984188079834,4.100307941436768
1776228784222247200,2.4662470703125,2.5403711795806885,-2.6644513607025146,3.8671839237213135
1776228784242098200,2.48609814453125,2.0100412368774414,-2.123237133026123,3.2414462566375732
1776228784261949200,2.50594921875,0.8987324237823486,-1.858810305595398,2.1709372997283936
1776228784281800000,2.525800048828125,-0.8427264094352722,-1.4381946325302124,0.6461795568466187
1776228784301651000,2.54565087890625,-2.3174972534179688,-0.7221728563308716,-0.9324864149093628
1776228784321501000,2.5655009765625,-3.324517011642456,0.5505512952804565,-2.4805657863616943
1776228784341352000,2.58535205078125,-3.514292001724243,1.8697108030319214,-3.509730815887451
1776228784361203000,2.605202880859375,-3.7392759323120117,2.312887191772461,-3.960345506668091
1776228784381054000,2.625053955078125,-4.320996284484863,2.1231226921081543,-4.416265964508057
1776228784400905200,2.6449052734375,-4.270328521728516,2.5608410835266113,-4.226407527923584
1776228784420756200,2.664756103515625,-3.5182595252990723,3.023611307144165,-3.371328115463257
1776228784440606200,2.684606201171875,-2.570927619934082,2.541930675506592,-2.9754841327667236
1776228784460457000,2.70445703125,-1.7346420288085938,2.0633325576782227,-2.9888436794281006
1776228784480308000,2.724307861328125,-1.1838080883026123,1.7801580429077148,-3.0137546062469482
1776228784500159000,2.744158935546875,-0.9647819995880127,1.9143505096435547,-2.86539888381958
1776228784520010000,2.764010009765625,-0.9835866093635559,2.2067086696624756,-2.5794482231140137
1776228784539860000,2.78385986328125,-1.0019818544387817,2.2982747554779053,-2.1614792346954346
1776228784559711000,2.8037109375,-0.8972418904304504,2.011092185974121,-1.3086720705032349
1776228784579562000,2.82356201171875,-0.21063180267810822,1.509084701538086,-0.012827381491661072
1776228784599413000,2.8434130859375,0.8667507767677307,0.8177046775817871,0.49243447184562683
1776228784619264000,2.863263916015625,1.7779098749160767,-0.5330969095230103,-0.16240009665489197
1776228784639115000,2.883114990234375,2.2664875984191895,-1.9382262229919434,-0.740817129611969
1776228784658965000,2.902965087890625,2.7279491424560547,-2.9035842418670654,-0.16927717626094818
1776228784678816000,2.92281591796875,2.8372504711151123,-3.3548052310943604,1.194601058959961
1776228784698667000,2.9426669921875,2.9067258834838867,-3.3265254497528076,2.6439125537872314
1776228784718518000,2.96251806640625,3.1208317279815674,-3.0182957649230957,3.7615318298339844
1776228784738369000,2.982369140625,3.3121542930603027,-2.7247824668884277,4.3060126304626465
1776228784758220000,3.002219970703125,3.4878954887390137,-2.4878547191619873,4.4289774894714355
1776228784778070000,3.022070068359375,3.7402336597442627,-2.435854196548462,4.278263092041016
1776228784797921000,3.041921142578125,3.8278820514678955,-2.5246620178222656,3.993476152420044
1776228784817772000,3.06177197265625,3.5614335536956787,-2.471930742263794,3.634005069732666
1776228784837622500,3.08162255859375,2.951615810394287,-2.1904125213623047,3.0661914348602295
1776228784857473500,3.1014736328125,1.823473572731018,-1.7123459577560425,2.248760938644409
1776228784877323500,3.121323486328125,0.35370108485221863,-0.8006870746612549,0.9613012671470642
1776228784897174500,3.141174560546875,-0.9532588124275208,0.07094847410917282,-0.41047167778015137
1776228784917025500,3.161025634765625,-2.109123945236206,0.3846166431903839,-1.4535530805587769
1776228784936876800,3.180876708984375,-3.014430046081543,0.5267463326454163,-2.2907419204711914
1776228784956727800,3.200727783203125,-3.6886203289031982,1.005690097808838,-2.9478790760040283
1776228784976578800,3.220578857421875,-4.64809513092041,2.2024552822113037,-3.3615803718566895
1776228784996428800,3.2404287109375,-5.048542022705078,3.45029354095459,-2.9374775886535645
1776228785016279800,3.26027978515625,-4.4432477951049805,3.1125950813293457,-2.2971880435943604
1776228785036130600,3.280130615234375,-2.9370834827423096,1.6269996166229248,-2.5258662700653076
1776228785055981600,3.299981689453125,-1.8918105363845825,1.0513153076171875,-2.992882251739502
1776228785075832600,3.31983251953125,-1.3412501811981201,1.4343271255493164,-3.057223081588745
1776228785095683600,3.33968359375,-1.1403563022613525,1.9852938652038574,-2.8472397327423096
1776228785115533600,3.359533447265625,-1.2266101837158203,2.2033674716949463,-2.6678566932678223
1776228785135384600,3.379384521484375,-1.5347591638565063,2.0543181896209717,-1.9260382652282715
1776228785155235800,3.39923583984375,-1.535285472869873,1.9855670928955078,-0.31195148825645447
1776228785175086800,3.4190869140625,-0.803882896900177,1.6592822074890137,0.7307162880897522
1776228785194937600,3.4389375,0.13365046679973602,0.9067842364311218,0.38344433903694153
1776228785214788600,3.45878857421875,1.074447751045227,-0.4543667137622833,-0.21029146015644073
1776228785234638600,3.478638671875,1.8723593950271606,-2.0013585090637207,-0.2798606753349304
1776228785254489600,3.498489501953125,2.325453042984009,-3.0996921062469482,0.20959609746932983
1776228785274340600,3.518340576171875,2.5018036365509033,-3.3056039810180664,1.2059201002120972
1776228785294191600,3.538191650390625,2.758819341659546,-2.862654447555542,2.619211435317993
1776228785314042600,3.558042724609375,3.205181837081909,-2.508371591567993,3.8190855979919434
1776228785333892600,3.577892578125,3.710625648498535,-2.505343198776245,4.428582191467285
1776228785353743600,3.59774365234375,4.171984672546387,-2.6611452102661133,4.406528472900391
1776228785373595000,3.617594970703125,4.425564765930176,-2.860908269882202,3.943101644515991
1776228785393445600,3.637445556640625,4.348867416381836,-2.9274489879608154,3.4144225120544434
1776228785413296600,3.657296630859375,3.931593418121338,-2.8901214599609375,2.9392247200012207
1776228785433147600,3.677147705078125,3.0274910926818848,-2.52567458152771,2.3898138999938965
1776228785452997600,3.69699755859375,1.63205087184906,-1.716633915901184,1.751818060874939
1776228785472848600,3.7168486328125,-0.15793824195861816,-0.16716794669628143,0.7762443423271179
1776228785492699600,3.73669970703125,-1.672256588935852,0.7176396250724792,-0.40719467401504517
1776228785512550700,3.756550537109375,-2.9794797897338867,0.9545709490776062,-1.402009129524231
1776228785532401700,3.776401611328125,-3.808281660079956,1.1013550758361816,-2.0719218254089355
1776228785552252700,3.796252685546875,-4.7314229011535645,1.8982897996902466,-2.4927196502685547
1776228785572102700,3.8161025390625,-5.528572082519531,2.7772674560546875,-2.697863817214966
1776228785591953700,3.83595361328125,-5.568504810333252,3.1506941318511963,-2.6287333965301514
1776228785611804700,3.8558046875,-4.7380452156066895,2.5815324783325195,-2.5332448482513428
1776228785631655700,3.87565576171875,-3.618373394012451,1.8548091650009155,-2.3750805854797363
1776228785651506700,3.895506591796875,-2.5878190994262695,1.9324383735656738,-2.2168161869049072
1776228785671357700,3.915357666015625,-2.069962739944458,2.3838002681732178,-2.326944589614868
1776228785691207700,3.935207763671875,-1.974705696105957,2.482001304626465,-2.3676106929779053
1776228785711058700,3.95505859375,-2.1215689182281494,2.594836711883545,-2.206109046936035
1776228785730909700,3.97490966796875,-1.9185316562652588,2.5478434562683105,-1.8240251541137695
1776228785750760400,3.994760498046875,-1.1746351718902588,1.9448878765106201,-1.271682858467102
1776228785770611700,4.01461181640625,-0.19570691883563995,1.016973853111267,-1.1066558361053467
1776228785790462700,4.034462646484375,0.6322000622749329,0.07937870919704437,-1.3031907081604004
1776228785810312700,4.054312744140625,1.186434268951416,-0.8004689812660217,-1.3133189678192139
1776228785830163700,4.074163818359375,1.673744559288025,-1.4652554988861084,-0.8103543519973755
1776228785850015700,4.094015625,2.2021658420562744,-1.9556883573532104,0.011863850057125092
1776228785869866500,4.113866455078125,2.6849656105041504,-2.379192352294922,0.8606284856796265
1776228785889717500,4.133717529296875,3.0561153888702393,-2.728642702102661,1.565019965171814
1776228785909568500,4.153568603515625,3.2939505577087402,-2.888658285140991,2.118922710418701
1776228785929418500,4.17341845703125,3.446417808532715,-2.803776264190674,2.5021519660949707
1776228785949269500,4.19326953125,3.7068893909454346,-2.634981155395508,2.768876075744629
1776228785969120500,4.21312060546875,3.89566969871521,-2.501314878463745,2.8296401500701904
1776228785988971500,4.232971435546875,3.922593593597412,-2.584606885910034,2.7474265098571777
1776228786008822500,4.252822509765625,3.733675956726074,-2.9170587062835693,2.9251184463500977
1776228786028673500,4.272673583984375,3.0035457611083984,-2.76478910446167,3.0511434078216553
1776228786048523500,4.2925234375,1.7108268737792969,-1.6331508159637451,2.660507917404175
1776228786068374500,4.31237451171875,0.02996162697672844,0.13869503140449524,1.4149185419082642
1776228786088225500,4.3322255859375,-1.372644305229187,1.166433334350586,-0.2639099359512329
1776228786108076500,4.35207666015625,-2.447655439376831,1.1671359539031982,-1.7632869482040405
1776228786127927600,4.371927490234375,-2.9177122116088867,0.7220330238342285,-2.6944446563720703
1776228786147778600,4.391778564453125,-3.469562530517578,1.2397427558898926,-3.10532546043396
1776228786167628500,4.411628662109375,-3.988193988800049,2.4107649326324463,-3.252079963684082
1776228786187479600,4.4314794921875,-4.2208571434021,3.6705052852630615,-3.1613690853118896
1776228786207330600,4.45133056640625,-3.5973052978515625,3.6632940769195557,-2.962416172027588
1776228786227181300,4.471181396484375,-2.360776424407959,2.5125930309295654,-3.3116464614868164
1776228786247032600,4.491032470703125,-1.575927734375,1.9372507333755493,-3.940399169921875
1776228786266882300,4.51088232421875,-1.3262779712677002,2.3215408325195312,-4.384175777435303
1776228786286733600,4.530733642578125,-0.9901345372200012,2.6510229110717773,-4.176295280456543
1776228786306584600,4.55058447265625,-0.6746439337730408,2.512788772583008,-3.2746856212615967
1776228786326435600,4.570435546875,-0.8370392322540283,2.6435866355895996,-2.6365559101104736
1776228786346286600,4.59028662109375,-1.1237537860870361,3.439244270324707,-2.505347967147827
1776228786366137600,4.6101376953125,-1.1124117374420166,3.731259346008301,-2.5156965255737305
1776228786385987600,4.629987548828125,-0.3139278292655945,2.331146717071533,-2.9825234413146973
1776228786405838600,4.649838623046875,0.8102017641067505,0.22422271966934204,-3.8305587768554688
1776228786425689300,4.669689453125,1.607768177986145,-1.0348907709121704,-4.442842483520508
1776228786445540400,4.689540283203125,2.3413522243499756,-1.6540107727050781,-4.520012378692627
1776228786465391600,4.7093916015625,2.972486734390259,-2.093717098236084,-3.6715357303619385
1776228786485242600,4.72924267578125,3.42543363571167,-2.172424077987671,-2.0724263191223145
1776228786505092600,4.749092529296875,3.831817388534546,-1.7661876678466797,-0.2803554832935333
1776228786524943600,4.768943603515625,4.163580894470215,-1.2008004188537598,1.0841699838638306
1776228786544794600,4.788794677734375,4.228862762451172,-0.7282557487487793,1.8289639949798584
1776228786564645600,4.808645751953125,3.9310457706451416,-0.10357140004634857,1.986213207244873
1776228786584496400,4.828496337890625,3.496194362640381,0.3433712124824524,1.755996584892273
1776228786604347400,4.848347412109375,2.999484062194824,0.5099037289619446,1.2468658685684204
1776228786624197400,4.868197265625,2.250445604324341,0.42966029047966003,0.48609107732772827
1776228786644048400,4.88804833984375,0.9896184206008911,0.4281500279903412,-0.4871339797973633
1776228786663899400,4.9078994140625,-0.8153760433197021,1.0443083047866821,-1.5446909666061401
1776228786683750700,4.927750732421875,-2.7735157012939453,2.4905776977539062,-2.315251111984253
1776228786703601700,4.9476015625,-3.595062017440796,3.965924024581909,-2.260089159011841
1776228786723452700,4.96745263671875,-3.5784826278686523,4.487720966339111,-1.8403934240341187
1776228786743302700,4.987302734375,-3.6987216472625732,3.5532331466674805,-2.188723564147949
1776228786763153700,5.007153564453125,-4.383548259735107,2.645141839981079,-3.2985525131225586
1776228786783004400,5.02700439453125,-4.389110088348389,3.1043519973754883,-3.812605857849121
1776228786802855400,5.04685546875,-3.1771175861358643,4.711779594421387,-2.751204013824463
1776228786822706400,5.06670654296875,-1.4740196466445923,5.169281959533691,-1.5423723459243774
1776228786842556200,5.08655615234375,-1.0532774925231934,4.603710651397705,-1.6238502264022827
1776228786862407200,5.1064072265625,-1.1798882484436035,3.675280809402466,-2.55664324760437
1776228786882258200,5.126258056640625,-1.0019112825393677,3.329890012741089,-3.172161102294922
1776228786902109200,5.146109130859375,-0.7875635623931885,3.385101079940796,-3.1378278732299805
1776228786921960200,5.165960205078125,-0.9190904498100281,3.2596614360809326,-2.9580819606781006
1776228786941811200,5.185811279296875,-1.1096675395965576,2.5168509483337402,-3.1235709190368652
1776228786961661200,5.2056611328125,-1.011893391609192,1.4849098920822144,-3.661682605743408
1776228786981512200,5.22551220703125,-0.5344895124435425,0.4026731550693512,-4.312555313110352
1776228787001363200,5.24536328125,0.2084711790084839,-0.8197761178016663,-4.852927207946777
1776228787021214200,5.265214111328125,0.9101952314376831,-2.1440117359161377,-5.091851234436035
1776228787041065200,5.285065185546875,1.5040316581726074,-3.190735340118408,-4.47525691986084
1776228787060916200,5.304916259765625,1.8225809335708618,-3.1884801387786865,-2.8205888271331787
1776228787080766200,5.32476611328125,2.1639580726623535,-2.1704390048980713,-0.7612699270248413
1776228787100617200,5.3446171875,2.6768431663513184,-0.9983077645301819,1.0501970052719116
1776228787120468200,5.36446826171875,3.0625829696655273,-0.3329044580459595,2.0096986293792725
1776228787140319200,5.3843193359375,3.3315346240997314,-0.1247272863984108,2.1570329666137695
1776228787160170000,5.404169921875,3.5821473598480225,-0.1395091563463211,1.8926137685775757
1776228787180021200,5.424021240234375,3.708728313446045,-0.198915496468544,1.5395017862319946
1776228787199871200,5.443871337890625,3.4869158267974854,-0.026269953697919846,1.326160192489624
1776228787219722200,5.46372216796875,3.182865858078003,0.11560915410518646,1.1650104522705078
1776228787239573200,5.4835732421875,2.6947054862976074,0.10883273929357529,1.0366394519805908
1776228787259424300,5.50342431640625,2.134887218475342,0.2622968554496765,0.7548841834068298
1776228787279275300,5.523275146484375,1.6290271282196045,0.5452446937561035,0.25752076506614685
1776228787299126300,5.543126220703125,1.0466217994689941,0.6381471753120422,-0.37846794724464417
1776228787318976300,5.562976318359375,0.40902426838874817,0.5315206050872803,-0.772880494594574
1776228787338827000,5.582826904296875,-0.19337186217308044,0.435080349445343,-0.852748453617096
1776228787358678000,5.602677978515625,-0.7520689368247986,0.6302202939987183,-0.9581307768821716
1776228787378529300,5.622529296875,-1.2031784057617188,1.2182375192642212,-1.319494605064392
1776228787398380300,5.64238037109375,-1.5723497867584229,1.910305142402649,-1.9828989505767822
1776228787418231300,5.662231201171875,-1.9181761741638184,2.322664260864258,-2.644859552383423
1776228787438081300,5.682081298828125,-2.413083553314209,2.4454658031463623,-3.0487208366394043
1776228787457932300,5.701932373046875,-2.6475791931152344,2.5063416957855225,-3.048992156982422
1776228787477783300,5.721783203125,-2.385148525238037,2.7932498455047607,-2.7093284130096436
1776228787497634000,5.741634033203125,-1.8602547645568848,3.1743733882904053,-2.203630208969116
1776228787517485000,5.761485107421875,-1.5738837718963623,3.3863906860351562,-1.8164902925491333
1776228787537336000,5.781336181640625,-1.4107943773269653,3.162475347518921,-1.671871542930603
1776228787557186000,5.80118603515625,-1.1954560279846191,2.4630930423736572,-1.8249298334121704
1776228787577037000,5.821037109375,-1.4382044076919556,2.0999746322631836,-2.140028238296509
1776228787596888300,5.840888427734375,-1.8979206085205078,2.1343681812286377,-2.1357204914093018
1776228787616739300,5.8607392578125,-2.1307032108306885,2.424018144607544,-1.7033860683441162
1776228787636590300,5.88059033203125,-1.492627501487732,2.1138148307800293,-1.5133018493652344
1776228787656441000,5.900441162109375,-0.9968035817146301,0.9382039308547974,-2.1545636653900146
1776228787676291300,5.920291259765625,-0.8111264109611511,0.13480016589164734,-2.8168959617614746
1776228787696142000,5.94014208984375,-0.5716975927352905,0.1542699933052063,-2.586585521697998
1776228787715993000,5.9599931640625,-0.0784524604678154,0.24995097517967224,-1.3116058111190796
1776228787735844000,5.979843994140625,0.7542359828948975,-0.2779479920864105,0.42487406730651855
1776228787755695000,5.999695068359375,1.5927850008010864,-0.8525305986404419,1.8811733722686768
1776228787775545000,6.019545166015625,2.211435317993164,-1.0705872774124146,2.7223148345947266
1776228787795396000,6.03939599609375,2.729055166244507,-1.0976366996765137,2.8970279693603516
1776228787815247400,6.059247314453125,3.220089912414551,-1.1766135692596436,2.737058401107788
1776228787835098600,6.0790986328125,3.5851268768310547,-1.3126206398010254,2.4653098583221436
1776228787854949400,6.098949462890625,3.918612003326416,-1.4056103229522705,2.1343319416046143
1776228787874800400,6.11880029296875,3.9521827697753906,-1.6998485326766968,2.086911678314209
1776228787894650400,6.138650390625,3.273350715637207,-1.7538790702819824,2.3271055221557617
1776228787914501400,6.15850146484375,2.0539588928222656,-1.1924854516983032,2.4316933155059814
1776228787934352400,6.178352294921875,0.6290431618690491,-0.3606106638908386,1.9234135150909424
1776228787954203400,6.198203369140625,-0.5945895910263062,0.06324128806591034,0.8425919413566589
1776228787974054400,6.218054443359375,-1.4275102615356445,-0.27653172612190247,-0.3254025876522064
1776228787993905400,6.237905517578125,-2.3129966259002686,-0.8987311124801636,-1.2853506803512573
1776228788013755400,6.25775537109375,-3.2345731258392334,-1.0648263692855835,-1.9735310077667236
1776228788033606400,6.2776064453125,-3.992464542388916,-0.17590178549289703,-2.373682737350464
1776228788053457400,6.29745751953125,-4.329240798950195,1.4071849584579468,-2.424180507659912
1776228788073308400,6.317308349609375,-4.00183629989624,2.313027858734131,-2.2041800022125244
1776228788093159400,6.337159423828125,-3.0638184547424316,1.874143123626709,-2.014580249786377
1776228788113010400,6.357010498046875,-2.0085232257843018,0.8572089672088623,-2.4068148136138916
1776228788132860400,6.3768603515625,-1.5227816104888916,0.6437501907348633,-2.892385482788086
1776228788152711400,6.39671142578125,-1.2698713541030884,0.9263768792152405,-3.0804429054260254
1776228788172562400,6.4165625,-1.2846076488494873,1.400356650352478,-2.821977138519287
1776228788192413400,6.436413330078125,-1.3368008136749268,1.8100688457489014,-2.274970531463623
1776228788212264200,6.45626416015625,-1.3488879203796387,1.8394107818603516,-1.8582358360290527
1776228788232115500,6.476115478515625,-1.0311884880065918,1.5210849046707153,-1.6421648263931274
1776228788251965400,6.49596533203125,-0.1716388612985611,0.8429810404777527,-1.8297333717346191
1776228788271816400,6.51581640625,0.5676229596138,-0.26554644107818604,-2.482487916946411
1776228788291667500,6.53566748046875,0.9198475480079651,-1.2340270280838013,-2.7373430728912354
1776228788311518500,6.5555185546875,1.1527018547058105,-1.7923880815505981,-1.74860417842865
1776228788331369500,6.575369384765625,1.4232513904571533,-2.0856964588165283,0.22129963338375092
1776228788351220500,6.595220458984375,2.098994731903076,-2.2619941234588623,2.4155895709991455
1776228788371070500,6.615070556640625,2.9568426609039307,-2.4013831615448,4.077335357666016
1776228788390921500,6.63492138671875,3.2446846961975098,-2.4100401401519775,4.788787364959717
1776228788410772200,6.654772216796875,3.2078096866607666,-2.2833852767944336,4.543444633483887
1776228788430623200,6.674623291015625,3.40487003326416,-2.272378921508789,3.829228162765503
1776228788450474500,6.694474609375,3.5150234699249268,-2.353665590286255,3.126163959503174
1776228788470325500,6.714325439453125,3.5511374473571777,-2.427980422973633,2.7769064903259277
1776228788490175500,6.734175537109375,3.466885566711426,-2.4603707790374756,2.9610214233398438
1776228788510026500,6.754026611328125,3.0901455879211426,-2.2928028106689453,3.229602098464966
1776228788529877500,6.77387744140625,2.189265727996826,-1.359251856803894,2.925391912460327
1776228788549728500,6.793728515625,0.9786661267280579,-0.1382920891046524,1.77938711643219
1776228788569579300,6.813579345703125,-0.18797282874584198,0.5651829838752747,0.34331369400024414
1776228788589430300,6.83343017578125,-1.1776341199874878,0.22529996931552887,-0.932478129863739
1776228788609280300,6.8532802734375,-2.2097909450531006,-0.7592269778251648,-1.923519253730774
1776228788629131300,6.87313134765625,-3.049924612045288,-1.144744873046875,-2.4332988262176514
1776228788648982300,6.892982177734375,-3.3664374351501465,-0.2944473326206207,-2.5403783321380615
1776228788668833500,6.91283349609375,-3.544081926345825,1.3210080862045288,-2.3829095363616943
1776228788688684500,6.9326845703125,-3.341564416885376,1.9162477254867554,-1.9520888328552246
1776228788708535600,6.95253564453125,-2.678189516067505,1.4452639818191528,-1.739338755607605
1776228788728385500,6.972385498046875,-1.867936372756958,0.8382906913757324,-1.8660389184951782
1776228788748236500,6.992236572265625,-1.4965894222259521,0.9215288162231445,-2.1009511947631836
1776228788768087300,7.01208740234375,-1.581085443496704,1.6987649202346802,-2.1356587409973145
1776228788787938300,7.031938232421875,-1.7904757261276245,2.153090715408325,-1.9495508670806885
1776228788807789300,7.051789306640625,-1.7283308506011963,2.003082275390625,-1.595284104347229
1776228788827640300,7.071640380859375,-1.4497796297073364,1.7247328758239746,-1.2634779214859009
1776228788847490800,7.09149072265625,-1.018251895904541,1.609627604484558,-1.0551095008850098
1776228788867340800,7.1113408203125,-0.5728752613067627,1.2367533445358276,-1.3115202188491821
1776228788887191800,7.13119189453125,0.011876367032527924,0.4607774615287781,-1.7644823789596558
1776228788907042800,7.151042724609375,0.7393822073936462,-0.6827263832092285,-2.258275032043457
1776228788926893800,7.170893798828125,1.343864917755127,-2.0369672775268555,-2.2323992252349854
1776228788946744600,7.19074462890625,1.6524238586425781,-2.885481595993042,-0.8798074722290039
1776228788966595800,7.210595947265625,2.015289306640625,-3.035480499267578,1.246075987815857
1776228788986445600,7.230445556640625,2.45259952545166,-2.7541301250457764,3.123643636703491
1776228789006296800,7.250296875,2.6338040828704834,-2.353651523590088,4.2305169105529785
1776228789026147800,7.27014794921875,2.844250440597534,-2.3089754581451416,4.611729145050049
1776228789045998800,7.289998779296875,2.9871268272399902,-2.4954378604888916,4.49574613571167
1776228789065849900,7.309849853515625,3.023852586746216,-2.470079183578491,4.299015522003174
1776228789085700900,7.329700927734375,3.136288642883301,-2.3151328563690186,4.377817630767822
1776228789105550800,7.34955078125,2.9888288974761963,-2.2603468894958496,4.212770462036133
1776228789125401900,7.36940185546875,2.3759238719940186,-2.0856521129608154,3.755626916885376
1776228789145252600,7.389252685546875,0.9585374593734741,-1.4216142892837524,3.0569097995758057
1776228789165103600,7.409103515625,-0.7724658250808716,0.016079368069767952,1.7230443954467773
1776228789184955000,7.428954833984375,-2.2530434131622314,1.1319068670272827,-0.0036764938849955797
1776228789204806000,7.448805908203125,-3.0874226093292236,1.2083052396774292,-1.4216878414154053
1776228789224656000,7.46865576171875,-3.5087971687316895,0.46947240829467773,-2.502183675765991
1776228789244507000,7.4885068359375,-4.069159030914307,0.08742332458496094,-3.6573433876037598
1776228789264358000,7.50835791015625,-4.947771072387695,1.1215556859970093,-4.197579860687256
1776228789284209000,7.528208984375,-5.156583309173584,2.4598536491394043,-3.560554027557373
1776228789304059600,7.5480595703125,-4.122677803039551,2.652169942855835,-2.5994012355804443
1776228789323910700,7.56791064453125,-2.4421472549438477,1.755186676979065,-2.449437379837036
1776228789343760600,7.5877607421875,-1.7627460956573486,1.1204891204833984,-2.7505555152893066
1776228789363611600,7.607611572265625,-1.768945336341858,1.4104851484298706,-2.8374314308166504
1776228789383462700,7.627462646484375,-1.7819671630859375,2.0853350162506104,-2.5523266792297363
1776228789403314000,7.64731396484375,-1.776268482208252,2.1514315605163574,-2.3859000205993652
1776228789423165000,7.6671650390625,-1.8312809467315674,1.6665537357330322,-2.4820666313171387
1776228789443016000,7.687015869140625,-1.5048596858978271,1.6072413921356201,-2.0255444049835205
1776228789462866700,7.70686669921875,-0.4334790110588074,2.1192445755004883,-0.5284726023674011
1776228789482716700,7.726716552734375,0.5160647034645081,1.974793553352356,-0.05314178019762039
1776228789502567700,7.746567626953125,1.1375995874404907,0.7201853394508362,-1.0118006467819214
1776228789522418700,7.766418701171875,1.6611003875732422,-1.0389478206634521,-1.692271113395691
1776228789542269700,7.786269775390625,2.1255180835723877,-2.853909730911255,-1.2620738744735718
1776228789562120700,7.80612060546875,2.2950961589813232,-3.4515442848205566,0.3595230281352997
1776228789581972000,7.825971923828125,2.822239398956299,-2.6817638874053955,2.577096939086914
1776228789601821700,7.84582177734375,3.7845113277435303,-2.1870296001434326,4.114599227905273
1776228789621673000,7.8656728515625,4.287908554077148,-2.209019660949707,4.504130840301514
1776228789641523700,7.885523681640625,4.173689365386963,-2.515681028366089,3.9440503120422363
1776228789661374700,7.905374755859375,3.899939775466919,-2.863914728164673,3.0630695819854736
1776228789681225700,7.925225830078125,3.6575591564178467,-2.9985592365264893,2.7483420372009277
1776228789701076700,7.94507666015625,3.6222469806671143,-2.962451934814453,2.917391538619995
1776228789720926700,7.9649267578125,3.1643919944763184,-2.8800790309906006,3.2425365447998047
1776228789740777700,7.98477783203125,1.9596492052078247,-2.350909948348999,2.8454763889312744
1776228789760628700,8.004628662109376,-0.2919868528842926,-1.0915732383728027,0.9305399060249329
1776228789780479700,8.024479736328125,-2.427493095397949,-0.08113373816013336,-1.259806752204895
1776228789800330800,8.044330810546874,-4.089348793029785,0.3694598078727722,-2.455551862716675
1776228789820181800,8.064181640625,-5.040694236755371,0.6823686957359314,-2.9489986896514893
1776228789840033500,8.084033447265625,-5.483095169067383,1.2536596059799194,-3.4004931449890137
1776228789859883500,8.103883544921874,-6.134313106536865,2.0589890480041504,-3.8491995334625244
1776228789879734500,8.123734619140626,-6.543749809265137,3.0219497680664062,-3.781646490097046
1776228789899585500,8.14358544921875,-5.32048225402832,3.02634334564209,-3.0885515213012695
1776228789919436500,8.1634365234375,-3.266474723815918,2.1903891563415527,-2.67681622505188
1776228789939287600,8.18328759765625,-2.172626495361328,2.0839712619781494,-2.628458023071289
1776228789959138600,8.203138671875,-1.3071396350860596,2.202521562576294,-2.4276041984558105
1776228789978988500,8.222988525390624,-0.6608240008354187,1.8948543071746826,-2.2589075565338135
1776228789998839600,8.242839599609376,-0.676932692527771,1.517892837524414,-2.0699000358581543
1776228790018690600,8.262690673828125,-1.1541721820831299,1.7514630556106567,-1.450175404548645
1776228790038541600,8.28254150390625,-1.0927897691726685,2.0868570804595947,-0.661851704120636
1776228790058392600,8.302392578125,-0.1271773874759674,1.8927011489868164,-0.34757792949676514
1776228790078243600,8.32224365234375,0.8937238454818726,0.7407236099243164,-0.9343093633651733
1776228790098093600,8.342093505859374,1.5103031396865845,-0.809194028377533,-1.2431654930114746
1776228790117944600,8.361944580078125,1.9857841730117798,-1.7979189157485962,-0.9909459948539734
1776228790137795300,8.38179541015625,2.481814384460449,-2.0959410667419434,-0.707952618598938
1776228790157646300,8.401646240234374,3.1918609142303467,-2.7810328006744385,-0.49206000566482544
1776228790177497600,8.42149755859375,3.9234817028045654,-4.001915454864502,-0.08223149180412292
1776228790197348600,8.4413486328125,4.258374214172363,-4.77727746963501,0.6946749091148376
1776228790217199600,8.46119970703125,4.385846138000488,-4.534037113189697,1.7571039199829102
1776228790237049600,8.481049560546875,4.5708184242248535,-3.870205879211426,2.77825665473938
1776228790256900600,8.500900634765625,4.4679436683654785,-3.1626639366149902,3.5703225135803223
1776228790276751600,8.520751708984376,4.286677837371826,-2.5922255516052246,3.965641975402832
1776228790296602400,8.540602294921875,3.8828792572021484,-2.170544385910034,3.835660457611084
1776228790316453400,8.560453369140625,2.8981308937072754,-1.5461831092834473,3.0552380084991455
1776228790336304400,8.580304443359376,1.397515892982483,-0.583986222743988,1.6254414319992065
1776228790356154400,8.600154296875,-0.23576219379901886,0.3841492533683777,0.026279807090759277
1776228790376005400,8.62000537109375,-1.7236114740371704,0.9972608685493469,-1.0225433111190796
1776228790395856600,8.639856689453126,-3.273784637451172,1.759379267692566,-1.5615772008895874
1776228790415707600,8.659707763671875,-4.482804775238037,3.15807843208313,-1.8445408344268799
1776228790435558700,8.67955859375,-5.299715042114258,4.822320938110352,-1.9300976991653442
1776228790455409400,8.699409423828126,-5.69975471496582,5.492984771728516,-1.7396814823150635
1776228790475260400,8.719260498046875,-6.020018577575684,4.337653160095215,-2.188375949859619
1776228790495110400,8.7391103515625,-5.260969638824463,2.280690908432007,-3.136115074157715
1776228790514961400,8.75896142578125,-3.433746576309204,1.3734296560287476,-3.703521966934204
1776228790534812400,8.7788125,-1.8710567951202393,1.5329504013061523,-3.4934487342834473
1776228790554663400,8.798663330078124,-1.3797518014907837,2.293447256088257,-2.887604236602783
1776228790574514700,8.8185146484375,-1.0711086988449097,2.562324047088623,-2.4918599128723145
1776228790594365700,8.83836572265625,-0.8986381888389587,2.7455222606658936,-2.41160249710083
1776228790614215700,8.858215576171874,-1.036259651184082,2.93528413772583,-2.384836196899414
1776228790634066700,8.878066650390625,-0.8577226996421814,2.3040854930877686,-2.480710506439209
1776228790653917400,8.89791748046875,-0.36933302879333496,1.082452416419983,-2.945554733276367
1776228790673768400,8.9177685546875,0.857231855392456,-0.06988134980201721,-3.4374430179595947
1776228790693619500,8.937619384765625,2.233344554901123,-0.8841543197631836,-3.368926763534546
1776228790713470500,8.957470458984375,3.059250593185425,-1.4017164707183838,-2.6189749240875244
1776228790733321500,8.977321533203124,3.4565389156341553,-1.575870156288147,-1.2334518432617188
1776228790753171500,8.99717138671875,3.8660964965820312,-1.2897275686264038,0.13654586672782898
1776228790773022500,9.0170224609375,4.283874034881592,-0.8644402623176575,0.9487098455429077
1776228790792873700,9.036873779296876,4.470665454864502,-0.5535532236099243,1.0747122764587402
1776228790812724500,9.056724365234375,4.570644855499268,-0.4136890470981598,0.69456547498703
1776228790832575500,9.076575439453125,4.6480631828308105,-0.5338990688323975,0.2718469500541687
1776228790852426000,9.096426025390626,4.523305416107178,-0.648836076259613,-0.018796857446432114
1776228790872276000,9.11627587890625,4.422682762145996,-0.7478001713752747,-0.03575826436281204
1776228790892127000,9.136126953125,4.237499237060547,-0.8904249668121338,0.3209812045097351
1776228790911978000,9.15597802734375,3.4337007999420166,-0.7632552981376648,0.963931679725647
1776228790931829000,9.1758291015625,1.8085103034973145,0.5098810791969299,1.3658636808395386
1776228790951680300,9.19568017578125,-0.406051903963089,2.78574800491333,0.5693652033805847
1776228790971531300,9.21553125,-2.3386106491088867,4.295955181121826,-0.6080249547958374
1776228790991382000,9.235382080078125,-3.640136480331421,4.353355884552002,-1.6052011251449585
1776228791011232300,9.255232177734374,-4.427085876464844,3.4507153034210205,-2.403952121734619
1776228791031083000,9.2750830078125,-5.047712802886963,2.9224870204925537,-3.1327950954437256
1776228791050934000,9.29493408203125,-5.619816303253174,3.0362772941589355,-3.8050129413604736
1776228791070785000,9.314784912109374,-5.668003559112549,3.58486008644104,-4.178345680236816
1776228791090636000,9.334635986328125,-5.1878275871276855,4.022028923034668,-4.50159215927124
1776228791110487000,9.354487060546875,-4.58807897567749,3.7454681396484375,-5.096667289733887
1776228791130338000,9.374338134765624,-4.296111106872559,2.8561742305755615,-5.417146682739258
1776228791150188000,9.39418798828125,-3.782804250717163,2.412273645401001,-5.0995612144470215
1776228791170039300,9.414039306640625,-2.5587997436523438,2.2361562252044678,-4.275412082672119
1776228791189890000,9.43389013671875,-1.5842252969741821,2.4592573642730713,-3.340036630630493
1776228791209741000,9.453740966796875,-1.3439890146255493,2.565561532974243,-2.4950296878814697
1776228791229592000,9.473592041015625,-1.7804222106933594,3.0514137744903564,-1.7458834648132324
1776228791249443000,9.493443115234374,-1.9060579538345337,3.4510087966918945,-1.2769734859466553
1776228791269294000,9.513294189453125,-1.523201584815979,3.0099527835845947,-1.5340473651885986
1776228791289144000,9.53314404296875,-0.8693034648895264,1.6234033107757568,-2.6625967025756836
1776228791308995000,9.5529951171875,-0.41714558005332947,-0.39454731345176697,-4.598106861114502
1776228791328846000,9.57284619140625,0.019940951839089394,-2.002049446105957,-6.110264301300049
1776228791348697000,9.592697021484375,0.8239133358001709,-2.939924955368042,-6.3588457107543945
1776228791368548000,9.612548095703126,1.9490442276000977,-3.1747093200683594,-5.018309593200684
1776228791388399000,9.632399169921875,2.7789394855499268,-2.5897765159606934,-2.6170756816864014
1776228791408249000,9.6522490234375,3.168530225753784,-1.5302355289459229,-0.048773396760225296
1776228791428100000,9.67210009765625,3.3728342056274414,-0.668570339679718,1.9030102491378784
1776228791447951000,9.691951171875,4.003286361694336,-0.35359880328178406,2.9818410873413086
1776228791467802000,9.711802001953124,4.813177108764648,-0.15427212417125702,3.2842438220977783
1776228791487653000,9.731653076171876,5.3596510887146,-0.12313152104616165,2.9173927307128906
1776228791507503900,9.75150390625,5.4487080574035645,-0.30981937050819397,2.2181499004364014
1776228791527355000,9.77135498046875,5.074210166931152,-0.5148769021034241,1.5240123271942139
1776228791547204900,9.791204833984375,4.433277130126953,-0.6538188457489014,1.118295431137085
1776228791567056100,9.81105615234375,3.525987386703491,-0.6602855324745178,1.2553688287734985
1776228791586907100,9.8309072265625,2.338812828063965,-0.32193490862846375,1.8026915788650513
1776228791606758100,9.850758056640625,1.1757560968399048,0.5829510688781738,1.9098178148269653
1776228791626609200,9.870609130859375,0.15843650698661804,1.6457406282424927,0.9051205515861511
1776228791646460200,9.890460205078124,-1.1041487455368042,1.959234356880188,-0.6812334060668945
1776228791666311000,9.910310791015625,-2.664717197418213,1.520652413368225,-1.7187106609344482
1776228791686161200,9.9301611328125,-3.9570839405059814,0.8573018908500671,-2.066227912902832
1776228791706012000,9.950011962890626,-4.538179397583008,0.7387723326683044,-2.215904712677002
1776228791725863000,9.96986279296875,-4.377751350402832,1.455570936203003,-2.351421356201172
1776228791745714200,9.989714111328125,-4.416223049163818,2.9351987838745117,-2.1167309284210205
1776228791765565200,10.009565185546874,-4.093911170959473,3.9316813945770264,-0.9890141487121582
1776228791785416200,10.029416259765625,-2.773878812789917,3.651341438293457,-0.05810937657952309
1776228791805267200,10.04926708984375,-1.246791124343872,2.4286906719207764,-0.26692596077919006
1776228791825117200,10.0691171875,-0.7435396313667297,1.3988724946975708,-1.2099124193191528
1776228791844968000,10.088968017578125,-1.0209406614303589,1.0985089540481567,-2.2960612773895264
1776228791864819000,10.10881884765625,-1.6503995656967163,1.525132417678833,-3.089390754699707
1776228791884670000,10.128669921875,-2.112635612487793,1.7020459175109863,-3.267430067062378
1776228791904521000,10.14852099609375,-2.4112846851348877,1.6316263675689697,-2.7960588932037354
1776228791924372000,10.1683720703125,-2.034956216812134,1.6717839241027832,-1.8668487071990967
1776228791944223000,10.188222900390626,-1.4649766683578491,2.022310495376587,-1.0992999076843262
1776228791964073000,10.208072998046875,-0.9330688118934631,2.3012242317199707,-1.0107487440109253
1776228791983924000,10.227924072265624,-0.6442250609397888,1.6440387964248657,-1.607757806777954
1776228792003775000,10.24777490234375,-0.4345400035381317,0.15835022926330566,-2.383481025695801
1776228792023625700,10.267625732421875,-0.020593957975506783,-1.1662520170211792,-2.5912251472473145
1776228792043477000,10.28747705078125,1.0290297269821167,-1.891914963722229,-1.8243457078933716
1776228792063328000,10.307327880859376,2.216493844985962,-2.123466968536377,-0.45953136682510376
1776228792083179000,10.327178955078125,3.041578531265259,-2.0480706691741943,0.9341282248497009
1776228792103029000,10.347029052734374,3.2120659351348877,-1.5999648571014404,2.0649585723876953
1776228792122880000,10.3668798828125,3.287607431411743,-1.099533200263977,2.749884605407715
1776228792142731000,10.38673095703125,3.938222885131836,-1.0454022884368896,2.8882296085357666
1776228792162582000,10.40658203125,4.728499889373779,-1.4651681184768677,2.5804173946380615
1776228792182432800,10.426432861328125,4.66478967666626,-1.5948781967163086,2.2066564559936523
1776228792202283800,10.44628369140625,4.046660423278809,-1.3204458951950073,2.1985392570495605
1776228792222134800,10.466134765625,3.7066903114318848,-1.6554055213928223,2.205045461654663
1776228792241984800,10.48598486328125,2.8893680572509766,-1.7306307554244995,2.1092779636383057
1776228792261836000,10.5058359375,1.811234712600708,-1.1202741861343384,1.6365716457366943
1776228792281687000,10.52568701171875,0.5297837257385254,-0.24812911450862885,0.5471776127815247
1776228792301538000,10.5455380859375,-0.9933066368103027,0.6252977252006531,-0.6944104433059692
1776228792321389000,10.56538916015625,-2.2496094703674316,0.5918158888816833,-1.2805665731430054
1776228792341239800,10.58523974609375,-3.2027339935302734,0.0025358619168400764,-1.3371186256408691
1776228792361090800,10.6050908203125,-3.805483818054199,-0.41786888241767883,-1.7051520347595215
1776228792380940800,10.62494091796875,-3.785125255584717,-0.3543628752231598,-2.286534547805786
1776228792400791800,10.644791748046876,-3.3400633335113525,0.13968147337436676,-2.649799108505249
1776228792420642800,10.664642822265625,-2.9718663692474365,0.8378722667694092,-2.667771339416504
1776228792440494000,10.684494140625,-2.905561923980713,1.4651777744293213,-2.323737382888794
1776228792460345000,10.704344970703126,-2.768084764480591,1.6596769094467163,-1.955044150352478
1776228792480196000,10.724196044921875,-2.3989040851593018,1.6208722591400146,-1.8618077039718628
1776228792500046800,10.744046875,-2.2490546703338623,1.8329906463623047,-1.9318727254867554
1776228792519897000,10.76389697265625,-2.26409649848938,2.160902500152588,-1.846354603767395
1776228792539747800,10.783747802734375,-1.9158447980880737,1.8667593002319336,-1.7443801164627075
1776228792559598800,10.803598876953124,-1.5622326135635376,1.1065794229507446,-1.9667726755142212
1776228792579449900,10.823449951171876,-1.3545902967453003,0.6986275911331177,-2.054793357849121
1776228792599300900,10.84330078125,-0.7510654926300049,0.5072352290153503,-1.7000634670257568
1776228792619152000,10.86315185546875,-0.05750830098986626,0.12333658337593079,-1.195465326309204
1776228792639003100,10.883003173828126,0.6772868633270264,-0.3116457760334015,-0.320272296667099
1776228792658853000,10.90285302734375,1.7209628820419312,-0.7068178653717041,0.7613937258720398
1776228792678704000,10.9227041015625,2.883251190185547,-1.3563088178634644,1.3613616228103638
1776228792698555000,10.942554931640625,3.62967848777771,-2.149106979370117,1.4342491626739502
1776228792718406000,10.962406005859375,3.8723862171173096,-2.6948161125183105,1.3955230712890625
1776228792738257000,10.9822568359375,4.074893474578857,-2.867603063583374,1.6766716241836548
1776228792758108000,11.00210791015625,4.316082000732422,-2.7458364963531494,2.108751058578491
1776228792777959000,11.021958984375,4.480072975158691,-2.588587999343872,2.3843913078308105
1776228792797810000,11.041809814453124,4.479145050048828,-2.5536441802978516,2.6054296493530273
1776228792817660000,11.061659912109375,4.05340576171875,-2.378498077392578,3.3539040088653564
1776228792837511400,11.081511474609375,2.988095998764038,-1.759749412536621,4.619912147521973
1776228792857362400,11.101362548828124,1.5671032667160034,-1.2490228414535522,4.879520416259766
1776228792877213400,11.12121337890625,-0.2106427252292633,-0.5952934622764587,3.344635248184204
1776228792897064400,11.141064453125,-1.9126253128051758,-0.4546513855457306,0.8687742948532104
1776228792916915500,11.16091552734375,-2.8427071571350098,-0.49145281314849854,-1.4151010513305664
1776228792936766700,11.1807666015625,-3.502774953842163,-0.29744553565979004,-2.6809775829315186
1776228792956616700,11.20061669921875,-4.069427013397217,-0.22345519065856934,-3.0238659381866455
1776228792976467700,11.2204677734375,-4.623490333557129,0.09420213103294373,-3.2743754386901855
1776228792996318500,11.240318359375,-5.13866662979126,0.6164003610610962,-3.55534291267395
1776228793016169500,11.26016943359375,-5.259066581726074,1.2668185234069824,-3.240007162094116
1776228793036020500,11.2800205078125,-4.314718246459961,1.3362985849380493,-2.301358222961426
1776228793055871500,11.29987158203125,-3.0466530323028564,0.9850161671638489,-1.7047940492630005
1776228793075722500,11.319722412109375,-2.3569512367248535,1.0907692909240723,-1.5821977853775024
1776228793095572500,11.339572509765626,-1.8546572923660278,1.4221503734588623,-1.4292964935302734
1776228793115423500,11.359423583984375,-1.490907907485962,1.2485684156417847,-1.43366539478302
1776228793135274500,11.3792744140625,-1.2990795373916626,1.141299843788147,-1.4662930965423584
1776228793155125500,11.39912548828125,-0.6266815066337585,1.31584632396698,-1.063995122909546
1776228793174976500,11.4189765625,0.3551940619945526,1.1323614120483398,-0.7972087264060974
1776228793194827500,11.43882763671875,1.4112566709518433,0.19498786330223083,-1.2919508218765259
1776228793214678500,11.458678466796876,2.454016923904419,-1.0024285316467285,-1.831252932548523
1776228793234529500,11.478529541015625,3.05328631401062,-1.8519244194030762,-1.7600929737091064
1776228793254379500,11.498379638671874,3.0876684188842773,-2.130204916000366,-0.8500072360038757
1776228793274230500,11.51823046875,2.969886064529419,-1.9025551080703735,0.5980697870254517
1776228793294081500,11.53808154296875,3.3490076065063477,-1.6279208660125732,2.0901618003845215
1776228793313932500,11.5579326171875,3.9248924255371094,-1.7038427591323853,2.9746744632720947
1776228793333783600,11.577783447265626,4.180683612823486,-1.9064112901687622,3.2606890201568604
1776228793353634600,11.597634521484375,4.2994890213012695,-2.0862178802490234,3.0904345512390137
1776228793373485600,11.617485595703124,4.428073406219482,-2.068002939224243,2.6684837341308594
1776228793393335600,11.63733544921875,4.514427661895752,-2.016456365585327,2.3356144428253174
1776228793413186600,11.6571865234375,4.3357133865356445,-2.006849527359009,2.4630188941955566
1776228793433037600,11.67703759765625,3.8704562187194824,-1.980095624923706,3.097918748855591
1776228793452888600,11.696888671875,2.8483099937438965,-1.9452708959579468,3.9162018299102783
1776228793472739600,11.716739501953125,0.84931880235672,-1.34111487865448,3.7826855182647705
1776228793492590300,11.73659033203125,-1.8419002294540405,0.07045499235391617,2.1622259616851807
1776228793512441600,11.756441650390625,-3.526015520095825,0.8185760974884033,0.09774626791477203
1776228793532291300,11.776291259765625,-4.262918949127197,1.1892482042312622,-1.3600057363510132
1776228793552142600,11.796142578125,-4.478580474853516,1.161049246788025,-2.194122314453125
1776228793571993600,11.81599365234375,-4.9578118324279785,0.6584364771842957,-3.079901933670044
1776228793591844600,11.8358447265625,-6.001013278961182,0.4428676962852478,-3.8127245903015137
1776228793611695600,11.855695556640624,-6.191376209259033,0.6950045824050903,-3.7871599197387695
1776228793631546600,11.875546630859375,-5.125471115112305,0.9369757175445557,-3.436298131942749
1776228793651397400,11.8953974609375,-3.7624316215515137,1.054565191268921,-3.3098504543304443
1776228793671248400,11.915248291015626,-3.3074493408203125,1.4467958211898804,-3.1960623264312744
1776228793691098400,11.935098388671875,-2.914281129837036,1.674798607826233,-2.6674346923828125
1776228793710949400,11.954949462890625,-2.0576388835906982,1.4721711874008179,-2.284792423248291
1776228793730800600,11.974800537109376,-1.3788982629776,1.3007214069366455,-2.2905194759368896
1776228793750651600,11.994651611328125,-1.4151047468185425,1.5833147764205933,-2.2699427604675293
1776228793770502700,12.014502685546875,-1.3487930297851562,1.9126439094543457,-1.742471694946289
1776228793790353700,12.034353759765626,-0.6580157279968262,1.6625864505767822,-1.0471445322036743
1776228793810204400,12.054204345703125,0.051769454032182693,1.077257752418518,-0.9237621426582336
1776228793830054400,12.074054443359374,0.5309181809425354,0.37192055583000183,-1.1680622100830078
1776228793849905000,12.09390478515625,0.7325645089149475,-0.28826001286506653,-1.1997535228729248
1776228793869756000,12.113755859375,0.9345452785491943,-0.6586575508117676,-0.6794123649597168
1776228793889607000,12.13360693359375,1.6353089809417725,-1.1826176643371582,0.206405371427536
1776228793909458000,12.1534580078125,2.3793232440948486,-1.8409463167190552,0.9641178250312805
1776228793929309000,12.173308837890625,2.891451597213745,-2.426546096801758,1.5482704639434814
1776228793949160000,12.193159912109374,3.189103603363037,-2.638967752456665,2.1521317958831787
1776228793969011000,12.213010986328126,3.4035534858703613,-2.3809361457824707,2.789511203765869
1776228793988861000,12.23286083984375,4.0682053565979,-2.193399429321289,3.172934055328369
1776228794008712000,12.2527119140625,4.625192165374756,-2.12337064743042,3.1115105152130127
1776228794028563000,12.27256298828125,4.656357288360596,-2.1026387214660645,2.854602336883545
1776228794048414000,12.2924140625,4.2865495681762695,-2.16675066947937,2.955700635910034
1776228794068265000,12.312264892578124,3.3984909057617188,-2.2568206787109375,3.1609907150268555
1776228794088116000,12.332115966796875,2.1716904640197754,-1.857040286064148,2.855987548828125
1776228794107967000,12.351967041015625,0.4972712993621826,-0.6159350872039795,1.547909140586853
1776228794127817000,12.37181689453125,-0.949811577796936,0.2706887423992157,-0.43359804153442383
1776228794147668000,12.39166796875,-1.8868889808654785,0.3643406629562378,-1.8412762880325317
1776228794167519000,12.41151904296875,-2.814807653427124,0.46464890241622925,-2.506868362426758
1776228794187369700,12.43136962890625,-3.9055771827697754,1.0979340076446533,-2.5490663051605225
1776228794207220700,12.451220703125,-4.591688632965088,2.1842024326324463,-2.2966887950897217
1776228794227072000,12.471072021484375,-4.415032863616943,3.004460573196411,-2.1645870208740234
1776228794246923000,12.490923095703126,-4.051172733306885,2.8005316257476807,-2.703176975250244
1776228794266774000,12.51077392578125,-3.883471965789795,2.0587596893310547,-3.549971342086792
1776228794286624000,12.5306240234375,-4.009599685668945,1.8091007471084595,-4.057757377624512
1776228794306475000,12.55047509765625,-3.398735284805298,2.202019214630127,-3.8817734718322754
1776228794326326000,12.570325927734375,-2.1026203632354736,2.5956552028656006,-3.367008686065674
1776228794346176800,12.5901767578125,-1.365812063217163,2.620715379714966,-3.163100481033325
1776228794366027800,12.61002783203125,-1.625847578048706,2.4312074184417725,-3.1201674938201904
1776228794385878800,12.629878662109375,-2.0464425086975098,2.342453956604004,-2.6000094413757324
1776228794405730000,12.64972998046875,-2.0320844650268555,2.7812302112579346,-2.0672175884246826
1776228794425579800,12.669579833984375,-1.603213906288147,2.7613656520843506,-2.5097899436950684
1776228794445431000,12.68943115234375,-0.6961271166801453,1.2049131393432617,-3.8171157836914062
1776228794465282000,12.709281982421874,0.34188783168792725,-0.7324087023735046,-4.7609148025512695
1776228794485133000,12.729133056640626,0.9236569404602051,-1.5858759880065918,-4.698707103729248
1776228794504983800,12.74898388671875,1.3560243844985962,-1.479765772819519,-3.7405779361724854
1776228794524834800,12.768834716796874,1.9481427669525146,-1.0602606534957886,-2.1936819553375244
1776228794544685800,12.788685791015626,2.5952954292297363,-0.960256814956665,-0.6864478588104248
1776228794564536800,12.808536865234375,3.1529924869537354,-0.8627049326896667,0.30608829855918884
1776228794584386800,12.82838671875,3.624620199203491,-0.3095296323299408,0.9920908808708191
1776228794604237800,12.84823779296875,4.34816312789917,0.19501662254333496,1.5634760856628418
1776228794624089000,12.868089111328125,4.9610161781311035,0.5890147686004639,1.7131398916244507
1776228794643940000,12.887940185546874,5.285921573638916,0.5848783850669861,1.4892572164535522
1776228794663790800,12.907790771484375,5.224552154541016,0.43563297390937805,1.1412521600723267
1776228794683641900,12.927641845703125,4.6779656410217285,0.13115322589874268,0.8610276579856873
1776228794703492900,12.947492919921874,3.506021022796631,0.14671513438224792,0.544240415096283
1776228794723342800,12.9673427734375,2.1236095428466797,0.5263034701347351,0.2934108376502991
1776228794743193900,12.98719384765625,0.6870111227035522,1.1171507835388184,-0.3166242837905884
1776228794763044900,13.007044921875,-0.5597794055938721,1.611877679824829,-1.2718138694763184
1776228794782895900,13.026895751953125,-2.082759141921997,1.8908374309539795,-2.210886001586914
1776228794802747100,13.0467470703125,-3.7861077785491943,2.265880823135376,-2.6915338039398193
1776228794822598000,13.066597900390626,-4.770902633666992,2.8696537017822266,-2.6450283527374268
1776228794842449400,13.086449462890625,-4.773818492889404,3.2187201976776123,-2.5758166313171387
1776228794862300400,13.106300537109375,-4.2657341957092285,2.909219264984131,-3.051588773727417
1776228794882150400,13.126150390625,-4.3345746994018555,2.362339973449707,-3.7998461723327637
1776228794902001400,13.14600146484375,-4.342519283294678,2.0031518936157227,-4.187864780426025
1776228794921852400,13.165852294921875,-3.4955825805664062,2.1224706172943115,-4.207256317138672
1776228794941703400,13.185703369140626,-2.1091532707214355,2.319200038909912,-4.300718784332275
1776228794961554200,13.20555419921875,-1.7665420770645142,2.473872661590576,-4.719542026519775
1776228794981405200,13.2254052734375,-1.712508201599121,1.984484076499939,-5.024566650390625
1776228795001256200,13.245256103515626,-1.5612843036651611,1.4871269464492798,-5.258285999298096
1776228795021107500,13.265107421875,-1.5161408185958862,1.7072691917419434,-5.43870210647583
1776228795040957200,13.284957275390624,-1.6748888492584229,2.4132604598999023,-5.328160762786865
1776228795060808400,13.304808349609376,-1.621154546737671,2.4804441928863525,-4.947422027587891
1776228795080659500,13.324659423828125,-0.8905288577079773,0.9572383761405945,-4.691875457763672
1776228795100510500,13.344510498046875,0.024219851940870285,-0.7590941190719604,-4.954913139343262
1776228795120361200,13.364361328125,0.6515487432479858,-1.3551002740859985,-4.736388206481934
1776228795140212200,13.384212158203125,1.2268868684768677,-1.2514734268188477,-3.278146743774414
1776228795160063200,13.404063232421874,1.8649005889892578,-0.9709126353263855,-1.3204705715179443
1776228795179913200,13.423913330078125,2.5624749660491943,-0.8187987208366394,0.2073207050561905
1776228795199764200,13.44376416015625,3.1159496307373047,-1.0055419206619263,1.0705512762069702
1776228795219615200,13.463615234375,3.624386787414551,-1.163129210472107,1.4115022420883179
1776228795239466500,13.483466552734376,4.138240814208984,-0.7986028790473938,1.8081281185150146
1776228795259317500,13.5033173828125,4.420392036437988,0.05524967238306999,2.399444818496704
1776228795279168300,13.523168212890624,4.707446575164795,0.588695764541626,2.8517303466796875
1776228795299019300,13.543019287109376,4.619864463806152,0.658623993396759,2.648949384689331
1776228795318870300,13.562870361328125,4.0423994064331055,0.336338073015213,2.122204303741455
1776228795338720300,13.58272021484375,2.940652370452881,-0.33200138807296753,1.708496332168579
1776228795358571300,13.6025712890625,1.2651541233062744,-0.6218981742858887,1.4047852754592896
1776228795378422300,13.62242236328125,-0.5422539710998535,-0.16780976951122284,0.4758954346179962
1776228795398273300,13.642273193359374,-1.6050938367843628,0.34357014298439026,-0.8361755609512329
1776228795418124500,13.66212451171875,-2.155013084411621,0.5927796959877014,-2.0270442962646484
1776228795437975300,13.681975341796875,-2.654686689376831,0.5730664730072021,-2.7008719444274902
1776228795457826300,13.701826416015624,-3.2435221672058105,0.7895255088806152,-2.9615061283111572
1776228795477677300,13.72167724609375,-3.969528913497925,1.4793550968170166,-2.971982479095459
1776228795497527300,13.74152734375,-4.763040065765381,2.6411266326904297,-2.7843356132507324
1776228795517378300,13.76137841796875,-4.6185102462768555,3.5258846282958984,-2.2567555904388428
1776228795537229300,13.781229248046875,-3.1805224418640137,2.7835934162139893,-1.9635587930679321
1776228795557080300,13.801080322265625,-1.9747885465621948,1.6092076301574707,-2.212451457977295
1776228795576931300,13.820931396484376,-1.6921714544296265,1.3425357341766357,-2.5329349040985107
1776228795596782000,13.840781982421875,-1.4531927108764648,1.8038910627365112,-2.609677791595459
1776228795616633300,13.86063330078125,-1.511892557144165,2.546261787414551,-2.5442709922790527
1776228795636484400,13.880484375,-2.0049705505371094,2.901498556137085,-2.408273696899414
1776228795656334300,13.900334228515625,-2.5311543941497803,2.737011432647705,-2.236586570739746
1776228795676185300,13.920185302734374,-2.3521509170532227,2.0906031131744385,-2.132479190826416
1776228795696036400,13.940036376953126,-1.2869704961776733,1.2638577222824097,-2.521414041519165
1776228795715887400,13.959887451171875,-0.4772597551345825,0.07190561294555664,-3.1544272899627686
1776228795735738400,13.97973828125,-0.3087961971759796,-0.9283771514892578,-3.349214792251587
1776228795755589000,13.999589111328126,-0.08030842244625092,-1.141829490661621,-2.644897222518921
1776228795775440100,14.019440185546875,0.5064365863800049,-0.9517120122909546,-1.2765153646469116
1776228795795290000,14.0392900390625,1.4552891254425049,-0.9453721046447754,0.2571481764316559
1776228795815141400,14.059141357421876,2.515385150909424,-1.2377249002456665,1.4839091300964355
1776228795834992400,14.078992431640625,3.36249041557312,-1.681740403175354,2.29838228225708
1776228795854843400,14.098843505859374,4.0353312492370605,-1.8848447799682617,2.717743396759033
1776228795874694400,14.1186943359375,4.596573829650879,-1.7488176822662354,2.798246145248413
1776228795894545700,14.138545654296875,5.0781025886535645,-1.6407732963562012,2.5989794731140137
1776228795914396400,14.158396484375,5.20623254776001,-1.5524961948394775,2.4149229526519775
1776228795934247400,14.178247314453126,5.180334091186523,-1.7767937183380127,2.2014739513397217
1776228795954097400,14.198097412109375,4.689884185791016,-2.339061975479126,2.316164493560791
1776228795973948400,14.217948486328124,3.1649839878082275,-2.267176628112793,2.6451492309570312
1776228795993799400,14.23779931640625,1.2209908962249756,-0.9252614974975586,2.2455556392669678
1776228796013650400,14.257650390625,-0.4216231405735016,0.43011143803596497,0.8959430456161499
1776228796033501400,14.27750146484375,-1.1929353475570679,0.606930136680603,-0.414868026971817
1776228796053352400,14.2973525390625,-1.7998369932174683,-0.1373717039823532,-1.400598168373108
1776228796073203500,14.317203369140625,-2.7813427448272705,-0.93948894739151,-2.1378114223480225
1776228796093054500,14.337054443359374,-3.795631170272827,-0.941598117351532,-2.6743240356445312
1776228796112904400,14.356904541015625,-4.064144611358643,-0.00034940673504024744,-2.954113245010376
1776228796132755500,14.37675537109375,-3.6758768558502197,1.101862907409668,-2.895388603210449
1776228796152606500,14.3966064453125,-2.985107421875,1.5308635234832764,-2.70334529876709
1776228796172457500,14.41645751953125,-2.480311393737793,1.2789607048034668,-2.5983595848083496
1776228796192308500,14.43630859375,-2.2896065711975098,1.3033041954040527,-2.5061721801757812
1776228796212159500,14.456159423828124,-1.9933912754058838,1.8121076822280884,-2.104330062866211
1776228796232010200,14.47601025390625,-1.9307951927185059,2.4676010608673096,-1.694055438041687
1776228796251861200,14.495861328125,-2.3129374980926514,2.6105241775512695,-1.623456597328186
1776228796271711200,14.515711181640626,-2.681621551513672,2.3097026348114014,-1.7827982902526855
1776228796291562500,14.5355625,-2.248242139816284,1.4667857885360718,-1.9946194887161255
1776228796311413500,14.55541357421875,-0.9347474575042725,0.13137267529964447,-2.05861759185791
1776228796331264500,14.575264404296876,0.16360969841480255,-0.802460253238678,-1.747331976890564
1776228796351115500,14.595115478515625,0.773932158946991,-1.1491279602050781,-1.0587130784988403
1776228796370966500,14.614966552734375,1.332065463066101,-1.1614474058151245,-0.03262052685022354
1776228796390817300,14.6348173828125,1.9789750576019287,-1.3372958898544312,1.1419190168380737
1776228796410668300,14.654668212890625,2.802244186401367,-1.7777087688446045,2.0881195068359375
1776228796430518300,14.674518310546874,3.5236380100250244,-2.192375421524048,2.7233622074127197
1776228796450369300,14.694369384765626,3.885164499282837,-2.2477781772613525,3.183042526245117
1776228796470220300,14.71422021484375,4.192864418029785,-2.045717716217041,3.5783095359802246
1776228796490071600,14.734071533203124,4.52028751373291,-1.8417482376098633,3.8420257568359375
1776228796509922600,14.753922607421876,4.7183098793029785,-1.7345188856124878,3.829874038696289
1776228796529773600,14.773773681640625,4.827942371368408,-1.8310561180114746,3.6517746448516846
1776228796549624300,14.793624267578124,4.258248805999756,-2.0693371295928955,3.3220937252044678
1776228796569475300,14.813475341796876,2.8979907035827637,-2.015876531600952,2.8661446571350098
1776228796589325300,14.8333251953125,0.7603764533996582,-1.0459812879562378,2.626187562942505
1776228796609176300,14.85317626953125,-1.4244188070297241,0.395586222410202,1.9902184009552002
1776228796629027300,14.87302734375,-2.9750595092773438,1.341313362121582,0.9890553951263428
1776228796648878300,14.89287841796875,-3.732363224029541,1.4174251556396484,-0.1131419986486435
1776228796668729600,14.9127294921875,-4.235350131988525,0.7881752848625183,-1.311443567276001
1776228796688580600,14.93258056640625,-4.899043560028076,-0.10667424649000168,-2.599395990371704
1776228796708431400,14.952431396484375,-5.610060691833496,-0.40915447473526,-3.4647574424743652
1776228796728282400,14.972282470703124,-5.673379421234131,0.07749506086111069,-3.6091487407684326
1776228796748132400,14.99213232421875,-4.464099407196045,0.8336756825447083,-3.0991804599761963
1776228796767983400,15.0119833984375,-2.7927470207214355,1.1427041292190552,-2.6140079498291016
1776228796787834400,15.03183447265625,-2.0379743576049805,1.1581871509552002,-2.1000051498413086
1776228796807685400,15.051685302734375,-1.9700286388397217,1.3617451190948486,-1.487694501876831
1776228796827536400,15.071536376953125,-1.8187352418899536,1.5918251276016235,-1.068526029586792
1776228796847387600,15.0913876953125,-1.7942168712615967,1.9533439874649048,-0.7304680347442627
1776228796867238400,15.11123828125,-2.0870895385742188,1.8179733753204346,-0.5914177894592285
1776228796887089400,15.13108935546875,-2.1342127323150635,1.1058419942855835,-0.9383499026298523
1776228796906939400,15.150939453125,-0.9987275004386902,0.3622889816761017,-1.497553825378418
1776228796926790400,15.170790283203125,0.7689544558525085,-0.464897096157074,-1.5136935710906982
1776228796946641400,15.190641357421875,1.6529974937438965,-1.0516815185546875,-0.8600944876670837
1776228796966492400,15.210492431640626,2.286346673965454,-1.3175259828567505,0.2550530731678009
1776228796986343700,15.23034375,3.2010245323181152,-1.604317545890808,1.2884234189987183
1776228797006194700,15.250194580078125,4.038502216339111,-1.9044065475463867,1.901715636253357
1776228797026045400,15.27004541015625,4.568210601806641,-2.0601232051849365,2.333820104598999
1776228797045896400,15.289896484375,4.7375898361206055,-1.774977684020996,2.852703332901001
1776228797065746400,15.309746337890624,4.8249030113220215,-1.2036830186843872,3.234551429748535
1776228797085597400,15.329597412109376,5.040433883666992,-0.8056653738021851,3.2866525650024414
1776228797105448400,15.349448486328125,5.487359046936035,-0.9925957918167114,3.1585779190063477
1776228797125299500,15.369299560546875,5.624531269073486,-1.6341670751571655,3.2112925052642822
1776228797145150500,15.389150390625,4.381771564483643,-2.027555227279663,3.0778403282165527
1776228797165001700,15.409001708984375,2.104034900665283,-1.6372020244598389,2.614326238632202
1776228797184852500,15.4288525390625,-0.4170531630516052,-0.4980851411819458,1.7639724016189575
1776228797204703500,15.448703369140626,-2.2369320392608643,0.17703309655189514,0.683734118938446
1776228797224553500,15.468553466796875,-3.1703765392303467,0.5367848873138428,-0.2758214473724365
1776228797244404500,15.488404541015624,-3.7456419467926025,0.5714033246040344,-1.000532627105713
1776228797264255500,15.50825537109375,-4.325405597686768,0.454469233751297,-1.7237213850021362
1776228797284106500,15.5281064453125,-4.762652397155762,0.2706746459007263,-2.5834548473358154
1776228797303957500,15.54795751953125,-4.891457557678223,0.13010500371456146,-3.4447333812713623
1776228797323808500,15.56780859375,-4.77799654006958,0.5180575251579285,-3.7108817100524902
1776228797343659500,15.587659423828125,-4.012141227722168,1.0489040613174438,-3.331855535507202
1776228797363510500,15.607510498046874,-2.977961540222168,1.3909673690795898,-2.825141668319702
1776228797383360500,15.627360595703125,-2.4932315349578857,1.7399179935455322,-2.5588812828063965
1776228797403211500,15.64721142578125,-2.3260419368743896,1.8162617683410645,-2.317594051361084
1776228797423062500,15.6670625,-2.3715970516204834,1.8804694414138794,-1.9769272804260254
1776228797442913500,15.68691357421875,-2.1840152740478516,2.2420740127563477,-1.357763409614563
1776228797462764500,15.7067646484375,-1.5224964618682861,2.371385335922241,-0.6918972134590149
1776228797482615600,15.726615478515624,-0.8662123084068298,1.9572471380233765,-0.7599769830703735
1776228797502466600,15.746466552734375,-0.5163898468017578,0.9798278212547302,-1.5081816911697388
1776228797522317600,15.766317626953125,-0.09042763710021973,-0.2511933445930481,-1.9932469129562378
1776228797542167600,15.78616748046875,0.7444251775741577,-1.4621398448944092,-1.7483998537063599
1776228797562018600,15.8060185546875,1.7102993726730347,-2.0885562896728516,-0.7687331438064575
1776228797581869600,15.82586962890625,2.4902303218841553,-2.1996068954467773,0.3500344455242157
1776228797601720600,15.845720458984376,3.197222948074341,-2.188448905944824,1.4540600776672363
1776228797621571600,15.865571533203125,3.669912338256836,-2.1731622219085693,2.418095827102661
1776228797641422600,15.885422607421875,4.007346153259277,-2.0868375301361084,3.115078926086426
1776228797661273600,15.905273681640624,4.3493499755859375,-1.8177648782730103,3.401928186416626
1776228797681124400,15.925124267578125,4.718648433685303,-1.5728623867034912,3.4131276607513428
1776228797700974600,15.944974609375,5.043381690979004,-1.5218740701675415,3.3452253341674805
1776228797720825300,15.964825439453126,5.227320671081543,-1.664398193359375,3.4286184310913086
1776228797740676600,15.984676513671875,4.590834617614746,-1.987570881843567,3.363323926925659
1776228797760527600,16.004527587890625,3.2416605949401855,-1.8397481441497803,2.6754963397979736
1776228797780378600,16.024378662109374,1.5126373767852783,-1.0349256992340088,1.8360860347747803
1776228797800229600,16.044229736328123,-0.06162714585661888,-0.33180510997772217,0.6434924006462097
1776228797820080600,16.06408056640625,-1.1444694995880127,-0.02208559401333332,-0.420962393283844
1776228797839931400,16.083931396484374,-2.0079917907714844,0.0669526681303978,-1.0639370679855347
1776228797859782000,16.103781982421875,-2.74253249168396,0.29654645919799805,-1.4003039598464966
1776228797879632000,16.1236318359375,-3.2746169567108154,0.6745861768722534,-1.6842155456542969
1776228797899483000,16.14348291015625,-3.5118203163146973,0.9223629236221313,-2.164970874786377
1776228797919334000,16.163333984375,-3.2124643325805664,0.937404990196228,-2.7658727169036865
1776228797939185000,16.183184814453124,-2.846774101257324,1.0151493549346924,-3.5057997703552246
1776228797959036000,16.203035888671874,-2.652726888656616,1.010475993156433,-4.135393142700195
1776228797978887000,16.222886962890627,-2.5648908615112305,1.144527792930603,-4.333982944488525
1776228797998738200,16.24273828125,-2.5126893520355225,1.769686222076416,-4.037403583526611
1776228798018588000,16.262587890625,-2.5555152893066406,2.4627797603607178,-3.628314971923828
1776228798038439000,16.28243896484375,-2.872530221939087,3.0532844066619873,-3.138108968734741
1776228798058290000,16.3022900390625,-2.819715738296509,3.153305768966675,-2.6724941730499268
1776228798078141000,16.322140869140625,-2.5741238594055176,2.4554221630096436,-2.804875612258911
1776228798097992000,16.341991943359375,-2.1581692695617676,1.6296687126159668,-2.9950597286224365
1776228798117843000,16.361843017578124,-1.1820722818374634,1.1061564683914185,-2.7924866676330566
1776228798137694000,16.38169384765625,-0.2967562973499298,0.517494261264801,-2.587977886199951
1776228798157545000,16.401544921875,0.5912534594535828,-0.3926210403442383,-1.535146951675415
1776228798177395000,16.42139501953125,1.7861506938934326,-1.2361602783203125,0.1132354810833931
1776228798197246000,16.441245849609373,3.1284406185150146,-1.6027007102966309,1.6133477687835693
1776228798217097000,16.461096923828126,4.3509955406188965,-1.6649023294448853,2.6041290760040283
1776228798236948000,16.480947998046876,4.951688766479492,-1.5629469156265259,2.893576145172119
1776228798256799000,16.500799072265625,5.21812105178833,-1.663970708847046,2.628751754760742
1776228798276650000,16.52064990234375,5.4029645919799805,-2.11509108543396,2.013579845428467
1776228798296501000,16.5405009765625,5.6013383865356445,-2.5905656814575195,1.5552935600280762
1776228798316352000,16.56035205078125,5.670342922210693,-3.2333052158355713,1.3409476280212402
1776228798336202800,16.58020263671875,5.1683573722839355,-4.006587982177734,1.4187700748443604
1776228798356053000,16.600052978515624,3.731896162033081,-4.058801651000977,1.566594123840332
1776228798375903700,16.61990380859375,1.8971121311187744,-2.561256170272827,0.871725857257843
1776228798395755000,16.639755126953126,0.6883102059364319,-1.25017511844635,-0.5198282599449158
1776228798415606000,16.65960595703125,0.6312325596809387,-1.2261850833892822,-2.264909505844116
1776228798435457000,16.67945703125,0.7610275745391846,-2.0989627838134766,-4.076589584350586
1776228798455308000,16.69930810546875,0.6084124445915222,-2.9370832443237305,-5.462794780731201
1776228798475159000,16.719158935546876,0.35898080468177795,-2.5324840545654297,-6.179946422576904
1776228798495009800,16.739009765625,0.3016496002674103,-1.4370869398117065,-6.451685905456543
1776228798514860000,16.758860107421874,0.5915725231170654,-0.4155668318271637,-6.547416687011719
1776228798534710800,16.778710693359375,0.919924259185791,0.3661676049232483,-6.366594314575195
1776228798554561800,16.798561767578125,1.6123754978179932,0.08694368600845337,-5.96072244644165
1776228798574413000,16.8184130859375,2.092045307159424,0.14431190490722656,-5.369731426239014
1776228798594264000,16.83826416015625,2.648827314376831,0.6770282983779907,-4.6442131996154785
1776228798614115000,16.858114990234377,3.145847797393799,1.4045735597610474,-3.325711488723755
1776228798633966000,16.877966064453126,3.4856157302856445,0.6711727976799011,-1.642134666442871
1776228798653816800,16.89781689453125,3.7853457927703857,0.20221196115016937,-0.1120825931429863
1776228798673667000,16.9176669921875,3.930971384048462,0.06982915103435516,0.7054578065872192
1776228798693517800,16.937517822265626,4.107340335845947,0.7416298985481262,-0.24511601030826569
1776228798713368800,16.957368896484375,4.273601531982422,1.0806732177734375,-0.3768652677536011
1776228798733219800,16.9772197265625,4.113959312438965,2.114546537399292,-1.1138108968734741
1776228798753070800,16.99707080078125,3.3479044437408447,3.229640245437622,-1.8454958200454712
1776228798772922000,17.016922119140624,1.810035228729248,2.2471485137939453,-1.9993271827697754
1776228798792773000,17.036773193359377,0.3497295081615448,0.29889535903930664,-1.1013283729553223
1776228798812624000,17.056623779296874,-0.10082487761974335,-1.4847133159637451,0.11927685886621475
1776228798832474000,17.07647412109375,0.8337126970291138,-1.8537145853042603,0.6837559342384338
1776228798852324900,17.096324951171876,1.2160992622375488,0.958029568195343,0.5539622902870178
1776228798872175900,17.11617578125,0.9325178265571594,1.3891122341156006,0.7786515951156616
1776228798892027100,17.136027099609375,1.0975805521011353,0.8665004372596741,0.8612819910049438
1776228798911878100,17.155878173828125,1.2369576692581177,0.7659395337104797,0.6716074347496033
1776228798931729200,17.175729248046874,1.017280101776123,0.619176983833313,0.5432984232902527
1776228798951580200,17.195580078125,0.7492731809616089,0.6717504262924194,0.499301940202713
1776228798971431000,17.215430908203125,0.7604027986526489,0.7522359490394592,0.4425148367881775
1776228798991281200,17.23528125,0.7584735751152039,0.6015247106552124,0.30366215109825134
1776228799011132000,17.2551318359375,0.5078874230384827,0.5102936029434204,-0.10053406655788422
1776228799030983000,17.27498291015625,0.5231910347938538,-0.6482208371162415,-0.5740683078765869
1776228799050834000,17.294833984375,0.7977754473686218,-0.7754334211349487,-1.3191946744918823
1776228799070685200,17.314685302734375,0.47595909237861633,-1.7826049327850342,-1.4110734462738037
1776228799090536200,17.3345361328125,0.3824208676815033,-1.9675657749176025,-0.9080553650856018
1776228799110387200,17.35438720703125,0.5224509239196777,-1.2287242412567139,-0.35897308588027954
1776228799130238000,17.374238037109375,0.45978304743766785,-0.7036119699478149,-0.02785719744861126
1776228799150088200,17.394088134765624,0.4825328290462494,-0.31143859028816223,-0.16557778418064117
1776228799169939000,17.41393896484375,0.5882997512817383,-0.050266366451978683,-0.27091673016548157
1776228799189790000,17.4337900390625,0.501357913017273,0.010696319863200188,-0.2673949599266052
1776228799209641000,17.453640869140624,0.16958290338516235,-0.13749927282333374,-0.21547769010066986
1776228799229492000,17.473491943359374,0.4382663071155548,0.18603484332561493,-0.10158015042543411
1776228799249343000,17.493343017578123,0.473223477602005,0.4842042326927185,-0.10616718232631683
1776228799269194200,17.5131943359375,0.47571831941604614,0.8101514577865601,-0.2992594242095947
1776228799289045000,17.533044921875,0.4775409996509552,0.9726210236549377,-0.25315582752227783
