time,seconds_elapsed,z,y,x
1776228505965751300,0.092751220703125,0.5298983190953731,0.5492512543410063,-0.5628007640048861
1776228505985603000,0.11260302734375,0.8162737130314112,0.6213982066631317,-0.8622916601017117
1776228506005454300,0.132454345703125,0.3495020044565201,0.7706643467620015,0.030602570469304917
1776228506025306000,0.15230615234375,0.1299918230473995,0.9397136302173137,0.7892696785107255
1776228506045158100,0.172158203125,0.05750117185413837,0.9108692285269498,0.650595221183449
1776228506065009200,0.192009033203125,-0.16480653131902218,0.9717477678596973,0.4214195319369435
1776228506084861200,0.211861083984375,-0.1940717887699604,1.132069847241044,0.1368545484237373
1776228506104713200,0.231713134765625,-0.19664777673780917,1.052596205292642,-0.002920746284909546
1776228506124564200,0.251564208984375,-0.09916706119477749,1.0492124080732463,0.1466799960631877
1776228506144416000,0.271416015625,-0.013247019585967064,1.1657245718225837,0.5594456448907033
1776228506164267300,0.291267333984375,-0.04254442574083805,1.2739894239693879,0.6643702832315117
1776228506184119300,0.311119384765625,0.28022388556897637,1.2837281431734562,0.5313737619427964
1776228506203971000,0.33097119140625,0.5872755723088979,1.1933400162398815,-0.002355257889255881
1776228506223822000,0.350822021484375,0.7473854702442884,1.1261243828400969,-0.3062222501784563
1776228506243674400,0.37067431640625,0.5513567021876573,1.253763505281508,-0.1041175232090056
1776228506263526100,0.390526123046875,0.613973025098443,1.4449427874803542,0.22133177081309258
1776228506283377200,0.410377197265625,0.7806465193331241,1.6015633819952606,0.5571235951513052
1776228506303229400,0.4302294921875,1.0722352640032768,1.6075617456272244,0.6374233857255429
1776228506323081200,0.450081298828125,1.212063421410322,1.6691031327828765,0.3954292045034468
1776228506342932200,0.46993212890625,1.3147241699397563,1.8225763691827654,0.2241281235333532
1776228506362784300,0.4897841796875,1.6034902584046125,2.0359271511793136,0.39656032742522657
1776228506382635000,0.509635009765625,1.8462901299864052,2.5168361061781646,0.5434836307249963
1776228506402487300,0.5294873046875,2.018084035974741,2.965976880994439,0.6950581208314747
1776228506422339300,0.54933935546875,2.038792477482557,3.190702751225233,0.7033043364554643
1776228506442190000,0.569190185546875,2.1790911750108,3.3295810605615377,0.5866056006254627
1776228506462042400,0.58904248046875,2.26370714828372,3.5028725116312502,0.3466216632472351
1776228506481894100,0.60889404296875,2.5825661771953103,3.6552170362621546,0.32385680066626515
1776228506501745200,0.6287451171875,2.991238163501024,3.905566592571139,0.3730008804004639
1776228506521597200,0.64859716796875,3.3098435099124908,4.055110088306665,0.08806512734610587
1776228506541448200,0.6684482421875,3.7208033148944377,4.120321688407659,0.19025687012430278
1776228506561300200,0.68830029296875,2.9371558601796623,3.967738678845763,0.5138691579775885
1776228506581152000,0.708152099609375,2.150959890025854,3.9542391458034514,0.9641520520336926
1776228506601003000,0.7280029296875,1.4852490789055823,3.9039568192869423,0.48293479827065017
1776228506620855000,0.74785498046875,0.793604785105586,3.676012571531534,-1.9448983882546425
1776228506640707000,0.76770703125,1.4765759431064127,3.7428438817888496,-2.691619257110357
1776228506660558000,0.78755810546875,0.9042284753382206,3.965802742347121,-2.59983762999177
1776228506680410000,0.80741015625,-0.4764543136775493,3.8178339485824107,-3.192017925477028
1776228506700262100,0.82726220703125,-0.030317981374263763,2.613669171467423,-4.997126734769344
1776228506720113200,0.847113037109375,1.2581132249236107,1.4851222376555204,-6.002631226280331
1776228506739965000,0.86696484375,1.0458949540883302,-0.18321137205958365,-4.889053898063302
1776228506759816000,0.88681591796875,-1.1897943064570426,-2.635592833983898,-1.5819965117380022
1776228506779668000,0.90666796875,-2.079386938199401,-7.286206809240579,-1.538941213865578
1776228506799520000,0.92652001953125,-1.4289362400531769,-13.165540741676091,-5.876250579467415
1776228506819371000,0.94637109375,-6.578710281792283,-18.1413990629673,-8.231421959483622
1776228506839223000,0.96622314453125,-8.827439056652784,-10.477517463231086,2.252187390881777
1776228506859075000,0.986074951171875,-6.821097480919957,-2.172805226609111,14.065330357784031
1776228506878926000,1.005926025390625,-1.7424959935128688,-0.5676490808188915,21.143578307199476
1776228506898777900,1.02577783203125,6.069609836053848,-2.896415853512287,15.21074425524473
1776228506918628900,1.04562890625,7.0951686890780925,-3.3870383932739494,10.445876124298572
1776228506938481200,1.065481201171875,0.026830431519448757,-2.6669933498978615,15.636442195153235
1776228506958333000,1.0853330078125,2.7656460318297147,-1.1968687748879194,15.738343065226077
1776228506978184000,1.105183837890625,7.558767612835765,3.080463676396012,12.391078463935852
1776228506998036200,1.1250361328125,8.054358588659763,4.231030718836188,-0.9024678954064845
1776228507017887200,1.14488720703125,-1.4462687753871082,4.2705654413670295,-9.60644014686644
1776228507037739000,1.164739013671875,-9.673481300482154,3.6226761181414124,-7.807123364979028
1776228507057591000,1.184591064453125,-10.30850295882821,2.658698399761319,-1.4441075056999921
1776228507077442000,1.204442138671875,-9.583020692834257,-2.650294144031405,-11.283100855422019
1776228507097294000,1.224294189453125,-8.209035940152406,-3.378262381622195,-12.877259221857786
1776228507117146000,1.24414599609375,-5.472912355405092,-2.8158582157194614,0.13270634270310402
1776228507136996900,1.263996826171875,1.2366174324303865,0.025852818658947944,5.946316633862256
1776228507156849200,1.28384912109375,5.233107573986053,1.5788368786633014,0.27191139977574347
1776228507176700200,1.3037001953125,5.644638456854224,1.6854028179377316,-4.857795713229478
1776228507196552000,1.323552001953125,4.645211239430308,0.7433107681512833,-6.040380234438181
1776228507216404000,1.343404052734375,2.1245257643476125,0.6949737304836511,-3.4295512548327443
1776228507236255000,1.3632548828125,0.5307201568722725,0.9143260909825562,-1.1210612542316316
1776228507256107000,1.38310693359375,0.49527211913317437,0.7508195363461971,-1.0008695251867175
1776228507275958000,1.4029580078125,2.3001029882669446,0.7577157256007194,-1.8004840721011162
1776228507295810000,1.42281005859375,4.1357898911744355,0.7144418165415525,-3.213379277935624
1776228507315662000,1.442662109375,3.7100174247249957,0.5197808297067881,-3.355171428892016
1776228507335513000,1.46251318359375,1.6167968992233275,0.9067641312956809,-1.8607579235389828
1776228507355365000,1.482365234375,1.248753860425949,1.6477561011105775,-0.09123305332511662
1776228507375216000,1.502216064453125,2.2167431525349617,1.8531869037628173,-0.6736804748252033
1776228507395068000,1.52206787109375,3.2782845885664225,2.0003601632356642,-1.9393682266563177
1776228507414920200,1.541920166015625,3.0964369060754775,1.2727870624423026,-1.7323264816761015
1776228507434771000,1.56177099609375,2.65782044788301,1.096765309625864,0.17461130149662493
1776228507454623000,1.581623046875,2.1194553292155263,1.267411214622855,0.25222236444354057
1776228507474475300,1.601475341796875,1.7810691775351761,0.6040086804449558,-1.031672659729421
1776228507494326000,1.621325927734375,0.3910445596784353,-0.8587930043309926,-0.5196025505304336
1776228507514178000,1.641177978515625,-0.3357078723818063,-0.9054606474816799,1.738579404591024
1776228507534029000,1.661029052734375,-1.735322740882635,-1.328829852181673,2.8229841220766305
1776228507553880800,1.680880859375,-2.3163737395882604,-1.2421727284699677,2.5726342735067007
1776228507573733400,1.7007333984375,-1.8048977968901394,-0.8100695976942777,2.966372602313757
1776228507593584400,1.72058447265625,-1.9770330636620521,0.6207873812884092,3.3815266441151497
1776228507613436200,1.740436279296875,-0.58893152282238,2.2239392015188932,0.644663639177382
1776228507633287200,1.760287109375,2.2887422208189965,0.8564841428667307,-4.553772142139077
1776228507653139200,1.78013916015625,2.477293200340867,0.5599181943058967,-4.418085030059516
1776228507672991200,1.7999912109375,1.8327409125834702,-1.5248217953592538,-2.2545602574929595
1776228507692842200,1.81984228515625,2.112203166130185,-1.4998960284173488,-1.002248704585433
1776228507712694300,1.8396943359375,0.2026595843732357,-0.722790542691946,1.5619880351930855
1776228507732545000,1.859544921875,-3.1077479891628026,-2.4958897642612454,0.44015170493572947
1776228507752397300,1.879397216796875,-3.0011072310864924,-3.388885190184414,0.1468716461777687
1776228507772249300,1.899249267578125,-2.001669492268562,-1.7526830410063265,0.9498436868265271
1776228507792100000,1.91910009765625,-1.925368342876434,-2.1645023854270575,0.13152590074688195
1776228507811952000,1.9389521484375,-2.3598645062685013,-3.5957717446029185,-2.391541208775341
1776228507831803400,1.958803466796875,-0.8058399973005056,-3.6184532397493716,-2.4658047148600217
1776228507851655200,1.9786552734375,-0.027518121522665022,-2.3451263713419435,-1.5702254099234938
1776228507871507200,1.998507080078125,-1.3385814308673143,-1.841853608843684,-1.4256398288562893
1776228507891358200,2.018358154296875,-2.3973884734988213,-2.144940191344917,-1.7333116933211683
1776228507911210200,2.038210205078125,-0.5177922862380743,-2.874988742341101,-2.0627008840754626
1776228507931062300,2.058062255859375,0.2775005980849266,-2.2118606411904094,-1.4011387170672416
1776228507950913300,2.077913330078125,1.1022533856481314,-1.7506380911752581,-1.1875029806494712
1776228507970765000,2.09776513671875,2.2075597291260958,-0.8323401739522814,0.6817620744720101
1776228507990616300,2.1176162109375,-0.6605202567398548,-1.233181028240919,0.4054945253133774
1776228508010468400,2.13746826171875,-1.246698681461811,-2.055897487670928,0.3649051791630685
1776228508030320000,2.157320068359375,-1.829600860992074,-1.3046955278784036,0.6128045658409595
1776228508050171100,2.177171142578125,-1.1667816796600818,-1.1462376349337398,0.13717968872487543
1776228508070023400,2.1970234375,-0.055609074497222896,-1.6727900046020745,-0.43746392715647814
1776228508089874200,2.216874267578125,0.4353349523037672,-1.240806993074715,-0.5397852145984768
1776228508109726200,2.236726318359375,-0.026121114206314085,-0.979214888869971,-1.0022099800102413
1776228508129578200,2.256578125,-0.07283435006439685,-0.9719228321656584,-0.7992922561574727
1776228508149429200,2.27642919921875,-0.5801233624666929,-0.6018782442875206,-0.5845187478814273
1776228508169281300,2.29628125,-1.463149475300312,-0.18671660370156168,-0.7110443561229854
1776228508189132300,2.31613232421875,-1.5227198546439409,0.15647256434634327,-0.5647144156064838
1776228508208984000,2.335984130859375,-1.6335826143294572,0.6464325485460459,-0.6722595751766115
1776228508228836400,2.35583642578125,-2.1779227157533168,1.1446971274934707,-0.10999518307074904
1776228508248687400,2.375687255859375,-1.7882640574753284,1.1078570508740841,0.7203733254823833
1776228508268539100,2.3955390625,-2.4497739097744224,1.122260108627379,1.532110637193173
1776228508288390100,2.41539013671875,-3.6003964817941188,1.3600216937810181,1.2254956613700836
1776228508308242400,2.435242431640625,-5.382976648414135,2.3242845127128064,1.1807329019926487
1776228508328094200,2.45509423828125,-5.434166737425327,2.9585546220391987,0.8913258852757513
1776228508347945200,2.4749453125,-4.133571046081185,3.2768817360311746,1.2797240220986306
1776228508367797200,2.49479736328125,-3.800679400163889,1.6761514438591896,0.7982415049955248
1776228508387648000,2.51464794921875,-2.863948585149646,2.0170276587896048,0.8700921047195792
1776228508407500300,2.534500244140625,-2.1026310356646776,1.9241504915192722,0.5444703036747872
1776228508427352000,2.55435205078125,-1.6395692875236272,1.5180312584362923,0.36642566672861576
1776228508447203000,2.574203125,-1.5079343734443187,1.3036452881731093,0.040298162917699665
1776228508467055400,2.594055419921875,-1.2018436406910418,1.2588469460256397,0.15856243103137238
1776228508486907100,2.6139072265625,-0.7760404868423938,1.119160096785426,0.2802883108410053
1776228508506758100,2.633758056640625,-0.35112697530984877,0.949062181060016,0.5857498605789616
1776228508526610200,2.653610107421875,-0.16132161181271076,0.9488329023487866,0.9617687370937317
1776228508546461200,2.673461181640625,0.07829495355784892,1.1477679132409393,0.9165431825101376
1776228508566313200,2.693313232421875,0.29273616113960743,1.1178645040169357,0.8562105866223573
1776228508586164700,2.713164794921875,0.021524434065818786,1.3929649090923368,0.5507586266966537
1776228508606015700,2.733015625,-0.4521300197601318,1.6891957804799078,0.17308727026712148
1776228508625867800,2.75286767578125,1.1037176129817963,1.3995268979564308,0.25716215893328187
1776228508645718800,2.77271875,2.1767916658967734,1.6056876223184167,0.38472876412775364
