time,seconds_elapsed,z,y,x
1776228505965751300,0.092751220703125,-9.158750739902258,-3.44533743750751,0.645999344760552
1776228505985603000,0.11260302734375,-9.135974844470619,-3.504914831113815,0.6480106115177273
1776228506005454300,0.132454345703125,-9.122754128369689,-3.5428503017544744,0.6276531754046678
1776228506025306000,0.15230615234375,-9.111839351123571,-3.57872241012454,0.5809618591174482
1776228506045158100,0.172158203125,-9.100251204660534,-3.6166163797110316,0.5252570691607892
1776228506065009200,0.192009033203125,-9.083395346927642,-3.665074705670774,0.4790995309567079
1776228506084861200,0.211861083984375,-9.05622560045123,-3.734267776623368,0.45870307800751176
1776228506104713200,0.231713134765625,-9.01653948675096,-3.825829915772378,0.4852028162678703
1776228506124564200,0.251564208984375,-8.966477524986862,-3.9336265658855436,0.5470398253692313
1776228506144416000,0.271416015625,-8.909193795275687,-4.054927132955194,0.5951580691870302
1776228506164267300,0.291267333984375,-8.847575251230596,-4.185039367511869,0.613385215273127
1776228506184119300,0.311119384765625,-8.787570572122931,-4.309849404007196,0.611707856645435
1776228506203971000,0.33097119140625,-8.734743821820617,-4.415935743071139,0.6116796169316395
1776228506223822000,0.350822021484375,-8.690149477812648,-4.499853797207773,0.6348263549696653
1776228506243674400,0.37067431640625,-8.65049200568497,-4.569433529390395,0.6779777336277067
1776228506263526100,0.390526123046875,-8.611504395642877,-4.638658164525032,0.7037278956297784
1776228506283377200,0.410377197265625,-8.573024150601029,-4.710883150519431,0.6936972077418119
1776228506303229400,0.4302294921875,-8.535560389125347,-4.78361988542825,0.6569418867964297
1776228506323081200,0.450081298828125,-8.500013274925946,-4.849351125489175,0.6355738123361021
1776228506342932200,0.46993212890625,-8.46874836809039,-4.901370066539943,0.6536460601214319
1776228506362784300,0.4897841796875,-8.44252730064094,-4.942338329005241,0.6836735341165214
1776228506382635000,0.509635009765625,-8.416727673473954,-4.9845098297804595,0.6955156553406268
1776228506402487300,0.5294873046875,-8.379477847009897,-5.050279063764214,0.6703850134763867
1776228506422339300,0.54933935546875,-8.321177633732557,-5.152002823704481,0.6206892546761781
1776228506442190000,0.569190185546875,-8.241957966545224,-5.282651064833998,0.578023869436793
1776228506462042400,0.58904248046875,-8.145961352080107,-5.4311026736795895,0.5628757289372385
1776228506481894100,0.60889404296875,-8.040297914603352,-5.58628972826004,0.5633446250906213
1776228506501745200,0.6287451171875,-7.931523651629686,-5.740273252269625,0.5572961752392351
1776228506521597200,0.64859716796875,-7.825606531652808,-5.8865241362005465,0.5282921625403687
1776228506541448200,0.6684482421875,-7.725105006983876,-6.0240106989175075,0.45213725321851667
1776228506561300200,0.68830029296875,-7.623505750206112,-6.158881526178122,0.3474447066005319
1776228506581152000,0.708152099609375,-7.513672333568334,-6.297713658285141,0.23220073615610598
1776228506601003000,0.7280029296875,-7.40476304603815,-6.428492832317948,0.11980548793999478
1776228506620855000,0.74785498046875,-7.313913731333613,-6.53244420517981,0.06500111285520252
1776228506640707000,0.76770703125,-7.240616439932585,-6.613491672316194,0.07475694759085308
1776228506660558000,0.78755810546875,-7.164317628628015,-6.695641547736525,0.10642632074118591
1776228506680410000,0.80741015625,-7.071864970380068,-6.791582048100232,0.18310493427673355
1776228506700262100,0.82726220703125,-6.9647910815835,-6.894651377430558,0.35476978879161175
1776228506720113200,0.847113037109375,-6.88972444242239,-6.944799848434329,0.68690513644889
1776228506739965000,0.86696484375,-6.889692293718457,-6.88222736466527,1.156493436814472
1776228506759816000,0.88681591796875,-6.935078664886951,-6.727531308472156,1.677914215748012
1776228506779668000,0.90666796875,-7.032644720625877,-6.468930056646466,2.2057260839581487
1776228506799520000,0.92652001953125,-7.209642624998092,-6.063938804680109,2.723984818664193
1776228506819371000,0.94637109375,-7.2343363367497915,-5.6150663254112,3.507961066941917
1776228506839223000,0.96622314453125,-6.898425050750374,-5.2538826509892935,4.580265304528177
1776228506859075000,0.986074951171875,-6.280123056536913,-5.103921222102642,5.538990801468492
1776228506878926000,1.005926025390625,-5.672345963469147,-5.207464014163613,6.072658702230453
1776228506898777900,1.02577783203125,-5.198718982172012,-5.30911120173633,6.399769426658749
1776228506918628900,1.04562890625,-4.911058224600553,-5.230441569647192,6.685385526660085
1776228506938481200,1.065481201171875,-4.471366246131062,-5.3055479562968015,6.930254021209478
1776228506958333000,1.0853330078125,-3.8490222830504175,-5.654887463667988,7.026924004891514
1776228506978184000,1.105183837890625,-3.4226346073120832,-6.123194711247086,6.852915345463156
1776228506998036200,1.1250361328125,-3.575854161211848,-6.417834075659513,6.495771301820874
1776228507017887200,1.14488720703125,-4.187287730960548,-6.44135757458806,6.094744277310371
1776228507037739000,1.164739013671875,-4.885808632531762,-6.314656609779596,5.694240399891138
1776228507057591000,1.184591064453125,-5.368429652145505,-6.348910761559009,5.200160413151979
1776228507077442000,1.204442138671875,-5.409619156146049,-6.481040765678882,4.990240482386946
1776228507097294000,1.224294189453125,-5.118287016585469,-6.561414863598347,5.188579280951619
1776228507117146000,1.24414599609375,-4.722794829848408,-6.7827949305325745,5.278188824728131
1776228507136996900,1.263996826171875,-4.429584621456265,-7.154438624170422,5.036185656481981
1776228507156849200,1.28384912109375,-4.30640218616277,-7.50433576542437,4.61630020224452
1776228507176700200,1.3037001953125,-4.3082244331538675,-7.711906502714752,4.258646163253486
1776228507196552000,1.323552001953125,-4.403396871754527,-7.782114011406898,4.027305843318999
1776228507216404000,1.343404052734375,-4.532793359257281,-7.797821283626556,3.849433786460757
1776228507236255000,1.3632548828125,-4.617023548083007,-7.838058016946912,3.66310486690253
1776228507256107000,1.38310693359375,-4.618834981419146,-7.9222011120110745,3.4749773734897373
1776228507275958000,1.4029580078125,-4.605868824601173,-8.006610164535045,3.294016702966392
1776228507295810000,1.42281005859375,-4.669247656317055,-8.022143833753466,3.1644477815061807
1776228507315662000,1.442662109375,-4.817485037890076,-7.960210816931724,3.0979440957680344
1776228507335513000,1.46251318359375,-4.976460963359475,-7.877482849362492,3.057858753617108
1776228507355365000,1.482365234375,-5.11030186305046,-7.812675153887271,3.002881547282636
1776228507375216000,1.502216064453125,-5.237776734840869,-7.747861028671264,2.950715891237557
1776228507395068000,1.52206787109375,-5.394010668125748,-7.638854710507393,2.953462267336249
1776228507414920200,1.541920166015625,-5.594486478719115,-7.471673851272463,3.007687486259639
1776228507434771000,1.56177099609375,-5.851835100135207,-7.270064652734995,3.0120711081713436
1776228507454623000,1.581623046875,-6.156079328238964,-7.038933591637015,2.9540625713169573
1776228507474475300,1.601475341796875,-6.462481611159443,-6.76847940493226,2.931621314667165
1776228507494326000,1.621325927734375,-6.738372435960173,-6.452799590578675,3.0209447349786758
1776228507514178000,1.641177978515625,-6.99593616143167,-6.136036072641611,3.094565266984701
1776228507534029000,1.661029052734375,-7.203129297581315,-5.899414597433805,3.0793215206235645
1776228507553880800,1.680880859375,-7.314750766679644,-5.774034652096033,3.0537393355995417
1776228507573733400,1.7007333984375,-7.339455584347248,-5.753633669102191,3.0328979153618216
1776228507593584400,1.72058447265625,-7.287330260312557,-5.824135776826739,3.024009967768192
1776228507613436200,1.740436279296875,-7.188183657383918,-5.9056228044241665,3.102261958967149
1776228507633287200,1.760287109375,-7.154657819879055,-5.864106552687287,3.2547681039005516
1776228507653139200,1.78013916015625,-7.2710834743887185,-5.584449653351307,3.4807550801083442
1776228507672991200,1.7999912109375,-7.509692324021458,-5.121332375630736,3.6806066213235256
1776228507692842200,1.81984228515625,-7.825815790489315,-4.608909507471322,3.699316874751448
1776228507712694300,1.8396943359375,-8.159937854984403,-4.123971443086862,3.5466397571653125
1776228507732545000,1.859544921875,-8.400580256271361,-3.7191581780359146,3.430523899257183
1776228507752397300,1.879397216796875,-8.565431211254,-3.4437174350902438,3.3082606246352193
1776228507772249300,1.899249267578125,-8.688590557932853,-3.2951915919646617,3.1337665197774767
1776228507792100000,1.91910009765625,-8.75935511598587,-3.234422358225286,2.9970971186622974
1776228507811952000,1.9389521484375,-8.795918129229545,-3.2006185805618763,2.925448178990185
1776228507831803400,1.958803466796875,-8.851172398939728,-3.1309508778348563,2.832716119278967
1776228507851655200,1.9786552734375,-8.933978692442178,-2.986760725826025,2.7264748819142577
1776228507871507200,1.998507080078125,-8.987011778971553,-2.8370149855166673,2.712074308378994
1776228507891358200,2.018358154296875,-8.988536212059856,-2.7550924891114232,2.790351434019208
1776228507911210200,2.038210205078125,-8.985242431211471,-2.6913801876574754,2.8622143087029457
1776228507931062300,2.058062255859375,-9.005712387788295,-2.578637605574727,2.9014053323626516
1776228507950913300,2.077913330078125,-9.071951577371358,-2.397615414122492,2.8498268285557624
1776228507970765000,2.09776513671875,-9.186358293274045,-2.1554738603189585,2.671167712973058
1776228507990616300,2.1176162109375,-9.288435104435681,-1.9219278470337389,2.490292382645607
1776228508010468400,2.13746826171875,-9.374279158198833,-1.7731791549377143,2.2691655598200855
1776228508030320000,2.157320068359375,-9.431975560364126,-1.7467144879907368,2.038923410385847
1776228508050171100,2.177171142578125,-9.464670792263746,-1.8126963418118656,1.8178356043964623
1776228508070023400,2.1970234375,-9.48663127965927,-1.8846943871825932,1.619301721651107
1776228508089874200,2.216874267578125,-9.509808157107233,-1.9324080322548747,1.4141178794972598
1776228508109726200,2.236726318359375,-9.530334812307357,-1.9586201857455074,1.2275642112724483
1776228508129578200,2.256578125,-9.549013209292292,-1.9551383349791167,1.0789650106497108
1776228508149429200,2.27642919921875,-9.566951601564883,-1.9305884156122803,0.9574156564507633
1776228508169281300,2.29628125,-9.579207856547832,-1.9123997018404304,0.867116376844421
1776228508189132300,2.31613232421875,-9.586375848481058,-1.9061850651092827,0.798897265490517
1776228508208984000,2.335984130859375,-9.59163128479123,-1.9051839252427218,0.7357057730402797
1776228508228836400,2.35583642578125,-9.595563948065042,-1.915181149252504,0.6539278727374971
1776228508248687400,2.375687255859375,-9.605292730396986,-1.9031809148572385,0.5353854452695698
1776228508268539100,2.3955390625,-9.625082888016104,-1.8156807644501327,0.4811136837907135
1776228508288390100,2.41539013671875,-9.652406948271393,-1.649719948529452,0.529005169647932
1776228508308242400,2.435242431640625,-9.675953243553638,-1.4833211795829235,0.5882828131226823
1776228508328094200,2.45509423828125,-9.693446814668178,-1.3890059423334895,0.5273882725032046
1776228508347945200,2.4749453125,-9.705962012848257,-1.3514946884542702,0.37167664605937895
1776228508367797200,2.49479736328125,-9.712494044965505,-1.3291418407402933,0.2668789403001778
1776228508387648000,2.51464794921875,-9.71593512533009,-1.315376934760064,0.2019116886153817
1776228508407500300,2.534500244140625,-9.715746909281611,-1.327994278140366,0.10525616271696053
1776228508427352000,2.55435205078125,-9.713136434522271,-1.351035692640394,-0.007893962411995744
1776228508447203000,2.574203125,-9.710247142821549,-1.3696354714311658,-0.07471481634902302
1776228508467055400,2.594055419921875,-9.708682377722859,-1.3781079700917005,-0.1126236684108153
1776228508486907100,2.6139072265625,-9.708018945378065,-1.3787813393086195,-0.1539941732677631
1776228508506758100,2.633758056640625,-9.707213474214077,-1.3776242782279848,-0.20626893397681414
1776228508526610200,2.653610107421875,-9.706230892917514,-1.375599348271638,-0.2592201874416321
1776228508546461200,2.673461181640625,-9.704033090612292,-1.3756659837670624,-0.3311608400693163
1776228508566313200,2.693313232421875,-9.699853759101032,-1.3738944440498948,-0.44231297462284563
1776228508586164700,2.713164794921875,-9.688412912154197,-1.4121185223735868,-0.5576419199369848
1776228508606015700,2.733015625,-9.668608726009726,-1.5281855727039277,-0.5941674507144838
1776228508625867800,2.75286767578125,-9.647874565538764,-1.6739621171213686,-0.5354880653938279
1776228508645718800,2.77271875,-9.627996145114302,-1.8205672213174402,-0.39699901110343633
