time,seconds_elapsed,z,y,x
1776228623921082600,0.08108251953125,0.6415799939483404,-0.13684417316019534,-0.18613836542218923
1776228623940933600,0.10093359375,1.0150777910202742,-0.23732582408487796,-0.11479863782972097
1776228623960783600,0.12078369140625,0.8436936348766088,0.02444645899236202,0.07819536564089358
1776228623980634600,0.140634521484375,0.3371294296175241,0.21193273189216852,0.15737170514315366
1776228624000485600,0.160485595703125,0.16498071884214877,0.40643677459955213,0.2768335124783218
1776228624020336600,0.180336669921875,0.5060772985249757,0.41168110499382016,0.009645341832190752
1776228624040186600,0.2001865234375,0.9014397214025258,0.3319645942002535,-0.5188492479451
1776228624060037600,0.22003759765625,1.246911447429657,0.7166741056382656,-0.985748090030998
1776228624079889000,0.239888916015625,1.2809130857527256,0.7069613976582885,-1.0569402989115566
1776228624099739000,0.25973876953125,1.3241981007277965,1.124046699783206,-0.7500017171572894
1776228624119590000,0.27958984375,1.730436722406745,1.1800894895225762,-0.07401844528242946
1776228624139441000,0.29944091796875,2.304011101621389,1.5038611326560378,-0.007897913642972708
1776228624159291000,0.319290771484375,3.226892839503288,1.9418875160008668,-0.9816332020580768
1776228624179141600,0.3391416015625,4.109905508333444,1.8949983390539884,-1.5124522892601786
1776228624198992600,0.35899267578125,4.789115852496027,3.5565789673775434,-0.4490738470599055
1776228624218842600,0.378842529296875,4.31926079095304,2.9655709305420515,-0.8682979147791862
1776228624238693600,0.398693603515625,4.5710798352926965,3.1987118701577186,-0.6307452962011099
1776228624258544600,0.418544677734375,4.584653018093109,3.582721708893776,-0.2542868957579136
1776228624278395600,0.438395751953125,4.27272817235887,3.508441251674294,-0.7910182757437229
1776228624298245600,0.45824560546875,4.2732893133729695,3.613736732621491,-1.5764885619714855
1776228624318096600,0.4780966796875,5.521493138700723,3.7876469001114366,-2.1832819046989083
1776228624337947600,0.49794775390625,5.777145477592945,4.003444490738213,-2.6551950678154825
1776228624357797600,0.517797607421875,6.358630776062608,3.2779648550927636,-3.681861882081628
1776228624377649000,0.53764892578125,5.612812993526458,1.7864657758817075,-3.973264456529915
1776228624397500000,0.5575,5.352500846129655,3.005627338859439,-3.0640628689542413
1776228624417350000,0.577349853515625,3.753261230906844,4.153977289772033,-2.053019155755639
1776228624437201000,0.597200927734375,2.6090397581011056,3.692767599238455,-2.6628493819609282
1776228624457051600,0.6170517578125,1.96633163690567,2.1281711351126433,-4.521189722964167
1776228624476902000,0.63690185546875,4.135429825690388,1.5135124658375978,-4.027824021974205
1776228624496752600,0.656752685546875,3.774267194056511,1.274953592826426,-2.521538584780693
1776228624516603600,0.676603759765625,1.3174275836795568,0.4432388572961092,-2.0953031769946215
1776228624536453600,0.69645361328125,-0.632930823546648,-0.1300567049771547,0.002543547002971172
1776228624556304600,0.7163046875,-1.6604343808978794,-1.6122797140598297,2.2237726127803326
1776228624576155600,0.73615576171875,-6.471777847293019,-2.1404259287908673,4.474161429807544
1776228624596006700,0.756006591796875,-12.718134827828406,-1.8540669014677404,5.843123970413208
1776228624615856600,0.775856689453125,-12.688985890233516,-2.557974756774306,7.675688941907882
1776228624635707600,0.795707763671875,-8.90920840832293,-2.8212510146737095,9.095788380032777
1776228624655559000,0.815558837890625,-7.251213237270712,-1.7644490282543002,5.822762150385976
1776228624675408600,0.83540869140625,-7.074556693682074,-1.117664597530663,2.5763649844676255
1776228624695259600,0.855259765625,-3.678863869309425,-0.8370917523935437,1.389770935356617
1776228624715110700,0.875110595703125,-1.1439888330936432,-3.168656923633814,0.3202946146726608
1776228624734960600,0.894960693359375,-4.307334790837764,-3.187664406442642,2.7655042852714655
1776228624754811600,0.914811767578125,-7.130724571105837,-0.5245680639833211,5.540739106440544
1776228624774662400,0.934662353515625,-1.6556202586144209,-0.9296842575035988,3.6364135515928266
1776228624794512400,0.954512451171875,3.9566356855511664,-2.9240403580188747,0.01877630440145731
1776228624814363400,0.97436328125,-0.7739362080395221,-4.516325331798195,-1.7792521912410855
1776228624834214400,0.99421435546875,-8.179583051174879,-2.1116049079760906,0.06346797130405903
1776228624854064400,1.014064453125,-7.09916448071599,0.3523017181776464,1.7331453968435524
1776228624873915400,1.033915283203125,-0.6732827076792717,-0.13364435420557855,0.9576299567885697
1776228624893766400,1.053766357421875,-1.1270587410807609,-3.1597552397757767,-0.8084339593164622
1776228624913616400,1.073616455078125,-6.679345077452063,-3.0686610103994605,0.31251141345053907
1776228624933467400,1.09346728515625,-8.776239030769467,-2.7855194838181134,0.6958674644529819
1776228624953318400,1.113318359375,-7.440169874984026,-1.4572200852513313,1.437861889308691
1776228624973168400,1.13316845703125,-7.844936086022853,-2.461437167300284,2.7835633813142775
1776228624993019600,1.15301953125,-6.665183865630627,-2.1610412851877507,4.145464020709693
1776228625012870700,1.17287060546875,-5.578523770433664,-2.3979469841644168,4.561281202594936
1776228625032721400,1.192721435546875,-3.4103526333659886,-1.970655053062737,6.833721984693407
1776228625052571600,1.212571533203125,-1.8655530488610266,-0.7652746165476739,7.764213028535246
1776228625072422400,1.23242236328125,-1.497017842632532,-5.8243643248856065,1.4914770135097204
1776228625092273400,1.2522734375,-5.086623465821146,-5.623538970202207,2.7302742741972206
1776228625112123400,1.272123291015625,-13.24292325656414,-1.8823997003741562,8.572290575629472
1776228625131974400,1.291974365234375,-12.258641001302003,0.8368117664083838,9.147541363623738
1776228625151825400,1.311825439453125,-6.156162330347299,1.2550628974422813,4.664429734641313
1776228625171675400,1.33167529296875,-3.276131209924817,-1.6741069324195383,-0.8174366193309426
1776228625191526400,1.3515263671875,-5.302970214763284,0.27160394126176834,2.2896695647969842
1776228625211377400,1.37137744140625,-5.773530209705234,2.24840465747267,4.350649324168264
1776228625231227400,1.391227294921875,-1.1400550007760524,3.0919658981412645,2.9592411429986356
1776228625251078400,1.411078369140625,1.499448284649849,3.251014888846874,-1.0683867718815803
1776228625270929700,1.4309296875,0.9888239903450011,3.8846588290989397,-3.6395810757130382
1776228625290779400,1.450779296875,-0.8249819201439619,3.3072797969043255,-2.465929802544415
1776228625310630700,1.470630615234375,-1.838043695166707,4.09038773791492,-0.38663551106452937
1776228625330481400,1.4904814453125,-0.6908230405449867,4.6777825526893135,-1.5511062834337352
1776228625350331600,1.51033154296875,1.241743689402938,6.033001230102777,-3.2564521114647387
1776228625370182400,1.530182373046875,3.1215099725335835,5.846456329706311,-4.1084354357808825
1776228625390033400,1.550033447265625,4.579008874726295,6.454193090763687,-2.4724580352693795
1776228625409883400,1.56988330078125,3.5854601939469575,6.867640620908141,-0.5153235580369829
1776228625429734400,1.589734375,5.913708495724201,6.826924579638242,-0.37878801243454213
1776228625449585400,1.60958544921875,6.3750494114220135,5.801179848653078,-1.7061245573185384
1776228625469435400,1.629435302734375,7.1325056093037125,4.9765562404274934,-3.2138816744998095
1776228625489286400,1.649286376953125,4.9516275508761405,5.714758287262916,-1.9221376903921366
1776228625509137400,1.669137451171875,4.133234945994615,6.347892524427175,-0.5653717104714363
1776228625528987400,1.6889873046875,4.42071683986783,6.114861182665824,-0.06146569157093763
1776228625548838400,1.70883837890625,5.053988439676165,5.16712966568768,0.21824260915871707
1776228625568689700,1.728689697265625,5.692327844268084,3.3177889159590004,-0.45309754961803556
1776228625588540700,1.748540771484375,4.468238469499349,2.5711411123394963,-1.784431201314181
1776228625608390700,1.768390625,5.051422388580441,2.4562024815171957,-2.4123778067074713
1776228625628241700,1.78824169921875,5.402573913809657,2.646106044691801,-1.315240156637877
1776228625648092400,1.808092529296875,1.4520716164469718,1.6884452543735504,-0.8031641291547567
1776228625667942400,1.8279423828125,-0.41213995467722414,0.17157704836726187,-0.4313319272074848
1776228625687793200,1.847793212890625,-3.008856822299957,1.3195248482197521,-0.1896452775646001
1776228625707644200,1.86764404296875,-3.7960470641881225,1.4256211241558194,-1.4146476024597883
1776228625727494100,1.887494140625,-2.2522896822124716,0.5337210922539234,-2.0278392679221926
1776228625747345200,1.90734521484375,0.16898878543972967,0.02459814242273569,-1.2282269129648804
1776228625767196200,1.927196044921875,1.022280854266882,-0.1736193678498268,0.007203647768497467
1776228625787046100,1.947046142578125,0.7894862438708543,-0.44091655182838435,0.7016950015626847
1776228625806897200,1.966897216796875,0.8534364457339048,-0.9493220010399818,0.31517296080999074
1776228625826748200,1.986748046875,0.9934580798864364,-0.817922649282217,-0.12456760604158043
1776228625846598100,2.00659814453125,0.9005641076117753,-0.5880781208634376,0.02266454401165247
1776228625866449200,2.02644921875,1.0095803626477717,-0.5148194079071283,0.3982457597615197
1776228625886300400,2.046300537109375,0.3858820623487234,-0.39208793125152586,0.5017057689098641
1776228625906150100,2.066150146484375,-0.2560901457875967,-0.3168266463011503,-0.20015907279439268
1776228625926001400,2.08600146484375,0.005139700976014137,-0.5185252766877413,-0.27112284321393815
1776228625945852200,2.10585205078125,0.22923078043460846,-0.28837796593010423,-0.2773211133321747
1776228625965702400,2.125702392578125,0.8433405836552381,-0.4915314713001251,-0.2523629784906283
1776228625985553200,2.14555322265625,0.8756243121445179,-0.4494084858417511,-0.07808532939516008
1776228626005404200,2.165404052734375,0.7076689614057541,-0.41690556164383885,-0.20084405938386915
1776228626025254100,2.185254150390625,-0.13025193528831006,-0.3467147118255496,-0.2744605728019029
1776228626045105200,2.205105224609375,-0.5906587850064039,-0.3656520520076155,0.028650851879641413
1776228626064956200,2.2249560546875,-0.8269955980539322,0.04450286633223295,0.3447711034771055
1776228626084806100,2.24480615234375,-0.7364601716041564,0.14630816707611083,-0.11940503564663231
1776228626104657200,2.2646572265625,0.7865934450387955,-0.30536943274140355,-0.41805513353776186
1776228626124508200,2.284508056640625,1.527296076518297,-0.2904109330624342,0.21470709197632967
