time,seconds_elapsed,z,y,x
1776228623902474800,0.062474853515625,0.3542023003101349,0.15902507305145264,0.3840771019458771
1776228623922325500,0.082325439453125,0.3786437213420868,0.16625049710273743,0.07053329050540924
1776228623942175700,0.10217578125,0.3262345790863037,-0.011876367032527924,-0.2100059688091278
1776228623962026800,0.12202685546875,0.2385617047548294,-0.20585596561431885,-0.29275837540626526
1776228623981877800,0.141877685546875,0.19731520116329193,-0.2861068546772003,-0.18636561930179596
1776228624001728800,0.161728759765625,0.21610486507415771,-0.22279445827007294,-0.011324027553200722
1776228624021578800,0.181578857421875,0.22175103425979614,0.023626498878002167,0.13574610650539398
1776228624041429800,0.2014296875,0.1811000108718872,0.3723298907279968,0.23008354008197784
1776228624061280800,0.22128076171875,0.008807872422039509,0.6136367917060852,0.31217095255851746
1776228624081130800,0.241130859375,-0.0987556055188179,0.7893103361129761,0.4533909261226654
1776228624100981800,0.260981689453125,-0.1302754431962967,0.8393436670303345,0.6325931549072266
1776228624120832800,0.280832763671875,-0.10916190594434738,0.7773181200027466,0.7190188765525818
1776228624140682800,0.300682861328125,-0.14906086027622223,0.7947828769683838,0.6397770643234253
1776228624160533800,0.32053369140625,-0.4442056715488434,0.5243228673934937,0.5499704480171204
1776228624180384500,0.340384521484375,-0.6306770443916321,0.08655060082674026,0.4116075336933136
1776228624200234800,0.36023486328125,-0.7152355909347534,0.0427866131067276,0.2507065236568451
1776228624220085500,0.38008544921875,-0.713542103767395,0.3518427312374115,0.08189939707517624
1776228624239936800,0.399936767578125,-0.6230283975601196,0.8075433969497681,-0.03267059475183487
1776228624259787800,0.419787841796875,-0.4239203929901123,1.766301155090332,-0.14782701432704926
1776228624279637800,0.4396376953125,-0.15557414293289185,2.492107629776001,-0.27256521582603455
1776228624299488800,0.45948876953125,-0.1430780589580536,2.304525852203369,-0.36015817523002625
1776228624319339800,0.47933984375,-0.37250006198883057,1.3684165477752686,-0.6004400253295898
1776228624339189800,0.499189697265625,-0.7106530666351318,0.6109805703163147,-0.8727924227714539
1776228624359040800,0.519040771484375,-0.9304040670394897,-0.12340901792049408,-1.0668953657150269
1776228624378891800,0.538891845703125,-1.0106933116912842,-0.9463015794754028,-1.0020785331726074
1776228624398741800,0.55874169921875,-0.919990062713623,-0.9768142104148865,-1.0106070041656494
1776228624418592800,0.5785927734375,-0.8199034333229065,-0.7755367159843445,-0.8203268647193909
1776228624438443800,0.59844384765625,-0.966235876083374,-0.24988147616386414,-0.3055817484855652
1776228624458293800,0.618293701171875,-1.3292303085327148,-0.15956541895866394,-0.010727745480835438
1776228624478144800,0.638144775390625,-1.4529181718826294,-0.1864231377840042,-0.3163433074951172
1776228624497995500,0.65799560546875,-1.525276780128479,0.03320882096886635,-0.5895093679428101
1776228624517845500,0.677845458984375,-1.5797916650772095,0.273128479719162,-0.6315537095069885
1776228624537696800,0.69769677734375,-1.3789349794387817,0.12314057350158691,-0.7986570000648499
1776228624557547800,0.7175478515625,-1.1544222831726074,-0.3606034517288208,-1.3473831415176392
1776228624577398800,0.737398681640625,-1.0920222997665405,-0.6628730297088623,-1.2126901149749756
1776228624597248800,0.757248779296875,-0.8351992964744568,-0.6705994009971619,-0.32463428378105164
1776228624617099800,0.777099853515625,-0.06848425418138504,-0.3109104633331299,-0.002126800362020731
1776228624636950800,0.79695068359375,0.590039074420929,-0.5275208353996277,-0.20218053460121155
1776228624656800800,0.81680078125,0.6708624958992004,-0.49819621443748474,0.05277293175458908
1776228624676651800,0.83665185546875,0.5334282517433167,-0.39596518874168396,0.4925457835197449
1776228624696502500,0.85650244140625,0.26055222749710083,-0.24965935945510864,0.15557974576950073
1776228624716352500,0.8763525390625,0.04282922297716141,-0.016706274822354317,-0.8990610837936401
1776228624736203500,0.89620361328125,0.44753435254096985,-1.0069979429244995,-0.888907253742218
1776228624756054500,0.916054443359375,1.082942008972168,-2.640939235687256,-0.24771472811698914
1776228624775904500,0.935904541015625,1.0774049758911133,-3.6406338214874268,-0.5887284874916077
1776228624795755300,0.95575537109375,0.7311831116676331,-2.4157662391662598,-1.1639068126678467
1776228624815606300,0.975606201171875,0.2678349018096924,0.6965785622596741,-0.43158042430877686
1776228624835456300,0.995456298828125,-0.0524701327085495,1.5582224130630493,1.021468997001648
1776228624855307500,1.0153076171875,-0.16689763963222504,0.7797304391860962,1.1420118808746338
1776228624875158500,1.035158447265625,-0.43019986152648926,0.7070367932319641,-0.26369956135749817
1776228624895008500,1.055008544921875,-0.4788789749145508,1.2566276788711548,-1.0323301553726196
1776228624914859500,1.074859619140625,-0.5717955827713013,0.9546406865119934,-0.6914380788803101
1776228624934710500,1.09471044921875,-0.9478597640991211,-0.2500380575656891,-0.1390039622783661
1776228624954560500,1.114560546875,-0.9579627513885498,-0.5971044301986694,0.45896437764167786
1776228624974411500,1.13441162109375,-0.6491066217422485,0.11749600619077682,1.107289433479309
1776228624994262500,1.154262451171875,-0.40103211998939514,0.7135258316993713,1.380201816558838
1776228625014112500,1.174112548828125,-0.07497943937778473,0.3267807960510254,1.3826067447662354
1776228625033963500,1.193963623046875,0.8974080681800842,-0.6470836997032166,1.2425925731658936
1776228625053814500,1.213814453125,1.360533595085144,-0.5316987633705139,0.42307934165000916
1776228625073665300,1.233665283203125,0.9888543486595154,0.8085146546363831,-0.9751233458518982
1776228625093515500,1.253515625,1.5441441535949707,2.0493063926696777,-1.1512947082519531
1776228625113366300,1.2733662109375,2.789120674133301,1.249955415725708,0.2890602946281433
1776228625133217500,1.293217529296875,3.3911185264587402,-0.03002474457025528,1.4977186918258667
1776228625153067300,1.3130673828125,3.0503389835357666,1.302541732788086,1.0672873258590698
1776228625172918500,1.33291845703125,2.779670476913452,2.523750066757202,0.5080522894859314
1776228625192769500,1.35276953125,3.3434317111968994,2.2150356769561768,0.9689554572105408
1776228625212619500,1.37261962890625,3.555131673812866,1.2392005920410156,1.4738743305206299
1776228625232470500,1.392470458984375,3.504913091659546,0.5414195656776428,0.9713783860206604
1776228625252321500,1.412321533203125,3.0371148586273193,1.0740594863891602,0.2668047845363617
1776228625272171500,1.432171630859375,2.301837205886841,1.3658798933029175,-0.011971973814070225
1776228625292022500,1.4520224609375,1.8096517324447632,0.5805094838142395,0.19720149040222168
1776228625311873500,1.47187353515625,1.4661474227905273,0.02700738236308098,0.48124971985816956
1776228625331723500,1.4917236328125,1.123906135559082,-0.11082105338573456,0.9656347632408142
1776228625351574500,1.511574462890625,0.6777907609939575,-0.65437912940979,1.6580207347869873
1776228625371425300,1.53142529296875,0.01540665328502655,-1.321229338645935,2.1725234985351562
1776228625391275500,1.551275634765625,0.08549012988805771,-1.1689276695251465,1.9202128648757935
1776228625411126300,1.571126220703125,0.5273676514625549,-1.1549242734909058,1.5557491779327393
1776228625430977500,1.5909775390625,0.8638154864311218,-1.4051828384399414,1.3404496908187866
1776228625450827300,1.6108271484375,0.7332441210746765,-1.3614518642425537,0.976563036441803
1776228625470678500,1.630678466796875,0.3254278898239136,-1.2457191944122314,0.49917998909950256
1776228625490529500,1.650529541015625,0.08593248575925827,-0.7510082125663757,0.20784294605255127
1776228625510379500,1.670379638671875,0.09670550376176834,-0.6485028862953186,0.12909246981143951
1776228625530230500,1.69023046875,0.2882368564605713,-0.434443861246109,-0.06970584392547607
1776228625550081500,1.71008154296875,0.5036605000495911,-0.08562462031841278,-0.4592379033565521
1776228625569931500,1.729931640625,0.4437404274940491,0.22035500407218933,-1.027744174003601
1776228625589782500,1.749782470703125,0.07758667320013046,-0.309631884098053,-1.6537375450134277
1776228625609633500,1.769633544921875,-0.28700461983680725,-1.91740882396698,-2.147082567214966
1776228625629484300,1.789484375,-0.2665448784828186,-2.361964225769043,-2.6376328468322754
1776228625649334500,1.80933447265625,-0.21288776397705078,-1.8867361545562744,-2.719142198562622
1776228625669185300,1.829185302734375,-0.03309909626841545,-1.0334057807922363,-2.259991407394409
1776228625689036000,1.8490361328125,-0.031809862703084946,-0.12257305532693863,-1.2945101261138916
1776228625708886300,1.86888623046875,-0.24087412655353546,0.09128836542367935,-0.14732660353183746
1776228625728737000,1.888737060546875,-0.540349006652832,-0.224919393658638,0.3988770842552185
1776228625748588300,1.90858837890625,-0.6313800811767578,-0.3080803453922272,0.32012102007865906
1776228625768438000,1.92843798828125,-0.4785849452018738,-0.11445121467113495,0.21382813155651093
1776228625788289300,1.948289306640625,-0.296887069940567,0.18085527420043945,0.12135199457406998
1776228625808140300,1.968140380859375,-0.3286191523075104,0.27703559398651123,0.038599323481321335
1776228625827990300,1.987990234375,-0.45688071846961975,-0.0746406838297844,0.01637471280992031
1776228625847841300,2.00784130859375,-0.4590458869934082,-0.4275191128253937,-0.06710926443338394
1776228625867692300,2.0276923828125,-0.2977885603904724,-0.569347620010376,-0.21789930760860443
1776228625887542300,2.047542236328125,-0.19713810086250305,-0.37527427077293396,-0.15186835825443268
1776228625907393300,2.067393310546875,-0.22247515618801117,-0.21395036578178406,-0.019659722223877907
1776228625927244300,2.087244384765625,-0.23057009279727936,-0.11380592733621597,0.08124718815088272
1776228625947094300,2.10709423828125,-0.23872575163841248,-0.24376685917377472,0.10353518277406693
1776228625966945300,2.1269453125,-0.2702610492706299,-0.2565292418003082,-0.025236114859580994
1776228625986796000,2.146796142578125,-0.206502303481102,-0.19114679098129272,-0.22272787988185883
1776228626006646300,2.166646240234375,-0.23509427905082703,-0.12579041719436646,-0.32271039485931396
1776228626026497000,2.1864970703125,-0.28355634212493896,-0.2003413587808609,-0.23901444673538208
1776228626046348300,2.206348388671875,-0.33063623309135437,-0.38658419251441956,-0.04092399775981903
1776228626066198000,2.226197998046875,-0.17190305888652802,-0.14060212671756744,0.38046371936798096
1776228626086049300,2.24604931640625,-0.1437414586544037,0.45834413170814514,0.32873180508613586
1776228626105900300,2.265900390625,-0.2370956391096115,0.31369587779045105,-0.05047222971916199
1776228626125751300,2.285751220703125,-0.08842892944812775,0.02948252484202385,-0.2657531201839447
