time,seconds_elapsed,z,y,x
1776228623921082600,0.08108251953125,0.38304194808006287,0.1743694245815277,0.09074746817350388
1776228623940933600,0.10093359375,0.33170145750045776,0.00712052546441555,-0.1970239281654358
1776228623960783600,0.12078369140625,0.24150928854942322,-0.1952562928199768,-0.29236236214637756
1776228623980634600,0.140634521484375,0.196696475148201,-0.28392887115478516,-0.19621141254901886
1776228624000485600,0.160485595703125,0.2136039137840271,-0.22954979538917542,-0.02215857058763504
1776228624020336600,0.180336669921875,0.22246955335140228,0.006094940938055515,0.1292775571346283
1776228624040186600,0.2001865234375,0.1879737675189972,0.35746681690216064,0.22597119212150574
1776228624060037600,0.22003759765625,0.018403444439172745,0.6047021746635437,0.304535835981369
1776228624079889000,0.239888916015625,-0.09421595931053162,0.7811797857284546,0.4450983703136444
1776228624099739000,0.25973876953125,-0.13270540535449982,0.8450253009796143,0.6233079433441162
1776228624119590000,0.27958984375,-0.11184204369783401,0.776837170124054,0.7201665043830872
1776228624139441000,0.29944091796875,-0.13719069957733154,0.8034794330596924,0.6470639109611511
1776228624159291000,0.319290771484375,-0.42592117190361023,0.5520480275154114,0.5593956708908081
1776228624179141600,0.3391416015625,-0.6324115991592407,0.10650090873241425,0.4202515482902527
1776228624198992600,0.35899267578125,-0.7106098532676697,0.03240004926919937,0.2596971392631531
1776228624218842600,0.378842529296875,-0.7196825742721558,0.33681508898735046,0.091151162981987
1776228624238693600,0.398693603515625,-0.63201904296875,0.7718061804771423,-0.024827903136610985
1776228624258544600,0.418544677734375,-0.444276362657547,1.7043874263763428,-0.13789620995521545
1776228624278395600,0.438395751953125,-0.167950838804245,2.469747543334961,-0.2669900953769684
1776228624298245600,0.45824560546875,-0.13945114612579346,2.3600850105285645,-0.3437691628932953
1776228624318096600,0.4780966796875,-0.35434818267822266,1.4203940629959106,-0.5862895250320435
1776228624337947600,0.49794775390625,-0.692813515663147,0.6645194292068481,-0.8548790812492371
1776228624357797600,0.517797607421875,-0.9224465489387512,-0.08333373814821243,-1.0616505146026611
1776228624377649000,0.53764892578125,-1.010332465171814,-0.9032134413719177,-1.006880760192871
1776228624397500000,0.5575,-0.9283934831619263,-0.9922112822532654,-1.01063871383667
1776228624417350000,0.577349853515625,-0.8230604529380798,-0.7934845685958862,-0.8392513990402222
1776228624437201000,0.597200927734375,-0.9451354742050171,-0.2732762396335602,-0.3406320810317993
1776228624457051600,0.6170517578125,-1.3104065656661987,-0.14900170266628265,-0.00904166791588068
1776228624476902000,0.63690185546875,-1.4508050680160522,-0.19228525459766388,-0.2918451130390167
1776228624496752600,0.656752685546875,-1.5169084072113037,0.020513294264674187,-0.582669198513031
1776228624516603600,0.676603759765625,-1.5879995822906494,0.2651352882385254,-0.6282432675361633
1776228624536453600,0.69645361328125,-1.396360993385315,0.15348544716835022,-0.7769774198532104
1776228624556304600,0.7163046875,-1.1668057441711426,-0.33524641394615173,-1.3157976865768433
1776228624576155600,0.73615576171875,-1.099881649017334,-0.6445086002349854,-1.2557990550994873
1776228624596006700,0.756006591796875,-0.8632881045341492,-0.6895477175712585,-0.3722882866859436
1776228624615856600,0.775856689453125,-0.1235615611076355,-0.30459102988243103,-0.0015813240315765142
1776228624635707600,0.795707763671875,0.5649745464324951,-0.5167993903160095,-0.19301992654800415
1776228624655559000,0.815558837890625,0.678325891494751,-0.5107649564743042,0.021172234788537025
1776228624675408600,0.83540869140625,0.5415219664573669,-0.39729753136634827,0.4786234200000763
1776228624695259600,0.855259765625,0.2888793349266052,-0.25390124320983887,0.2083381563425064
1776228624715110700,0.875110595703125,0.039499662816524506,-0.000987740932032466,-0.8534220457077026
1776228624734960600,0.894960693359375,0.4035405218601227,-0.9182014465332031,-0.918488085269928
1776228624754811600,0.914811767578125,1.054911494255066,-2.5396676063537598,-0.26607176661491394
1776228624774662400,0.934662353515625,1.0952935218811035,-3.6179494857788086,-0.5440467000007629
1776228624794512400,0.954512451171875,0.7605603933334351,-2.5755207538604736,-1.1580172777175903
1776228624814363400,0.97436328125,0.29099762439727783,0.5374872088432312,-0.5157550573348999
1776228624834214400,0.99421435546875,-0.035164471715688705,1.5880541801452637,0.9430577158927917
1776228624854064400,1.014064453125,-0.1594933569431305,0.8283671736717224,1.1985750198364258
1776228624873915400,1.033915283203125,-0.41587382555007935,0.6920408010482788,-0.17987273633480072
1776228624893766400,1.053766357421875,-0.48352745175361633,1.2202597856521606,-1.0171005725860596
1776228624913616400,1.073616455078125,-0.5492639541625977,1.0265182256698608,-0.7334567308425903
1776228624933467400,1.09346728515625,-0.9287211894989014,-0.18815204501152039,-0.16949310898780823
1776228624953318400,1.113318359375,-0.970463752746582,-0.611578643321991,0.4135746657848358
1776228624973168400,1.13316845703125,-0.6737796068191528,0.07565803080797195,1.0750181674957275
1776228624993019600,1.15301953125,-0.4124327600002289,0.6907230615615845,1.3739205598831177
1776228625012870700,1.17287060546875,-0.11056388914585114,0.3874843716621399,1.388623595237732
1776228625032721400,1.192721435546875,0.8227219581604004,-0.6092204451560974,1.2659695148468018
1776228625052571600,1.212571533203125,1.3758989572525024,-0.5717681646347046,0.5017902851104736
1776228625072422400,1.23242236328125,0.9888245463371277,0.7022188901901245,-0.9004058837890625
1776228625092273400,1.2522734375,1.4784542322158813,2.0153582096099854,-1.1987457275390625
1776228625112123400,1.272123291015625,2.7166764736175537,1.368377447128296,0.18137723207473755
1776228625131974400,1.291974365234375,3.382092237472534,-0.030940843746066093,1.4712185859680176
1776228625151825400,1.311825439453125,3.084770441055298,1.1925973892211914,1.1236851215362549
1776228625171675400,1.33167529296875,2.7614011764526367,2.4974312782287598,0.5104634165763855
1776228625191526400,1.3515263671875,3.313265562057495,2.2602005004882812,0.9235565066337585
1776228625211377400,1.37137744140625,3.5403342247009277,1.3279716968536377,1.4765658378601074
1776228625231227400,1.391227294921875,3.5212438106536865,0.5444297790527344,1.0143307447433472
1776228625251078400,1.411078369140625,3.078871965408325,1.0302625894546509,0.3049071431159973
1776228625270929700,1.4309296875,2.3419525623321533,1.3896057605743408,-0.015618117526173592
1776228625290779400,1.450779296875,1.8321799039840698,0.6382835507392883,0.17988255620002747
1776228625310630700,1.470630615234375,1.4897485971450806,0.03868323937058449,0.46521541476249695
1776228625330481400,1.4904814453125,1.1413929462432861,-0.08485094457864761,0.9245323538780212
1776228625350331600,1.51033154296875,0.7152866721153259,-0.6132559180259705,1.6164977550506592
1776228625370182400,1.530182373046875,0.04048900306224823,-1.2821407318115234,2.162785291671753
1776228625390033400,1.550033447265625,0.06254344433546066,-1.2029072046279907,1.9461767673492432
1776228625409883400,1.56988330078125,0.4997967779636383,-1.1287610530853271,1.5795700550079346
1776228625429734400,1.589734375,0.8546321392059326,-1.4014288187026978,1.355432391166687
1776228625449585400,1.60958544921875,0.7524908781051636,-1.3529279232025146,1.0070393085479736
1776228625469435400,1.629435302734375,0.3472936451435089,-1.2691041231155396,0.5254806876182556
1776228625489286400,1.649286376953125,0.09251718968153,-0.765403687953949,0.217656210064888
1776228625509137400,1.669137451171875,0.08933060616254807,-0.6494999527931213,0.1360856145620346
1776228625528987400,1.6889873046875,0.26942169666290283,-0.4529101848602295,-0.05279284343123436
1776228625548838400,1.70883837890625,0.4949502646923065,-0.10251462459564209,-0.42856478691101074
1776228625568689700,1.728689697265625,0.4546196758747101,0.21951985359191895,-0.9840441346168518
1776228625588540700,1.748540771484375,0.11084624379873276,-0.2371044009923935,-1.6225483417510986
1776228625608390700,1.768390625,-0.2798100411891937,-1.8132749795913696,-2.116459369659424
1776228625628241700,1.78824169921875,-0.2707728147506714,-2.396131992340088,-2.611010789871216
1776228625648092400,1.808092529296875,-0.22360941767692566,-1.910313367843628,-2.729112148284912
1776228625667942400,1.8279423828125,-0.04249857738614082,-1.1028211116790771,-2.3036844730377197
1776228625687793200,1.847793212890625,-0.02669471502304077,-0.16029350459575653,-1.3642417192459106
1776228625707644200,1.86764404296875,-0.21775341033935547,0.10909055918455124,-0.2104685753583908
1776228625727494100,1.887494140625,-0.5275211930274963,-0.21266190707683563,0.3924616575241089
1776228625747345200,1.90734521484375,-0.6335170269012451,-0.30887526273727417,0.33064740896224976
1776228625767196200,1.927196044921875,-0.49637484550476074,-0.13104720413684845,0.21995559334754944
1776228625787046100,1.947046142578125,-0.3038877248764038,0.16557568311691284,0.12995243072509766
1776228625806897200,1.966897216796875,-0.32243970036506653,0.2909375727176666,0.03965836018323898
1776228625826748200,1.986748046875,-0.45595335960388184,-0.04929481819272041,0.01975831389427185
1776228625846598100,2.00659814453125,-0.46528565883636475,-0.40876296162605286,-0.05916746333241463
1776228625866449200,2.02644921875,-0.31222712993621826,-0.5699446797370911,-0.21222542226314545
1776228625886300400,2.046300537109375,-0.20013222098350525,-0.3867602050304413,-0.16446158289909363
1776228625906150100,2.066150146484375,-0.22207129001617432,-0.2211483269929886,-0.024849819019436836
1776228625926001400,2.08600146484375,-0.22904153168201447,-0.10981568694114685,0.07100164890289307
1776228625945852200,2.10585205078125,-0.23487482964992523,-0.23278608918190002,0.10825271904468536
1776228625965702400,2.125702392578125,-0.2748268246650696,-0.2594616115093231,-0.01675693318247795
1776228625985553200,2.14555322265625,-0.20915533602237701,-0.18949133157730103,-0.210728719830513
1776228626005404200,2.165404052734375,-0.2346055805683136,-0.12863144278526306,-0.32085204124450684
1776228626025254100,2.185254150390625,-0.28246060013771057,-0.18241451680660248,-0.24497130513191223
1776228626045105200,2.205105224609375,-0.33041098713874817,-0.373855322599411,-0.06218379735946655
1776228626064956200,2.2249560546875,-0.18462538719177246,-0.1739986687898636,0.36048081517219543
1776228626084806100,2.24480615234375,-0.1391538381576538,0.440714031457901,0.34800732135772705
1776228626104657200,2.2646572265625,-0.23833587765693665,0.3384726345539093,-0.022141529247164726
1776228626124508200,2.284508056640625,-0.09819938242435455,0.03684459254145622,-0.2625427544116974
