time,seconds_elapsed,z,y,x
1776232774673214700,0.079214599609375,-0.823150634765625,-0.2707977294921875,-0.523223876953125
1776232774693069800,0.09906982421875,-0.838958740234375,-0.2667083740234375,-0.54217529296875
1776232774712924700,0.118924560546875,-0.8160247802734375,-0.25994873046875,-0.5492706298828125
1776232774732780800,0.13878076171875,-0.7962799072265625,-0.227691650390625,-0.5495758056640625
1776232774752635600,0.1586357421875,-0.7596435546875,-0.2269134521484375,-0.542938232421875
1776232774772490800,0.17849072265625,-0.7848358154296875,-0.251312255859375,-0.561737060546875
1776232774792345900,0.198345947265625,-0.7781219482421875,-0.2552947998046875,-0.557281494140625
1776232774812201700,0.21820166015625,-0.7781219482421875,-0.2577056884765625,-0.575347900390625
1776232774832056800,0.238056884765625,-0.797119140625,-0.206024169921875,-0.557098388671875
1776232774851911700,0.25791162109375,-0.7508544921875,-0.248199462890625,-0.565338134765625
1776232774871766500,0.2777666015625,-0.7369842529296875,-0.2349700927734375,-0.579864501953125
1776232774891621600,0.29762158203125,-0.7349395751953125,-0.2188262939453125,-0.605224609375
1776232774911477500,0.3174775390625,-0.79833984375,-0.211578369140625,-0.57659912109375
1776232774931332600,0.33733251953125,-0.7468109130859375,-0.2202911376953125,-0.5696563720703125
1776232774951187700,0.357187744140625,-0.739898681640625,-0.2022705078125,-0.5749969482421875
1776232774971042600,0.37704248046875,-0.76947021484375,-0.2190704345703125,-0.66845703125
1776232774990898700,0.396898681640625,-0.7569427490234375,-0.1957244873046875,-0.642730712890625
1776232775010753500,0.41675341796875,-0.771209716796875,-0.1788787841796875,-0.6368408203125
1776232775030608600,0.436608642578125,-0.804901123046875,-0.1791534423828125,-0.613525390625
1776232775050463700,0.456463623046875,-0.7675018310546875,-0.154022216796875,-0.5930023193359375
1776232775070319600,0.476319580078125,-0.8175506591796875,-0.1289215087890625,-0.613800048828125
1776232775090174700,0.4961748046875,-0.7912445068359375,-0.14068603515625,-0.621246337890625
1776232775110029800,0.51602978515625,-0.756439208984375,-0.1420745849609375,-0.610809326171875
1776232775129884700,0.535884765625,-0.77130126953125,-0.13641357421875,-0.599853515625
1776232775149739800,0.55573974609375,-0.7969512939453125,-0.1226959228515625,-0.5872039794921875
1776232775169596200,0.57559619140625,-0.8400115966796875,-0.144439697265625,-0.578643798828125
1776232775189451300,0.595451171875,-0.837127685546875,-0.138336181640625,-0.515899658203125
1776232775209306400,0.615306396484375,-0.7984771728515625,-0.157958984375,-0.52667236328125
1776232775229161000,0.635160888671875,-0.8282470703125,-0.154754638671875,-0.556427001953125
1776232775249017300,0.655017333984375,-0.8510894775390625,-0.1644134521484375,-0.5282135009765625
1776232775268872000,0.674871826171875,-0.8217926025390625,-0.1739044189453125,-0.5204315185546875
1776232775288727000,0.69472705078125,-0.82275390625,-0.1743927001953125,-0.5633697509765625
1776232775308582100,0.71458203125,-0.8363494873046875,-0.1634368896484375,-0.5631256103515625
1776232775328437000,0.73443701171875,-0.84637451171875,-0.151031494140625,-0.5308990478515625
1776232775348293000,0.754293212890625,-0.845855712890625,-0.14276123046875,-0.500030517578125
1776232775368148000,0.77414794921875,-0.8216552734375,-0.13543701171875,-0.4922332763671875
1776232775388003000,0.794003173828125,-0.831298828125,-0.14410400390625,-0.5512847900390625
1776232775407858200,0.813858154296875,-0.8473968505859375,-0.1439666748046875,-0.567840576171875
1776232775427714000,0.833714111328125,-0.79266357421875,-0.14703369140625,-0.55419921875
1776232775447569200,0.853569091796875,-0.761688232421875,-0.1380767822265625,-0.5367584228515625
1776232775467424300,0.87342431640625,-0.776458740234375,-0.155670166015625,-0.46728515625
1776232775487279000,0.893279052734375,-0.79608154296875,-0.1511688232421875,-0.413848876953125
1776232775507134200,0.91313427734375,-0.8311309814453125,-0.1319122314453125,-0.484619140625
1776232775526990000,0.932989990234375,-0.818389892578125,-0.143707275390625,-0.570892333984375
1776232775546845200,0.95284521484375,-0.7691192626953125,-0.13232421875,-0.553314208984375
1776232775566700300,0.9727001953125,-0.8100738525390625,-0.1445465087890625,-0.537841796875
1776232775586555100,0.99255517578125,-0.8130950927734375,-0.1344451904296875,-0.5346832275390625
1776232775606411300,1.012411376953125,-0.8473052978515625,-0.119873046875,-0.5045928955078125
1776232775626266400,1.032266357421875,-0.924591064453125,-0.1212005615234375,-0.4540557861328125
1776232775646121000,1.052120849609375,-0.9599151611328125,-0.1321563720703125,-0.433990478515625
1776232775665976000,1.07197607421875,-0.9280548095703125,-0.13916015625,-0.4506072998046875
1776232775685831200,1.0918310546875,-0.87164306640625,-0.12744140625,-0.449554443359375
1776232775705687000,1.11168701171875,-0.874542236328125,-0.1233978271484375,-0.4341583251953125
1776232775725542100,1.131542236328125,-0.896392822265625,-0.1173095703125,-0.4207916259765625
1776232775745397000,1.15139697265625,-0.926910400390625,-0.1127471923828125,-0.408477783203125
1776232775765252000,1.171252197265625,-0.8946533203125,-0.082916259765625,-0.419219970703125
1776232775785107200,1.191107177734375,-0.8502960205078125,-0.086639404296875,-0.4655303955078125
1776232775804963000,1.210963134765625,-0.840087890625,-0.0848236083984375,-0.4706573486328125
1776232775824818200,1.230818115234375,-0.8710784912109375,-0.0691680908203125,-0.4361724853515625
1776232775844673300,1.25067333984375,-0.85113525390625,-0.0514984130859375,-0.4101409912109375
1776232775864528100,1.270528076171875,-0.8484039306640625,-0.03118896484375,-0.4060821533203125
1776232775884384300,1.29038427734375,-0.805999755859375,-0.000457763671875,-0.3936767578125
1776232775904239000,1.310239013671875,-0.7756805419921875,0.02557373046875,-0.347686767578125
1776232775924094200,1.33009423828125,-0.73687744140625,0.0268707275390625,-0.308197021484375
1776232775943949300,1.34994921875,-0.736785888671875,0.0795745849609375,-0.32562255859375
1776232775963804200,1.36980419921875,-0.53961181640625,0.137847900390625,-0.2422332763671875
1776232775983660300,1.389660400390625,-0.2476654052734375,0.0803985595703125,-0.0572052001953125
1776232776003515100,1.40951513671875,-0.153839111328125,0.0416412353515625,-0.02349853515625
1776232776023370000,1.429369873046875,-0.0191497802734375,0.0372467041015625,-0.00146484375
1776232776043225000,1.44922509765625,-0.004180908203125,0.033233642578125,-0.004180908203125
1776232776063080200,1.469080078125,-0.0066680908203125,0.033447265625,-0.00250244140625
1776232776082936000,1.48893603515625,-0.008697509765625,0.0340423583984375,0.0001373291015625
1776232776102791200,1.508791259765625,-0.0134124755859375,0.0345306396484375,-0.0014495849609375
1776232776122646000,1.52864599609375,-0.01519775390625,0.0350189208984375,0.0013427734375
1776232776142501000,1.548501220703125,-0.017730712890625,0.034271240234375,-0.001983642578125
1776232776162355000,1.56835498046875,-0.0211029052734375,0.0353851318359375,-0.00286865234375
1776232776182210800,1.5882109375,-0.02252197265625,0.0341644287109375,-0.0007171630859375
1776232776202066000,1.60806591796875,-0.02459716796875,0.0351104736328125,0.0010223388671875
1776232776221921000,1.627921142578125,-0.0277099609375,0.0363616943359375,-0.0001983642578125
1776232776241775900,1.64777587890625,-0.026824951171875,0.0336151123046875,-0.001312255859375
1776232776261632000,1.667632080078125,-0.031280517578125,0.0345916748046875,-0.0020751953125
1776232776281487000,1.687487060546875,-0.0329437255859375,0.0332489013671875,-0.0013275146484375
1776232776301342000,1.707342041015625,-0.031219482421875,0.033477783203125,-0.001068115234375
1776232776321197000,1.727197021484375,-0.0319976806640625,0.0342254638671875,-0.0001373291015625
1776232776341052200,1.74705224609375,-0.0312652587890625,0.032623291015625,-0.001190185546875
1776232776360908000,1.766907958984375,-0.029541015625,0.0332183837890625,-0.0006561279296875
1776232776380763100,1.78676318359375,-2.2819976806640625,2.0526275634765625,1.2447052001953125
1776232776400618000,1.806617919921875,-4.865631103515625,15.257797241210938,5.623443603515625
1776232776420473000,1.82647314453125,-2.5188751220703125,6.59130859375,2.3516998291015625
1776232776440328200,1.846328125,0.330322265625,-2.3496246337890625,-0.6638946533203125
1776232776460184000,1.86618408203125,0.0569610595703125,-2.3398895263671875,-0.3194427490234375
1776232776480039200,1.8860390625,-0.1316375732421875,-0.9388580322265625,-0.28240966796875
1776232776499894000,1.90589404296875,-0.1878509521484375,-0.08551025390625,-0.0310821533203125
1776232776519748900,1.925748779296875,-0.1591033935546875,0.2337799072265625,0.1767578125
1776232776539604000,1.94560400390625,-0.2799530029296875,0.4414520263671875,0.532073974609375
1776232776559459800,1.9654599609375,-0.461944580078125,0.821502685546875,0.9147796630859375
1776232776579315000,1.98531494140625,-0.740325927734375,1.1736907958984375,1.0226287841796875
1776232776599170000,2.005170166015625,-0.789093017578125,1.1518402099609375,0.946929931640625
1776232776619025000,2.02502490234375,-0.7172698974609375,0.583251953125,0.567596435546875
1776232776638880000,2.0448798828125,-0.643798828125,-0.014007568359375,0.4421844482421875
1776232776658735900,2.06473583984375,-0.73101806640625,-0.324951171875,0.8015289306640625
1776232776678591000,2.084591064453125,-0.87353515625,-0.2994842529296875,0.7117156982421875
1776232776698446000,2.104446044921875,-0.721221923828125,0.1069488525390625,0.7010345458984375
1776232776718301200,2.12430126953125,-0.591796875,0.32696533203125,0.6538848876953125
1776232776738156000,2.144156005859375,-0.6561737060546875,0.32672119140625,0.6689605712890625
1776232776758012200,2.16401220703125,-0.6736297607421875,0.1636505126953125,0.6792449951171875
1776232776777867000,2.183866943359375,-0.709320068359375,0.1805419921875,0.6969451904296875
1776232776797722000,2.20372216796875,-0.7069244384765625,0.21173095703125,0.6959228515625
1776232776817577200,2.2235771484375,-0.669036865234375,0.194244384765625,0.6722869873046875
1776232776837431800,2.243431884765625,-0.690093994140625,0.1941986083984375,0.6745758056640625
1776232776857288200,2.2632880859375,-0.68975830078125,0.203277587890625,0.6890106201171875
1776232776877142800,2.283142822265625,-0.69073486328125,0.2011566162109375,0.6850433349609375
1776232776896998000,2.302997802734375,-0.6837310791015625,0.1978607177734375,0.685821533203125
1776232776916853000,2.32285302734375,-0.6907958984375,0.1978302001953125,0.6844024658203125
1776232776936708000,2.3427080078125,-0.6875,0.19952392578125,0.6849517822265625
1776232776956564000,2.36256396484375,-0.6869354248046875,0.19989013671875,0.6816558837890625
1776232776976419000,2.382419189453125,-0.6919403076171875,0.20947265625,0.69354248046875
1776232776996274000,2.40227392578125,-0.689727783203125,0.197540283203125,0.688629150390625
1776232777016129000,2.42212890625,-0.68389892578125,0.1944580078125,0.6788330078125
1776232777035984100,2.441984130859375,-0.68341064453125,0.1974334716796875,0.6766510009765625
1776232777055840000,2.461840087890625,-0.6919403076171875,0.203125,0.6878509521484375
1776232777075695000,2.481695068359375,-0.6908111572265625,0.20166015625,0.6899261474609375
1776232777095550000,2.501550048828125,-0.685272216796875,0.1967926025390625,0.6814117431640625
1776232777115405000,2.521405029296875,-0.6843109130859375,0.19427490234375,0.679595947265625
1776232777135260200,2.54126025390625,-0.6865234375,0.1971893310546875,0.6829833984375
1776232777155116000,2.561115966796875,-0.691192626953125,0.2052154541015625,0.68927001953125
1776232777174971100,2.58097119140625,-0.6925506591796875,0.2064361572265625,0.689117431640625
1776232777194826200,2.600826171875,-0.688873291015625,0.19903564453125,0.6876220703125
1776232777214680800,2.620680908203125,-0.68438720703125,0.197845458984375,0.6815643310546875
1776232777234536000,2.640535888671875,-0.686279296875,0.1993560791015625,0.68438720703125
1776232777254391800,2.660391845703125,-0.6721649169921875,0.22125244140625,0.6678924560546875
1776232777274247000,2.680246826171875,-0.6720428466796875,0.2201995849609375,0.67205810546875
1776232777294102000,2.70010205078125,-0.696990966796875,0.2027740478515625,0.6700286865234375
1776232777313956900,2.719956787109375,-0.7134246826171875,0.1499481201171875,0.6987152099609375
1776232777333812000,2.73981201171875,-0.695281982421875,0.1520843505859375,0.71624755859375
1776232777353668000,2.759668212890625,-0.6661834716796875,0.193511962890625,0.700225830078125
1776232777373523000,2.77952294921875,-0.6749420166015625,0.18438720703125,0.6816558837890625
1776232777393378000,2.7993779296875,-0.6960906982421875,0.172210693359375,0.6884918212890625
1776232777413233200,2.819233154296875,-0.6959686279296875,0.1858673095703125,0.691741943359375
1776232777433088000,2.839087890625,-0.685943603515625,0.185821533203125,0.69403076171875
1776232777452944100,2.858944091796875,-0.68145751953125,0.1628570556640625,0.6821746826171875
1776232777472799000,2.878799072265625,-0.685302734375,0.1753387451171875,0.686676025390625
1776232777492654000,2.898654052734375,-0.688507080078125,0.1793212890625,0.6862335205078125
1776232777512509200,2.91850927734375,-0.6802825927734375,0.1624603271484375,0.7022552490234375
1776232777532364000,2.938364013671875,-0.7130889892578125,0.16473388671875,0.7237548828125
1776232777552219000,2.958218994140625,-0.695770263671875,0.204437255859375,0.6895294189453125
1776232777572075000,2.978074951171875,-0.6697845458984375,0.192138671875,0.6937408447265625
1776232777591929900,2.997929931640625,-0.6898345947265625,0.1732330322265625,0.684783935546875
1776232777611785000,3.017784912109375,-0.6708221435546875,0.18560791015625,0.68865966796875
1776232777631640000,3.03764013671875,-0.680267333984375,0.1869049072265625,0.694610595703125
1776232777651495000,3.057494873046875,-0.7002105712890625,0.161346435546875,0.7154541015625
1776232777671351000,3.07735107421875,-0.6848907470703125,0.21484375,0.6788787841796875
1776232777691206000,3.097205810546875,-0.6844482421875,0.198944091796875,0.7090606689453125
1776232777711061000,3.11706103515625,-0.668243408203125,0.1901397705078125,0.693115234375
1776232777730916000,3.136916015625,-0.6356353759765625,0.1899566650390625,0.703033447265625
1776232777750771000,3.15677099609375,-0.6844940185546875,0.1862945556640625,0.7072601318359375
1776232777770627000,3.176626953125,-0.694915771484375,0.1912841796875,0.7118072509765625
1776232777790482000,3.19648193359375,-0.6807861328125,0.1948089599609375,0.703033447265625
1776232777810337000,3.2163369140625,-0.6736602783203125,0.1979522705078125,0.691986083984375
1776232777830192000,3.236192138671875,-0.626251220703125,0.193756103515625,0.6665802001953125
1776232777850047200,3.256047119140625,-0.7172088623046875,0.175323486328125,0.68975830078125
1776232777869903000,3.275903076171875,-0.710052490234375,0.2041015625,0.7210845947265625
1776232777889758200,3.29575830078125,-0.6625213623046875,0.2020263671875,0.7052001953125
