time,seconds_elapsed,z,y,x
1776223424367063600,0.0710634765625,-1.23431396484375,-0.390625,0.016082763671875
1776223424386914600,0.09091455078125,-1.1201171875,-0.33050537109375,-0.0102691650390625
1776223424406764500,0.1107646484375,-0.9944000244140625,-0.3846588134765625,-0.0578460693359375
1776223424426615600,0.130615478515625,-0.96844482421875,-0.44818115234375,-0.033050537109375
1776223424446465500,0.150465576171875,-0.942291259765625,-0.4860076904296875,-0.0491485595703125
1776223424466316500,0.170316650390625,-0.930450439453125,-0.311126708984375,0.0641632080078125
1776223424486166500,0.19016650390625,-0.8955535888671875,-0.25958251953125,0.119964599609375
1776223424506017500,0.210017578125,-0.8606109619140625,-0.2120513916015625,0.15374755859375
1776223424525867500,0.229867431640625,-0.737030029296875,-0.2700042724609375,0.40802001953125
1776223424545718500,0.249718505859375,-0.711212158203125,-0.410736083984375,0.47216796875
1776223424565568500,0.269568603515625,-0.71710205078125,-0.4845428466796875,0.412200927734375
1776223424585419800,0.289419677734375,-0.6898193359375,-0.4578399658203125,0.298828125
1776223424605269500,0.30926953125,-0.6744384765625,-0.442474365234375,0.140716552734375
1776223424625120500,0.32912060546875,-0.5525054931640625,-0.41094970703125,0.123870849609375
1776223424644970800,0.348970703125,-0.5799713134765625,-0.5008087158203125,-0.0554962158203125
1776223424664821500,0.368821533203125,-0.51995849609375,-0.5249481201171875,0.14215087890625
1776223424684671700,0.388671630859375,-0.61199951171875,-0.2889404296875,0.326995849609375
1776223424704522500,0.4085224609375,-0.62139892578125,-0.2415771484375,0.3750152587890625
1776223424724372700,0.428372802734375,-0.6828765869140625,-0.26177978515625,0.403472900390625
1776223424744223500,0.448223388671875,-0.773590087890625,-0.2619476318359375,0.499847412109375
1776223424764073700,0.46807373046875,-0.8359375,-0.237152099609375,0.591522216796875
1776223424783923700,0.487923828125,-0.90325927734375,-0.2286376953125,0.60003662109375
1776223424803774700,0.507774658203125,-1.1055908203125,-0.270111083984375,0.557037353515625
1776223424823624700,0.527624755859375,-1.2363128662109375,-0.244140625,0.5778961181640625
1776223424843475500,0.547475341796875,-1.2556304931640625,-0.242889404296875,0.570220947265625
1776223424863325700,0.56732568359375,-1.2053375244140625,-0.277191162109375,0.48931884765625
1776223424883176400,0.587176513671875,-1.166473388671875,-0.3128814697265625,0.399169921875
1776223424903026700,0.607026611328125,-1.1478118896484375,-0.3251495361328125,0.362091064453125
1776223424922877400,0.62687744140625,-1.1464385986328125,-0.2924041748046875,0.3624267578125
1776223424942727700,0.646727783203125,-1.16485595703125,-0.2742462158203125,0.37481689453125
1776223424962578400,0.666578369140625,-1.1232757568359375,-0.24664306640625,0.367706298828125
1776223424982428700,0.6864287109375,-1.0380859375,-0.2485504150390625,0.36151123046875
1776223425002278700,0.706278564453125,-0.93902587890625,-0.2611083984375,0.3392486572265625
1776223425022129400,0.72612939453125,-0.8428802490234375,-0.26318359375,0.31024169921875
1776223425041979600,0.745979736328125,-0.7901458740234375,-0.2679290771484375,0.3117523193359375
1776223425061830400,0.765830322265625,-0.7526092529296875,-0.279022216796875,0.317962646484375
1776223425081680600,0.7856806640625,-0.692352294921875,-0.2786712646484375,0.3317718505859375
1776223425101531400,0.805531494140625,-0.647552490234375,-0.294342041015625,0.3199005126953125
1776223425121381400,0.82538134765625,-0.6244049072265625,-0.30364990234375,0.3271331787109375
1776223425141232000,0.845232177734375,-0.6407470703125,-0.30108642578125,0.3058013916015625
1776223425161082400,0.865082275390625,-0.643707275390625,-0.30303955078125,0.2738494873046875
1776223425180932400,0.884932373046875,-0.592559814453125,-0.3157958984375,0.26397705078125
1776223425200783400,0.904783447265625,-0.5582275390625,-0.324066162109375,0.2744293212890625
1776223425220633300,0.92463330078125,-0.5425872802734375,-0.3262481689453125,0.2632598876953125
1776223425240484400,0.944484375,-0.6070709228515625,-0.3116912841796875,0.2767333984375
1776223425260334300,0.964334228515625,-0.693450927734375,-0.31475830078125,0.3057861328125
1776223425280185300,0.984185302734375,-0.7567901611328125,-0.2714385986328125,0.341583251953125
1776223425300035300,1.004035400390625,-0.8345947265625,-0.3352813720703125,0.2321319580078125
1776223425319886300,1.02388623046875,-0.8662109375,-0.258880615234375,0.2095184326171875
1776223425339736300,1.043736328125,-0.9052886962890625,-0.353973388671875,0.2381744384765625
1776223425359586300,1.06358642578125,-0.9666748046875,-0.4216156005859375,0.1714324951171875
1776223425379437600,1.0834375,-0.8774261474609375,-0.3790740966796875,0.1019439697265625
1776223425399287300,1.103287353515625,-1.003753662109375,-0.4488677978515625,-0.004364013671875
1776223425419138300,1.12313818359375,-1.105926513671875,-0.416229248046875,-0.0014801025390625
1776223425438988500,1.142988525390625,-1.2420501708984375,-0.446014404296875,-0.004669189453125
1776223425458839300,1.16283935546875,-1.38690185546875,-0.452789306640625,-0.006072998046875
1776223425478689500,1.182689453125,-1.4575347900390625,-0.4369964599609375,-0.0062255859375
1776223425498539500,1.20253955078125,-1.5284881591796875,-0.3864593505859375,0.008575439453125
1776223425518390500,1.222390625,-1.507110595703125,-0.3668670654296875,0.0074005126953125
1776223425538240500,1.242240478515625,-1.405609130859375,-0.3380126953125,0.002471923828125
1776223425558091500,1.262091552734375,-1.3322601318359375,-0.3309326171875,0.021392822265625
1776223425577941500,1.28194140625,-1.29669189453125,-0.324432373046875,0.0709381103515625
1776223425597792500,1.30179248046875,-1.301116943359375,-0.2996368408203125,0.1175384521484375
1776223425617642500,1.321642578125,-1.25494384765625,-0.289031982421875,0.17132568359375
1776223425637492500,1.341492431640625,-1.18609619140625,-0.2876434326171875,0.206085205078125
1776223425657343500,1.361343505859375,-1.1255340576171875,-0.2940826416015625,0.268890380859375
1776223425677193500,1.381193359375,-1.066986083984375,-0.2891387939453125,0.3111114501953125
1776223425697044500,1.40104443359375,-0.983795166015625,-0.2866363525390625,0.3023681640625
1776223425716894500,1.42089453125,-0.881500244140625,-0.2723846435546875,0.2937774658203125
1776223425736745500,1.440745361328125,-0.8155670166015625,-0.2585296630859375,0.2774658203125
1776223425756595500,1.460595458984375,-0.774200439453125,-0.2448272705078125,0.2828369140625
1776223425776445400,1.480445556640625,-0.7324676513671875,-0.2280731201171875,0.3015594482421875
1776223425796296400,1.50029638671875,-0.693359375,-0.228424072265625,0.3263397216796875
1776223425816146400,1.520146484375,-0.66064453125,-0.230743408203125,0.3560638427734375
1776223425835997400,1.53999755859375,-0.5909576416015625,-0.233917236328125,0.3802032470703125
1776223425855847400,1.559847412109375,-0.502655029296875,-0.23486328125,0.36309814453125
1776223425875697400,1.579697509765625,-0.3980712890625,-0.2405242919921875,0.31915283203125
1776223425895548400,1.59954833984375,-0.2840728759765625,-0.2176513671875,0.3155975341796875
1776223425915398400,1.6193984375,-0.1883697509765625,-0.2323760986328125,0.256195068359375
1776223425935249400,1.63924951171875,-0.1536712646484375,-0.127349853515625,0.2747955322265625
1776223425955099400,1.659099365234375,-0.1008758544921875,-0.111358642578125,0.2807464599609375
1776223425974949400,1.678949462890625,-0.0157928466796875,-0.0394134521484375,0.306671142578125
1776223425994800400,1.69880029296875,-0.006683349609375,0.0278167724609375,0.3539581298828125
1776223426014650400,1.718650390625,-0.042999267578125,0.139739990234375,0.4553985595703125
1776223426034501400,1.73850146484375,-0.085174560546875,0.2871246337890625,0.5256805419921875
1776223426054351400,1.758351318359375,-0.1025238037109375,0.4439544677734375,0.5172119140625
1776223426074201300,1.778201416015625,-0.308807373046875,0.6074371337890625,0.469512939453125
1776223426094053000,1.79805322265625,-0.548828125,0.7578887939453125,0.63238525390625
1776223426113902800,1.81790283203125,-0.5064697265625,0.9061126708984375,0.94268798828125
1776223426133754000,1.837754150390625,-0.401519775390625,1.0417938232421875,1.1114044189453125
1776223426153604000,1.85760400390625,-0.3310089111328125,1.18243408203125,1.26806640625
1776223426173455000,1.877455078125,-0.2890777587890625,1.27581787109375,1.478057861328125
1776223426193305000,1.89730517578125,-0.266021728515625,1.2958526611328125,1.658843994140625
1776223426213155000,1.917155029296875,-0.2462921142578125,1.218597412109375,1.724578857421875
1776223426233006000,1.937006103515625,-0.2181396484375,1.128082275390625,1.6840362548828125
1776223426252856000,1.95685595703125,-0.2691802978515625,1.1058807373046875,1.6302947998046875
1776223426272707000,1.97670703125,-0.3887786865234375,1.1203765869140625,1.5934295654296875
1776223426292557000,1.99655712890625,-0.50640869140625,1.1544036865234375,1.5496826171875
1776223426312407000,2.016406982421875,-0.5992889404296875,1.133819580078125,1.550445556640625
1776223426332258000,2.036258056640625,-0.6291961669921875,1.0305633544921875,1.6466217041015625
1776223426352108000,2.05610791015625,-0.6005401611328125,0.864593505859375,1.6876678466796875
1776223426371959000,2.075958984375,-0.55169677734375,0.72021484375,1.716552734375
1776223426391809000,2.09580908203125,-0.5392608642578125,0.590301513671875,1.7019500732421875
1776223426411659000,2.115658935546875,-0.48321533203125,0.4613800048828125,1.62109375
1776223426431510000,2.135510009765625,-0.3079071044921875,0.378875732421875,1.413238525390625
1776223426451360000,2.155360107421875,-0.15557861328125,0.32598876953125,1.23248291015625
1776223426471210000,2.1752099609375,-0.1259002685546875,0.245635986328125,1.1218414306640625
1776223426491061000,2.19506103515625,-0.193389892578125,0.1692962646484375,1.08392333984375
1776223426510911000,2.214910888671875,-0.2283782958984375,0.1037139892578125,1.0365753173828125
1776223426530762000,2.234761962890625,-0.256134033203125,0.137298583984375,1.022247314453125
1776223426550612000,2.254612060546875,-0.356292724609375,0.1929168701171875,1.0183868408203125
1776223426570462000,2.2744619140625,-0.5130462646484375,0.2429962158203125,1.0545501708984375
1776223426590313000,2.29431298828125,-0.6279144287109375,0.3256072998046875,1.1454010009765625
1776223426610163000,2.314162841796875,-0.725860595703125,0.490325927734375,1.277252197265625
1776223426630014000,2.334013916015625,-0.82550048828125,0.6144866943359375,1.36602783203125
1776223426649864000,2.353864013671875,-0.8515167236328125,0.6440887451171875,1.3343505859375
1776223426669714000,2.3737138671875,-0.7856292724609375,0.6443023681640625,1.2409210205078125
1776223426689565000,2.39356494140625,-0.6335601806640625,0.71392822265625,1.169464111328125
1776223426709415000,2.413414794921875,-0.5087890625,0.8108062744140625,1.1237030029296875
1776223426729265000,2.433264892578125,-0.4558258056640625,0.913299560546875,1.2005157470703125
1776223426749116000,2.453115966796875,-0.456634521484375,1.0318450927734375,1.368682861328125
1776223426768966000,2.4729658203125,-0.4486083984375,1.1178741455078125,1.418182373046875
1776223426788817000,2.49281689453125,-0.344696044921875,1.1289825439453125,1.40203857421875
1776223426808667000,2.5126669921875,-0.2232818603515625,1.1028594970703125,1.418609619140625
1776223426828516900,2.532516845703125,-0.3258209228515625,1.0903167724609375,1.3884124755859375
1776223426848367900,2.552367919921875,-0.468414306640625,1.083526611328125,1.2867584228515625
1776223426868217900,2.5722177734375,-0.4990997314453125,1.1052703857421875,1.1881561279296875
1776223426888068900,2.59206884765625,-0.505157470703125,1.1243133544921875,1.0741424560546875
1776223426907918800,2.6119189453125,-0.49072265625,1.144378662109375,0.98394775390625
1776223426927768800,2.631768798828125,-0.462799072265625,1.1381072998046875,0.870513916015625
1776223426947619800,2.651619873046875,-0.422027587890625,1.082183837890625,0.7565155029296875
1776223426967469800,2.6714697265625,-0.3508758544921875,1.0227203369140625,0.687469482421875
1776223426987320000,2.691320068359375,-0.317352294921875,0.961669921875,0.6292877197265625
1776223427007170800,2.7111708984375,-0.29315185546875,0.8820648193359375,0.549652099609375
1776223427027021000,2.73102099609375,-0.2583465576171875,0.8110809326171875,0.47369384765625
1776223427046871800,2.750871826171875,-0.1826171875,0.76171875,0.4042205810546875
1776223427066721800,2.7707216796875,-0.0996856689453125,0.74560546875,0.3593597412109375
1776223427086572000,2.790572021484375,-0.03759765625,0.7204742431640625,0.3175506591796875
1776223427106422800,2.8104228515625,0.0126800537109375,0.6570281982421875,0.2357025146484375
1776223427126272800,2.830272705078125,0.05718994140625,0.6016082763671875,0.16949462890625
1776223427146123800,2.850123779296875,0.10711669921875,0.6039886474609375,0.168212890625
1776223427165974000,2.86997412109375,0.1522216796875,0.6306304931640625,0.1964111328125
1776223427185823700,2.88982373046875,0.220489501953125,0.6592559814453125,0.2264556884765625
1776223427205675000,2.909675048828125,0.2127227783203125,0.638153076171875,0.2977294921875
1776223427225525000,2.92952490234375,0.07647705078125,0.6337127685546875,0.431793212890625
1776223427245375700,2.949375732421875,-0.018096923828125,0.7131805419921875,0.581268310546875
1776223427265226000,2.96922607421875,-0.1151275634765625,0.83270263671875,0.6950836181640625
1776223427285076000,2.989075927734375,-0.2052001953125,0.9420013427734375,0.788726806640625
1776223427304927000,3.008927001953125,-0.2545318603515625,1.0291595458984375,0.91241455078125
1776223427324777000,3.02877685546875,-0.2636871337890625,1.100433349609375,1.0269927978515625
1776223427344627000,3.048626953125,-0.21820068359375,1.1472320556640625,1.1016998291015625
1776223427364478000,3.06847802734375,-0.19866943359375,1.1775360107421875,1.12042236328125
1776223427384328000,3.088327880859375,-0.2711029052734375,1.2078399658203125,1.1721343994140625
1776223427404179000,3.108178955078125,-0.3456878662109375,1.2032470703125,1.242767333984375
1776223427424029000,3.12802880859375,-0.38189697265625,1.1345367431640625,1.309844970703125
1776223427443879000,3.14787890625,-0.346832275390625,1.05572509765625,1.363677978515625
1776223427463730000,3.16772998046875,-0.308349609375,1.0106353759765625,1.3710479736328125
1776223427483580000,3.187579833984375,-0.3160858154296875,0.971771240234375,1.3937530517578125
1776223427503431000,3.207430908203125,-0.359710693359375,0.9210968017578125,1.386962890625
1776223427523281000,3.227281005859375,-0.363983154296875,0.8686065673828125,1.373046875
1776223427543131000,3.247130859375,-0.3659210205078125,0.8162078857421875,1.34771728515625
1776223427562982000,3.26698193359375,-0.380340576171875,0.7313385009765625,1.3006744384765625
1776223427582831900,3.286831787109375,-0.29779052734375,0.635772705078125,1.3049774169921875
1776223427602683000,3.306682861328125,-0.1567840576171875,0.54400634765625,1.249725341796875
1776223427622532900,3.326532958984375,-0.0951690673828125,0.481689453125,1.137054443359375
1776223427642382800,3.3463828125,-0.338409423828125,0.4514007568359375,1.077972412109375
1776223427662233900,3.36623388671875,-0.675933837890625,0.42388916015625,1.2118682861328125
1776223427682083800,3.386083740234375,-0.8728179931640625,0.3776397705078125,1.38104248046875
1776223427701934800,3.405934814453125,-0.9336700439453125,0.395751953125,1.4692535400390625
1776223427721784800,3.425784912109375,-0.9106292724609375,0.5010986328125,1.4957733154296875
1776223427741634800,3.445634765625,-0.85943603515625,0.566741943359375,1.4488067626953125
1776223427761485800,3.46548583984375,-0.7994384765625,0.5089569091796875,1.284820556640625
1776223427781335800,3.485335693359375,-0.696197509765625,0.5068359375,1.1703338623046875
1776223427801186800,3.505186767578125,-0.5592498779296875,0.6305999755859375,1.1322479248046875
1776223427821036800,3.525036865234375,-0.45635986328125,0.8051300048828125,1.1125030517578125
1776223427840886800,3.54488671875,-0.3954925537109375,0.946258544921875,1.089141845703125
1776223427860737800,3.56473779296875,-0.3809967041015625,1.0470123291015625,1.0758209228515625
1776223427880587800,3.584587890625,-0.38201904296875,1.1082305908203125,1.099090576171875
1776223427900438800,3.604438720703125,-0.3947906494140625,1.1339263916015625,1.1125640869140625
1776223427920288800,3.624288818359375,-0.4399261474609375,1.1404266357421875,1.109100341796875
1776223427940138800,3.644138671875,-0.475738525390625,1.1386260986328125,1.0832977294921875
1776223427959989800,3.66398974609375,-0.4705810546875,1.1536102294921875,1.053070068359375
1776223427979839700,3.68383984375,-0.454498291015625,1.1820068359375,0.994781494140625
1776223427999690800,3.703690673828125,-0.432403564453125,1.229217529296875,0.957366943359375
1776223428019540700,3.723540771484375,-0.4268951416015625,1.274261474609375,0.93505859375
1776223428039391700,3.743391845703125,-0.40863037109375,1.2731475830078125,0.9185333251953125
1776223428059241700,3.76324169921875,-0.3722076416015625,1.2607269287109375,0.9231414794921875
1776223428079091700,3.783091796875,-0.3587646484375,1.22711181640625,0.9088592529296875
1776223428098942500,3.8029423828125,-0.345489501953125,1.1848602294921875,0.8740234375
1776223428118792400,3.82279248046875,-0.3369598388671875,1.1331329345703125,0.7982940673828125
1776223428138643500,3.8426435546875,-0.339874267578125,1.07354736328125,0.713958740234375
1776223428158493400,3.862493408203125,-0.336517333984375,1.067169189453125,0.6748199462890625
1776223428178344400,3.882344482421875,-0.3041534423828125,1.0660858154296875,0.6322479248046875
1776223428198194400,3.9021943359375,-0.1953277587890625,1.051055908203125,0.5094146728515625
1776223428218044400,3.92204443359375,-0.04388427734375,0.945281982421875,0.260223388671875
1776223428237895400,3.9418955078125,0.1940765380859375,0.871063232421875,0.068634033203125
1776223428257745400,3.961745361328125,0.3857421875,0.7823486328125,-0.0363311767578125
1776223428277596400,3.981596435546875,0.4109039306640625,0.7223968505859375,0.058746337890625
1776223428297446400,4.0014462890625,0.314727783203125,0.64398193359375,0.167724609375
1776223428317297400,4.02129736328125,0.215911865234375,0.5481414794921875,0.193206787109375
1776223428337147400,4.0411474609375,0.0905914306640625,0.5325469970703125,0.2526092529296875
1776223428356997400,4.060997314453125,-0.0290679931640625,0.586029052734375,0.3302764892578125
1776223428376848400,4.080848388671875,-0.1234130859375,0.6897125244140625,0.410797119140625
1776223428396698400,4.100698486328125,-0.2196502685546875,0.7769622802734375,0.5186309814453125
1776223428416549400,4.12054931640625,-0.2582855224609375,0.8560943603515625,0.6617279052734375
1776223428436399400,4.1403994140625,-0.225616455078125,0.923492431640625,0.7850494384765625
1776223428456250400,4.16025048828125,-0.1627960205078125,0.99945068359375,0.881500244140625
1776223428476100400,4.180100341796875,-0.1661224365234375,1.0796661376953125,0.9659271240234375
1776223428495950300,4.199950439453125,-0.246673583984375,1.1319122314453125,1.086212158203125
1776223428515801300,4.21980126953125,-0.3896484375,1.134124755859375,1.3892669677734375
1776223428535651300,4.2396513671875,-0.4385528564453125,1.0303955078125,1.5165863037109375
1776223428555502300,4.25950244140625,-0.3397674560546875,0.9570465087890625,1.557220458984375
1776223428575352300,4.279352294921875,-0.2510528564453125,0.8700714111328125,1.5415496826171875
1776223428595203300,4.299203369140625,-0.281463623046875,0.7882537841796875,1.49639892578125
1776223428615053300,4.31905322265625,-0.3504791259765625,0.7292938232421875,1.491912841796875
1776223428634903600,4.338903564453125,-0.3119049072265625,0.637298583984375,1.457733154296875
1776223428654754300,4.35875439453125,-0.2173004150390625,0.5320281982421875,1.3173370361328125
1776223428674604300,4.378604248046875,-0.20391845703125,0.465423583984375,1.2205810546875
1776223428694455300,4.398455322265625,-0.2720947265625,0.423583984375,1.1969757080078125
1776223428714305300,4.41830517578125,-0.3489532470703125,0.36614990234375,1.1665496826171875
1776223428734155500,4.438155517578125,-0.367828369140625,0.3296661376953125,1.1385498046875
1776223428754006300,4.45800634765625,-0.3907318115234375,0.336212158203125,1.12261962890625
1776223428773856500,4.4778564453125,-0.483123779296875,0.312164306640625,1.1355743408203125
1776223428793707300,4.497707275390625,-0.5882110595703125,0.2964019775390625,1.2205657958984375
1776223428813557500,4.5175576171875,-0.685516357421875,0.3634490966796875,1.3488006591796875
1776223428833408300,4.537408203125,-0.7476806640625,0.4405975341796875,1.447052001953125
1776223428853258500,4.557258544921875,-0.804901123046875,0.429443359375,1.4924774169921875
1776223428873108500,4.5771083984375,-0.80218505859375,0.363250732421875,1.4407196044921875
1776223428892959200,4.596959228515625,-0.7066802978515625,0.3600311279296875,1.282440185546875
1776223428912809500,4.6168095703125,-0.56121826171875,0.4671173095703125,1.117919921875
1776223428932660200,4.63666015625,-0.4669189453125,0.56683349609375,1.0105438232421875
1776223428952510500,4.656510498046875,-0.444915771484375,0.661102294921875,0.974273681640625
1776223428972361200,4.676361328125,-0.4633026123046875,0.7186431884765625,0.9742279052734375
1776223428992211500,4.69621142578125,-0.4393463134765625,0.7972564697265625,1.084716796875
1776223429012061400,4.7160615234375,-0.3808135986328125,0.8263702392578125,1.1227874755859375
1776223429031912400,4.735912353515625,-0.3720245361328125,0.8545684814453125,1.13983154296875
1776223429051762400,4.755762451171875,-0.4174957275390625,0.84027099609375,1.115203857421875
1776223429071613200,4.77561328125,-0.4724884033203125,0.8488311767578125,1.1054229736328125
1776223429091463400,4.79546337890625,-0.501617431640625,0.860992431640625,1.1110992431640625
1776223429111315000,4.81531494140625,-0.4308319091796875,0.8995513916015625,1.100555419921875
1776223429131165000,4.8351650390625,-0.3724365234375,0.9334564208984375,1.078033447265625
1776223429151015000,4.855014892578125,-0.3515625,0.9556121826171875,1.0385284423828125
1776223429170866000,4.874865966796875,-0.377288818359375,0.958526611328125,1.013427734375
1776223429190716000,4.8947158203125,-0.3778076171875,0.955230712890625,1.010833740234375
1776223429210567000,4.91456689453125,-0.3375701904296875,0.9331512451171875,0.9729156494140625
1776223429230417000,4.9344169921875,-0.31427001953125,0.9003448486328125,0.9014739990234375
1776223429250267100,4.95426708984375,-0.3159332275390625,0.9018402099609375,0.85150146484375
1776223429270118000,4.974117919921875,-0.2686614990234375,0.9195709228515625,0.781524658203125
1776223429289968000,4.993968017578125,-0.1982879638671875,0.907958984375,0.64849853515625
1776223429309819000,5.01381884765625,-0.14776611328125,0.857452392578125,0.5020599365234375
1776223429329669000,5.033669189453125,-0.127166748046875,0.789703369140625,0.3787078857421875
1776223429349520000,5.053519775390625,-0.12420654296875,0.74176025390625,0.327362060546875
1776223429369369900,5.073369873046875,-0.1133270263671875,0.7549285888671875,0.3640289306640625
1776223429389220000,5.09322021484375,-0.047454833984375,0.776458740234375,0.3316192626953125
1776223429409070800,5.11307080078125,0.0539093017578125,0.7066497802734375,0.22705078125
1776223429428921000,5.132921142578125,0.1029205322265625,0.5916748046875,0.1884918212890625
1776223429448771800,5.152771728515625,0.0324249267578125,0.5338134765625,0.3240814208984375
1776223429468622000,5.1726220703125,-0.044036865234375,0.5315399169921875,0.4972381591796875
1776223429488472000,5.19247216796875,-0.0600738525390625,0.5783538818359375,0.6707305908203125
1776223429508323000,5.212322998046875,-0.0296478271484375,0.62255859375,0.78619384765625
1776223429528173000,5.232173095703125,0.0182342529296875,0.642547607421875,0.836822509765625
1776223429548024000,5.252024169921875,0.0530548095703125,0.659576416015625,0.875213623046875
1776223429567874000,5.2718740234375,-0.005401611328125,0.710418701171875,0.9808807373046875
1776223429587724000,5.29172412109375,0.0169525146484375,0.711181640625,1.037811279296875
1776223429607575000,5.311574951171875,0.053558349609375,0.6642913818359375,1.009765625
1776223429627425000,5.331425048828125,0.0554656982421875,0.6530303955078125,0.9675445556640625
1776223429647276000,5.351276123046875,-0.0496368408203125,0.6875457763671875,0.9877166748046875
1776223429667126000,5.3711259765625,-0.0893402099609375,0.6913604736328125,1.0336456298828125
1776223429686977000,5.39097705078125,-0.0935821533203125,0.692230224609375,1.1295166015625
1776223429706827000,5.410826904296875,-0.2420196533203125,0.68438720703125,1.245147705078125
1776223429726677000,5.430677001953125,-0.320770263671875,0.6146087646484375,1.28912353515625
1776223429746528000,5.450528076171875,-0.349761962890625,0.5692291259765625,1.383575439453125
1776223429766378000,5.4703779296875,-0.3043975830078125,0.4652862548828125,1.3687896728515625
1776223429786229000,5.49022900390625,-0.30120849609375,0.3699798583984375,1.374176025390625
1776223429806079000,5.510078857421875,-0.4057464599609375,0.2774200439453125,1.4112701416015625
1776223429825929000,5.529928955078125,-0.4242095947265625,0.2160186767578125,1.4131011962890625
1776223429845780000,5.549780029296875,-0.3476409912109375,0.1908416748046875,1.4029693603515625
1776223429865630000,5.5696298828125,-0.29425048828125,0.16998291015625,1.34820556640625
1776223429885481000,5.58948095703125,-0.296783447265625,0.1021881103515625,1.266204833984375
1776223429905331000,5.6093310546875,-0.3317718505859375,0.1161041259765625,1.2918548583984375
1776223429925181000,5.629180908203125,-0.488922119140625,0.0316925048828125,1.3164520263671875
1776223429945032000,5.649031982421875,-0.7339935302734375,-0.016571044921875,1.3214263916015625
1776223429964882000,5.6688818359375,-0.536163330078125,0.03057861328125,1.334930419921875
1776223429984732000,5.68873193359375,-0.4555206298828125,-0.0912017822265625,1.2232666015625
1776223430004583000,5.7085830078125,-0.4892578125,-0.0320281982421875,1.1107025146484375
1776223430024433000,5.728432861328125,-0.42315673828125,0.0900726318359375,1.0397491455078125
1776223430044284000,5.748283935546875,-0.39013671875,0.2135467529296875,1.0485992431640625
1776223430064134000,5.7681337890625,-0.4769134521484375,0.303802490234375,1.0917205810546875
1776223430083984000,5.78798388671875,-0.51422119140625,0.3590087890625,1.1150360107421875
1776223430103835100,5.807835205078125,-0.53741455078125,0.3745880126953125,1.1055450439453125
1776223430123685000,5.82768505859375,-0.5526275634765625,0.3619537353515625,1.0810546875
1776223430143536000,5.8475361328125,-0.56854248046875,0.3653564453125,1.078643798828125
1776223430163386000,5.86738623046875,-0.5730438232421875,0.3985595703125,1.106536865234375
1776223430183236000,5.887236083984375,-0.542022705078125,0.44097900390625,1.154266357421875
1776223430203087000,5.907087158203125,-0.4800872802734375,0.4609832763671875,1.120513916015625
1776223430222937000,5.92693701171875,-0.3978271484375,0.476226806640625,1.05120849609375
1776223430242787000,5.946787109375,-0.3174591064453125,0.4991302490234375,1.00250244140625
1776223430262638000,5.96663818359375,-0.28326416015625,0.5229644775390625,1.007354736328125
1776223430282488000,5.986488037109375,-0.2863922119140625,0.541351318359375,1.042449951171875
1776223430302339000,6.006339111328125,-0.29644775390625,0.5534210205078125,1.0749053955078125
1776223430322189000,6.02618896484375,-0.31878662109375,0.569976806640625,1.0995025634765625
1776223430342039000,6.0460390625,-0.3597564697265625,0.5926971435546875,1.080657958984375
1776223430361890000,6.06589013671875,-0.366546630859375,0.65399169921875,1.071258544921875
1776223430381740000,6.085739990234375,-0.3533172607421875,0.7584228515625,1.1296234130859375
1776223430401590000,6.105590087890625,-0.340545654296875,0.789215087890625,1.0648651123046875
1776223430421441000,6.12544091796875,-0.3205108642578125,0.7289276123046875,0.8908538818359375
1776223430441291000,6.145291015625,-0.2413482666015625,0.68505859375,0.71624755859375
1776223430461142000,6.16514208984375,-0.134735107421875,0.6590576171875,0.579193115234375
1776223430480992000,6.184991943359375,-0.05340576171875,0.642333984375,0.4735107421875
1776223430500842000,6.204842041015625,0.00030517578125,0.5934906005859375,0.35552978515625
1776223430520693000,6.22469287109375,0.020111083984375,0.499542236328125,0.2610321044921875
1776223430540543000,6.24454296875,0.011322021484375,0.421905517578125,0.2537078857421875
1776223430560393200,6.264393310546875,-0.0075225830078125,0.4085540771484375,0.370391845703125
1776223430580244000,6.284243896484375,-0.033966064453125,0.43695068359375,0.5169219970703125
1776223430600094000,6.304093994140625,-0.0650177001953125,0.47802734375,0.633087158203125
1776223430619945000,6.323945068359375,-0.083038330078125,0.5362091064453125,0.750030517578125
1776223430639795000,6.343794921875,-0.0751953125,0.589080810546875,0.8509521484375
1776223430659645200,6.363645263671875,-0.023956298828125,0.5970611572265625,0.9093017578125
1776223430679496000,6.383495849609375,0.0390472412109375,0.5946197509765625,0.9133453369140625
1776223430699346200,6.40334619140625,0.041534423828125,0.5922088623046875,0.8829193115234375
1776223430719196200,6.423196044921875,-0.0077362060546875,0.6057891845703125,0.879486083984375
1776223430739047200,6.443047119140625,-0.051544189453125,0.62701416015625,0.911224365234375
1776223430758897200,6.462897216796875,-0.0694732666015625,0.6358795166015625,0.9515380859375
1776223430778748200,6.482748046875,-0.08251953125,0.6586761474609375,1.006378173828125
1776223430798598100,6.50259814453125,-0.105194091796875,0.680572509765625,1.0707550048828125
1776223430818448100,6.5224482421875,-0.157867431640625,0.7211456298828125,1.15374755859375
1776223430838299100,6.542299072265625,-0.2322235107421875,0.7259521484375,1.23138427734375
1776223430858149000,6.562149169921875,-0.369598388671875,0.678619384765625,1.2723388671875
1776223430877999000,6.5819990234375,-0.4714508056640625,0.602081298828125,1.301513671875
1776223430897850000,6.60185009765625,-0.4446868896484375,0.5388336181640625,1.3370361328125
1776223430917700000,6.6217001953125,-0.3600616455078125,0.481689453125,1.33074951171875
1776223430937550000,6.641550048828125,-0.2795562744140625,0.4871673583984375,1.384124755859375
1776223430957401000,6.661401123046875,-0.1992645263671875,0.493255615234375,1.47503662109375
1776223430977251000,6.6812509765625,-0.1387481689453125,0.4566497802734375,1.438262939453125
1776223430997101000,6.70110107421875,-0.1239776611328125,0.4272003173828125,1.32745361328125
1776223431016952000,6.7209521484375,-0.20037841796875,0.3978271484375,1.2333984375
1776223431036802000,6.740802001953125,-0.295623779296875,0.3826446533203125,1.2341766357421875
1776223431056652000,6.760652099609375,-0.354339599609375,0.3769073486328125,1.270782470703125
1776223431076503000,6.7805029296875,-0.38421630859375,0.3722076416015625,1.2929840087890625
1776223431096353000,6.80035302734375,-0.4121856689453125,0.3687744140625,1.2603607177734375
1776223431116202200,6.8202021484375,-0.3964385986328125,0.3826141357421875,1.1873321533203125
1776223431136053000,6.840052978515625,-0.3497314453125,0.439910888671875,1.089508056640625
1776223431155903000,6.859903076171875,-0.3200225830078125,0.530548095703125,1.0448760986328125
1776223431175753200,6.879753173828125,-0.3081817626953125,0.6376953125,1.052886962890625
1776223431195604000,6.89960400390625,-0.2799224853515625,0.701812744140625,1.0821533203125
1776223431215454200,6.9194541015625,-0.25262451171875,0.7488250732421875,1.1139984130859375
1776223431235304200,6.93930419921875,-0.24725341796875,0.8127593994140625,1.164642333984375
1776223431255155200,6.9591552734375,-0.2830352783203125,0.863067626953125,1.1538238525390625
1776223431275005200,6.979005126953125,-0.3101654052734375,0.8986053466796875,1.111602783203125
1776223431294856200,6.998856201171875,-0.304046630859375,0.919921875,1.067138671875
1776223431314706200,7.0187060546875,-0.2806243896484375,0.9190673828125,1.046905517578125
1776223431334556200,7.03855615234375,-0.24078369140625,0.9109954833984375,1.0260467529296875
1776223431354407200,7.0584072265625,-0.21142578125,0.9188690185546875,0.9964752197265625
1776223431374257200,7.078257080078125,-0.1821441650390625,0.9411468505859375,0.9641571044921875
1776223431394107100,7.098107177734375,-0.170501708984375,0.9722900390625,0.9473114013671875
1776223431413958100,7.117958251953125,-0.170623779296875,0.969818115234375,0.936126708984375
1776223431433808100,7.13780810546875,-0.1542816162109375,0.9226531982421875,0.9049224853515625
1776223431453658000,7.157658203125,-0.14520263671875,0.888214111328125,0.8714599609375
1776223431473509000,7.177509033203125,-0.1681365966796875,0.8575439453125,0.824951171875
1776223431493359000,7.197359130859375,-0.178192138671875,0.8645782470703125,0.8094940185546875
1776223431513209000,7.217208984375,-0.150238037109375,0.8772735595703125,0.7628021240234375
1776223431533060000,7.23706005859375,-0.125701904296875,0.83251953125,0.6451263427734375
1776223431552910000,7.25691015625,-0.099212646484375,0.759246826171875,0.5297698974609375
1776223431572760000,7.276760009765625,-0.076507568359375,0.69671630859375,0.440643310546875
1776223431592611000,7.296611083984375,-0.0426177978515625,0.6775665283203125,0.4027557373046875
1776223431612461000,7.3164609375,0.0060272216796875,0.679962158203125,0.372161865234375
1776223431632311000,7.33631103515625,0.0522613525390625,0.6398162841796875,0.3017730712890625
1776223431652161000,7.3561611328125,0.058929443359375,0.569976806640625,0.23052978515625
1776223431672012000,7.376011962890625,0.021636962890625,0.5091094970703125,0.234527587890625
1776223431691862000,7.395862060546875,-0.051025390625,0.512786865234375,0.3686981201171875
1776223431711712000,7.4157119140625,-0.0947418212890625,0.5653228759765625,0.5413360595703125
1776223431731563000,7.43556298828125,-0.1042938232421875,0.6179656982421875,0.6733245849609375
1776223431751413000,7.4554130859375,-0.083892822265625,0.66937255859375,0.73675537109375
1776223431771263200,7.47526318359375,-0.05194091796875,0.72735595703125,0.7713775634765625
1776223431791114000,7.495114013671875,-0.0359039306640625,0.775848388671875,0.8044891357421875
1776223431810964200,7.514964111328125,-0.0531005859375,0.802398681640625,0.837799072265625
1776223431830814200,7.534814208984375,-0.0817718505859375,0.8156585693359375,0.8631591796875
1776223431850665200,7.554665283203125,-0.1069793701171875,0.8032684326171875,0.8704681396484375
1776223431870515200,7.57451513671875,-0.1204071044921875,0.8109588623046875,0.9029693603515625
1776223431890365200,7.594365234375,-0.131439208984375,0.8265228271484375,0.9428253173828125
1776223431910216200,7.61421630859375,-0.14703369140625,0.8549041748046875,0.98516845703125
1776223431930066200,7.634066162109375,-0.1835479736328125,0.8808135986328125,1.037872314453125
1776223431949916200,7.653916259765625,-0.212310791015625,0.8813934326171875,1.0772247314453125
1776223431969767200,7.67376708984375,-0.2631378173828125,0.874786376953125,1.1259002685546875
1776223431989617200,7.6936171875,-0.366058349609375,0.85162353515625,1.1800384521484375
1776223432009467100,7.713467041015625,-0.4437408447265625,0.7754058837890625,1.2327423095703125
1776223432029318100,7.733318115234375,-0.4009552001953125,0.6955718994140625,1.3467864990234375
1776223432049168100,7.753168212890625,-0.3308563232421875,0.5880126953125,1.4193878173828125
1776223432069018000,7.77301806640625,-0.280181884765625,0.5162811279296875,1.4689178466796875
1776223432088868000,7.7928681640625,-0.1923828125,0.506683349609375,1.4660186767578125
1776223432108719900,7.812719970703125,-0.0616302490234375,0.5074920654296875,1.3613433837890625
1776223432128569900,7.83256982421875,-0.0391387939453125,0.462646484375,1.2441864013671875
1776223432148419800,7.852419921875,-0.06939697265625,0.4431915283203125,1.2346343994140625
1776223432168270800,7.872270751953125,-0.112762451171875,0.4569549560546875,1.312530517578125
1776223432188120800,7.892120849609375,-0.1849517822265625,0.439361572265625,1.3227081298828125
1776223432207970800,7.911970703125,-0.2374725341796875,0.42022705078125,1.250091552734375
1776223432227821800,7.93182177734375,-0.2559661865234375,0.40789794921875,1.1386260986328125
1776223432247671800,7.951671875,-0.22381591796875,0.4698638916015625,1.085845947265625
1776223432267521800,7.971521728515625,-0.2054290771484375,0.5986328125,1.081756591796875
1776223432287371800,7.991371826171875,-0.212005615234375,0.7137603759765625,1.087554931640625
1776223432307222800,8.011222900390624,-0.229248046875,0.7939453125,1.0843963623046875
1776223432327072800,8.03107275390625,-0.24481201171875,0.83447265625,1.0936431884765625
1776223432346922800,8.0509228515625,-0.2740325927734375,0.844390869140625,1.10040283203125
1776223432366773800,8.070773681640626,-0.2866973876953125,0.84283447265625,1.102142333984375
1776223432386623700,8.090623779296875,-0.264923095703125,0.84613037109375,1.10546875
1776223432406474000,8.110473876953124,-0.2192840576171875,0.8648681640625,1.0866851806640625
1776223432426324000,8.130323974609375,-0.1916656494140625,0.9029083251953125,1.055511474609375
1776223432446175000,8.150175048828125,-0.2128753662109375,0.9508209228515625,1.0179901123046875
1776223432466025000,8.17002490234375,-0.2519073486328125,0.978759765625,0.970184326171875
1776223432485875000,8.189875,-0.3004913330078125,1.001617431640625,0.917755126953125
1776223432505726000,8.209725830078124,-0.330718994140625,0.9940185546875,0.852508544921875
1776223432525576000,8.229575927734375,-0.312835693359375,0.9708251953125,0.7867889404296875
1776223432545426000,8.249426025390624,-0.2786407470703125,0.92919921875,0.71527099609375
1776223432565277000,8.26927685546875,-0.2509307861328125,0.8767852783203125,0.65338134765625
1776223432585127000,8.289126953125,-0.2307891845703125,0.8251495361328125,0.599700927734375
1776223432604977000,8.308976806640626,-0.2125244140625,0.8076171875,0.5753021240234375
1776223432624827000,8.328826904296875,-0.1653289794921875,0.798553466796875,0.527679443359375
1776223432644678000,8.348677978515624,-0.116943359375,0.7703704833984375,0.45751953125
1776223432664528000,8.36852783203125,-0.061187744140625,0.7413177490234375,0.38677978515625
1776223432684377900,8.3883779296875,-0.0164031982421875,0.748382568359375,0.373809814453125
1776223432704228900,8.408228759765626,0.0141143798828125,0.7505035400390625,0.3870849609375
1776223432724078800,8.428078857421875,0.037353515625,0.7472076416015625,0.4044647216796875
1776223432743928800,8.4479287109375,0.0364990234375,0.730255126953125,0.4044952392578125
1776223432763778600,8.467778564453125,0.0136260986328125,0.6778564453125,0.359375
1776223432783629800,8.4876298828125,0.007354736328125,0.618133544921875,0.3522796630859375
1776223432803479800,8.507479736328126,-0.0115509033203125,0.6290435791015625,0.47393798828125
1776223432823329800,8.527329833984375,-0.0289306640625,0.6852874755859375,0.6437530517578125
1776223432843179800,8.5471796875,-0.01959228515625,0.7483978271484375,0.8036346435546875
1776223432863030800,8.56703076171875,-0.0001220703125,0.7945404052734375,0.8963165283203125
1776223432882880800,8.586880859375,0.0279541015625,0.8109588623046875,0.920318603515625
1776223432902730800,8.606730712890625,0.0332794189453125,0.82568359375,0.9546051025390625
1776223432922582000,8.62658203125,0.0201568603515625,0.8216094970703125,0.9670562744140625
1776223432942431700,8.646431640625,-0.0296173095703125,0.7999420166015625,0.97503662109375
1776223432962281700,8.66628173828125,-0.0741424560546875,0.769683837890625,0.974945068359375
1776223432982131700,8.686131591796874,-0.0959625244140625,0.74267578125,0.9800262451171875
1776223433001982700,8.705982666015625,-0.0718841552734375,0.7301177978515625,0.987213134765625
1776223433021832700,8.725832763671875,-0.0611724853515625,0.7339324951171875,0.9861907958984375
1776223433041682700,8.7456826171875,-0.075927734375,0.7415618896484375,1.001129150390625
1776223433061532700,8.76553271484375,-0.1163177490234375,0.74029541015625,1.031768798828125
1776223433081383700,8.7853837890625,-0.1470947265625,0.716552734375,1.06866455078125
1776223433101234200,8.805234130859375,-0.16583251953125,0.675750732421875,1.1106719970703125
1776223433121084000,8.825083984375,-0.1636505126953125,0.62249755859375,1.171844482421875
1776223433140934000,8.844933837890625,-0.1811676025390625,0.56494140625,1.2073516845703125
1776223433160785200,8.86478515625,-0.2108154296875,0.4975433349609375,1.2273101806640625
1776223433180635000,8.884634765625,-0.18731689453125,0.4936676025390625,1.2559814453125
1776223433200484900,8.90448486328125,-0.1431427001953125,0.5034637451171875,1.2495574951171875
1776223433220335000,8.924335205078124,-0.085296630859375,0.49072265625,1.18804931640625
1776223433240185900,8.944185791015625,-0.0631256103515625,0.4730224609375,1.168609619140625
1776223433260036000,8.9640361328125,-0.0923309326171875,0.4993438720703125,1.2164154052734375
1776223433279886000,8.983885986328126,-0.137939453125,0.5578155517578125,1.2649993896484375
1776223433299737000,9.003737060546875,-0.186187744140625,0.537261962890625,1.201141357421875
1776223433319587000,9.023587158203124,-0.212890625,0.4846038818359375,1.1023406982421875
1776223433339437000,9.04343701171875,-0.222259521484375,0.4820709228515625,1.049041748046875
1776223433359287000,9.063287109375,-0.2042083740234375,0.542755126953125,1.0142974853515625
1776223433379138000,9.083137939453126,-0.1906890869140625,0.6331634521484375,0.9988250732421875
1776223433398988000,9.102988037109375,-0.1946258544921875,0.6994781494140625,0.9680328369140625
1776223433418838000,9.122838134765624,-0.200225830078125,0.7564544677734375,0.9631195068359375
1776223433438688000,9.14268798828125,-0.1935882568359375,0.80731201171875,1.01104736328125
1776223433458539000,9.1625390625,-0.1759490966796875,0.83563232421875,1.0717315673828125
1776223433478389000,9.182388916015626,-0.1668243408203125,0.827789306640625,1.095733642578125
1776223433498239000,9.202239013671875,-0.17242431640625,0.8135986328125,1.1002197265625
1776223433518089000,9.2220888671875,-0.1754913330078125,0.821624755859375,1.0870819091796875
1776223433537940000,9.24193994140625,-0.1705474853515625,0.878326416015625,1.0687103271484375
1776223433557790000,9.2617900390625,-0.1654052734375,0.982696533203125,1.092376708984375
1776223433577640000,9.281639892578125,-0.1255950927734375,0.9965057373046875,1.035003662109375
1776223433597490200,9.301490234375,-0.102081298828125,0.9803924560546875,0.9436492919921875
1776223433617341000,9.3213408203125,-0.119476318359375,0.9656829833984375,0.8516387939453125
1776223433637191200,9.341191162109375,-0.1515655517578125,0.954345703125,0.7667388916015625
1776223433657041200,9.361041259765624,-0.1722412109375,0.90496826171875,0.6497955322265625
1776223433676891100,9.38089111328125,-0.1775970458984375,0.83001708984375,0.5276641845703125
1776223433696742100,9.4007421875,-0.1530914306640625,0.7760009765625,0.458160400390625
1776223433716592000,9.420592041015626,-0.11163330078125,0.7440948486328125,0.41448974609375
1776223433736442000,9.440442138671875,-0.0766143798828125,0.730560302734375,0.3858489990234375
1776223433756292000,9.4602919921875,-0.056121826171875,0.705322265625,0.3439178466796875
1776223433776143000,9.48014306640625,-0.039642333984375,0.6664581298828125,0.3089141845703125
1776223433795993000,9.4999931640625,-0.0219268798828125,0.65570068359375,0.3220062255859375
1776223433815843000,9.519843017578125,-0.0025177001953125,0.6914520263671875,0.38397216796875
1776223433835693000,9.539693115234375,0.0308837890625,0.6995391845703125,0.4217529296875
1776223433855544000,9.5595439453125,0.0447235107421875,0.63983154296875,0.428558349609375
1776223433875394000,9.57939404296875,0.0129241943359375,0.59722900390625,0.4875335693359375
1776223433895244000,9.599244140625,-0.01312255859375,0.624755859375,0.6170196533203125
1776223433915094000,9.619093994140625,-0.0184478759765625,0.6795806884765625,0.75189208984375
1776223433934944300,9.6389443359375,-0.0028533935546875,0.7351531982421875,0.8462677001953125
1776223433954795000,9.658794921875,0.0130767822265625,0.7725372314453125,0.89617919921875
1776223433974645200,9.678645263671875,0.02239990234375,0.7920074462890625,0.9083099365234375
1776223433994495200,9.6984951171875,0.0140228271484375,0.8106842041015625,0.9197998046875
1776223434014345200,9.71834521484375,-0.0225830078125,0.8065032958984375,0.8993988037109375
1776223434034196200,9.7381962890625,-0.081573486328125,0.79473876953125,0.86370849609375
1776223434054046200,9.758046142578126,-0.1522674560546875,0.771148681640625,0.8382568359375
1776223434073896200,9.777896240234375,-0.1869964599609375,0.760589599609375,0.8680877685546875
1776223434093746200,9.79774609375,-0.18048095703125,0.7655029296875,0.9319915771484375
1776223434113596400,9.817596435546875,-0.150543212890625,0.77435302734375,0.9836883544921875
1776223434133446400,9.8374462890625,-0.137725830078125,0.774444580078125,1.002899169921875
1776223434153296400,9.85729638671875,-0.161376953125,0.76287841796875,1.01336669921875
1776223434173146400,9.877146484375,-0.18060302734375,0.722259521484375,1.0406494140625
1776223434192996600,9.89699658203125,-0.1623992919921875,0.6864471435546875,1.089080810546875
1776223434212847400,9.916847412109375,-0.152069091796875,0.622711181640625,1.1270751953125
1776223434232697600,9.936697509765626,-0.1793365478515625,0.55645751953125,1.2082061767578125
1776223434252547600,9.956547607421875,-0.2216339111328125,0.5512542724609375,1.3127593994140625
1776223434272397600,9.9763974609375,-0.258697509765625,0.567596435546875,1.336395263671875
1776223434292248600,9.99624853515625,-0.29071044921875,0.579071044921875,1.28314208984375
1776223434312098600,10.0160986328125,-0.3137359619140625,0.568267822265625,1.2055816650390625
1776223434331948500,10.035948486328126,-0.3339385986328125,0.6024627685546875,1.200836181640625
1776223434351798500,10.055798583984375,-0.3762359619140625,0.667388916015625,1.2384033203125
1776223434371648500,10.0756484375,-0.4084625244140625,0.685577392578125,1.22772216796875
1776223434391499500,10.09549951171875,-0.403076171875,0.6215667724609375,1.116729736328125
1776223434411349500,10.115349609375,-0.386199951171875,0.5162353515625,0.9891815185546875
1776223434431199500,10.135199462890625,-0.314361572265625,0.560211181640625,0.9603424072265625
1776223434451049500,10.155049560546875,-0.2558441162109375,0.681610107421875,0.98394775390625
1776223434470900500,10.174900390625,-0.2163543701171875,0.7625274658203125,0.950836181640625
1776223434490750500,10.19475048828125,-0.2036590576171875,0.8254852294921875,0.913818359375
1776223434510600400,10.214600341796874,-0.1612396240234375,0.8514556884765625,0.910003662109375
1776223434530450400,10.234450439453125,-0.1356353759765625,0.8526611328125,0.916015625
1776223434550300400,10.254300537109375,-0.1835479736328125,0.8493499755859375,0.9424896240234375
1776223434570151700,10.274151611328126,-0.2664337158203125,0.8495330810546875,0.953338623046875
1776223434590001400,10.29400146484375,-0.3269805908203125,0.86859130859375,0.9629974365234375
1776223434609851400,10.313851318359376,-0.3410186767578125,0.89532470703125,0.9557037353515625
1776223434629701400,10.333701416015625,-0.317169189453125,0.9380340576171875,0.9538726806640625
1776223434649552400,10.353552490234375,-0.25592041015625,0.968536376953125,0.9271697998046875
1776223434669402400,10.37340234375,-0.2154388427734375,0.9820709228515625,0.890533447265625
1776223434689252400,10.39325244140625,-0.183807373046875,0.9868621826171875,0.84814453125
1776223434709102300,10.413102294921876,-0.1697845458984375,0.9632720947265625,0.7911834716796875
1776223434728952300,10.432952392578125,-0.1640472412109375,0.935638427734375,0.7346649169921875
1776223434748803300,10.45280322265625,-0.1654205322265625,0.885986328125,0.6766204833984375
1776223434768653300,10.4726533203125,-0.17095947265625,0.8522491455078125,0.6444854736328125
1776223434788503300,10.49250341796875,-0.160736083984375,0.831878662109375,0.623779296875
1776223434808353500,10.512353515625,-0.1370391845703125,0.822509765625,0.581817626953125
1776223434828203500,10.53220361328125,-0.114990234375,0.7816009521484375,0.519989013671875
1776223434848054500,10.552054443359374,-0.0828094482421875,0.73089599609375,0.471923828125
1776223434867904500,10.571904541015625,-0.0355377197265625,0.68048095703125,0.4385833740234375
1776223434887754500,10.59175439453125,0.0291900634765625,0.667022705078125,0.449310302734375
1776223434907604500,10.6116044921875,0.1234283447265625,0.6131134033203125,0.388824462890625
1776223434927454500,10.631454345703125,0.20281982421875,0.504547119140625,0.2641448974609375
1776223434947305500,10.651305419921876,0.20068359375,0.413970947265625,0.1993255615234375
1776223434967155500,10.671155517578125,0.067291259765625,0.438690185546875,0.30059814453125
1776223434987005400,10.69100537109375,-0.0651397705078125,0.5399627685546875,0.4644775390625
1776223435006855400,10.71085546875,-0.14910888671875,0.6669769287109375,0.6300811767578125
1776223435026706400,10.73070654296875,-0.2031097412109375,0.755218505859375,0.71868896484375
1776223435046556400,10.750556396484376,-0.20684814453125,0.8258819580078125,0.7870941162109375
1776223435066406400,10.770406494140625,-0.17913818359375,0.8860931396484375,0.84539794921875
1776223435086256400,10.79025634765625,-0.147369384765625,0.897552490234375,0.8773956298828125
1776223435106107000,10.81010693359375,-0.1205902099609375,0.8831787109375,0.887786865234375
1776223435125958000,10.8299580078125,-0.1216583251953125,0.8660736083984375,0.897430419921875
1776223435145808000,10.849807861328125,-0.139556884765625,0.8534393310546875,0.918975830078125
1776223435165658000,10.869658203125,-0.1517181396484375,0.858001708984375,0.9510955810546875
1776223435185508000,10.889508056640626,-0.1896820068359375,0.8681488037109375,0.9975433349609375
1776223435205358000,10.909358154296875,-0.1950225830078125,0.89007568359375,1.0267181396484375
1776223435225207800,10.929207763671876,-0.20489501953125,0.8931884765625,1.0296478271484375
1776223435245059000,10.94905908203125,-0.2443695068359375,0.875885009765625,1.024627685546875
1776223435264909000,10.968908935546875,-0.303131103515625,0.825958251953125,1.0512542724609375
1776223435284758800,10.9887587890625,-0.3231048583984375,0.755859375,1.1265411376953125
1776223435304608800,11.00860888671875,-0.3123321533203125,0.6751708984375,1.1962432861328125
1776223435324458800,11.028458740234376,-0.2832183837890625,0.606658935546875,1.233856201171875
1776223435344309800,11.048309814453125,-0.2111663818359375,0.5780792236328125,1.2369537353515625
1776223435364159700,11.06815966796875,-0.125885009765625,0.597686767578125,1.212005615234375
1776223435384009700,11.088009765625,-0.0898895263671875,0.5822601318359375,1.1303253173828125
1776223435403860000,11.10785986328125,-0.11846923828125,0.5875091552734375,1.10491943359375
1776223435423710000,11.1277099609375,-0.1953125,0.6015472412109375,1.12750244140625
1776223435443561000,11.14756103515625,-0.27789306640625,0.58331298828125,1.1240386962890625
1776223435463411000,11.167410888671874,-0.3367919921875,0.5055389404296875,1.0686492919921875
1776223435483261000,11.187260986328125,-0.3967437744140625,0.4254302978515625,1.0494384765625
1776223435503111000,11.20711083984375,-0.3911590576171875,0.477386474609375,1.104278564453125
1776223435522961000,11.2269609375,-0.345977783203125,0.6015777587890625,1.1453094482421875
1776223435542812000,11.24681201171875,-0.2821807861328125,0.7268218994140625,1.129302978515625
1776223435562662000,11.266661865234376,-0.24676513671875,0.80963134765625,1.0951995849609375
1776223435582511900,11.286511962890625,-0.2575836181640625,0.8665924072265625,1.060272216796875
1776223435602361900,11.30636181640625,-0.3104400634765625,0.8915252685546875,1.053619384765625
1776223435622211800,11.3262119140625,-0.357818603515625,0.927276611328125,1.0750579833984375
1776223435642061800,11.346061767578124,-0.345672607421875,0.9530029296875,1.0948638916015625
1776223435661912800,11.365912841796876,-0.27178955078125,0.978118896484375,1.06036376953125
1776223435681762800,11.3857626953125,-0.2104339599609375,0.9835968017578125,0.9933013916015625
1776223435701613000,11.405613037109376,-0.19000244140625,1.017333984375,0.9544219970703125
1776223435721463000,11.425463134765625,-0.1760101318359375,1.05914306640625,0.9233245849609375
1776223435741313000,11.44531298828125,-0.1532440185546875,1.0821685791015625,0.86572265625
1776223435761164000,11.4651640625,-0.131072998046875,1.0402069091796875,0.768310546875
1776223435781014000,11.485013916015625,-0.1225738525390625,0.98681640625,0.6704254150390625
1776223435800864000,11.504864013671876,-0.13311767578125,0.9178619384765625,0.5968170166015625
1776223435820714000,11.5247138671875,-0.145660400390625,0.8394317626953125,0.546539306640625
1776223435840564000,11.54456396484375,-0.149078369140625,0.816680908203125,0.5515594482421875
1776223435860414000,11.5644140625,-0.126190185546875,0.816375732421875,0.561798095703125
1776223435880265000,11.584264892578124,-0.0960235595703125,0.80743408203125,0.527587890625
1776223435900115000,11.604114990234375,-0.0638275146484375,0.7658233642578125,0.4711151123046875
1776223435919965000,11.62396484375,-0.0322113037109375,0.730316162109375,0.410736083984375
1776223435939815000,11.64381494140625,-0.013397216796875,0.684234619140625,0.35711669921875
1776223435959665000,11.663664794921875,0.0118865966796875,0.7028656005859375,0.358489990234375
1776223435979515000,11.683514892578126,0.0154266357421875,0.6888427734375,0.34466552734375
1776223435999366000,11.703365966796875,-0.003509521484375,0.648681640625,0.323272705078125
1776223436019216000,11.7232158203125,-0.0852508544921875,0.6209564208984375,0.37213134765625
1776223436039065900,11.74306591796875,-0.1553802490234375,0.6476898193359375,0.466888427734375
1776223436058915800,11.762915771484375,-0.174102783203125,0.698333740234375,0.5799713134765625
1776223436078765800,11.782765869140626,-0.1617279052734375,0.7313690185546875,0.67333984375
1776223436098616800,11.802616943359375,-0.1292877197265625,0.7550048828125,0.733245849609375
1776223436118467000,11.822467041015624,-0.0921173095703125,0.77911376953125,0.7639617919921875
1776223436138317000,11.842317138671875,-0.060577392578125,0.8129730224609375,0.7805023193359375
1776223436158167000,11.8621669921875,-0.063323974609375,0.8301849365234375,0.78631591796875
1776223436178017000,11.88201708984375,-0.0682525634765625,0.8202362060546875,0.781097412109375
1776223436197867300,11.9018671875,-0.0775146484375,0.807708740234375,0.786285400390625
1776223436217718000,11.921718017578126,-0.103485107421875,0.8113861083984375,0.8101043701171875
1776223436237568300,11.941568359375,-0.145904541015625,0.834075927734375,0.85113525390625
1776223436257418200,11.961418212890624,-0.183624267578125,0.8730926513671875,0.9138641357421875
1776223436277268000,11.98126806640625,-0.189849853515625,0.8927154541015625,0.969085693359375
1776223436297118000,12.001117919921874,-0.1739501953125,0.8879852294921875,0.9942474365234375
1776223436316968000,12.020968017578125,-0.1791839599609375,0.88739013671875,1.0100555419921875
1776223436336819000,12.04081884765625,-0.2175750732421875,0.8681182861328125,1.0222015380859375
1776223436356669000,12.0606689453125,-0.2680511474609375,0.8204193115234375,1.048675537109375
1776223436376519000,12.080518798828125,-0.3034515380859375,0.7614288330078125,1.1207733154296875
1776223436396369000,12.100368896484374,-0.3104705810546875,0.7169647216796875,1.2146759033203125
1776223436416219000,12.120218994140625,-0.327880859375,0.6750640869140625,1.26885986328125
1776223436436069000,12.140069091796875,-0.3197021484375,0.6354827880859375,1.3094024658203125
1776223436455919900,12.159919921875,-0.2929840087890625,0.58294677734375,1.32904052734375
1776223436475770000,12.17977001953125,-0.2957763671875,0.5102386474609375,1.312591552734375
1776223436495620000,12.1996201171875,-0.3265838623046875,0.5106658935546875,1.345489501953125
1776223436515470000,12.219469970703125,-0.34698486328125,0.5210418701171875,1.3466949462890625
1776223436535320000,12.239320068359374,-0.3562164306640625,0.497344970703125,1.26153564453125
1776223436555170000,12.259170166015625,-0.341827392578125,0.4680328369140625,1.13311767578125
1776223436575020000,12.27902001953125,-0.3275146484375,0.523956298828125,1.0921630859375
1776223436594871000,12.29887109375,-0.3293304443359375,0.61761474609375,1.0721435546875
1776223436614721000,12.318720947265625,-0.319305419921875,0.740325927734375,1.0787811279296875
1776223436634571000,12.338571044921874,-0.3011016845703125,0.8473052978515625,1.0725555419921875
1776223436654421000,12.3584208984375,-0.299591064453125,0.9090423583984375,1.0546417236328125
1776223436674271200,12.378271240234374,-0.2958221435546875,0.9647674560546875,1.066680908203125
1776223436694121200,12.398121337890625,-0.27191162109375,1.0325164794921875,1.0885009765625
1776223436713972000,12.417971923828125,-0.2564239501953125,1.0794830322265625,1.0689697265625
1776223436733822200,12.437822265625,-0.23773193359375,1.1042938232421875,1.0296783447265625
1776223436753672200,12.457672119140625,-0.225006103515625,1.103546142578125,0.9599151611328125
1776223436773522200,12.477522216796874,-0.23333740234375,1.0853424072265625,0.8760986328125
1776223436793372200,12.4973720703125,-0.223663330078125,1.0551605224609375,0.818206787109375
1776223436813222000,12.517221923828124,-0.1868133544921875,1.0111083984375,0.7564697265625
1776223436833071900,12.53707177734375,-0.1393585205078125,0.9469757080078125,0.69232177734375
1776223436852923100,12.556923095703125,-0.092010498046875,0.88629150390625,0.6360931396484375
1776223436872772900,12.57677294921875,-0.0555267333984375,0.8349151611328125,0.57763671875
1776223436892622800,12.596622802734375,-0.042205810546875,0.76800537109375,0.5135345458984375
1776223436912473000,12.61647314453125,-0.041229248046875,0.7212066650390625,0.46575927734375
1776223436932323000,12.636322998046875,-0.0546875,0.6943817138671875,0.441558837890625
1776223436952173000,12.656173095703124,-0.0710906982421875,0.686614990234375,0.4330902099609375
1776223436972024000,12.676024169921876,-0.0754852294921875,0.6895904541015625,0.4328460693359375
1776223436991874000,12.6958740234375,-0.0672607421875,0.685516357421875,0.4189300537109375
1776223437011724000,12.71572412109375,-0.0608978271484375,0.657562255859375,0.36981201171875
1776223437031574000,12.735573974609375,-0.0690155029296875,0.6253509521484375,0.3314361572265625
1776223437051424000,12.755424072265624,-0.061981201171875,0.653411865234375,0.3784637451171875
1776223437071274000,12.77527392578125,-0.0428466796875,0.6806182861328125,0.4023590087890625
1776223437091124000,12.7951240234375,-0.057525634765625,0.64300537109375,0.3863372802734375
1776223437110975000,12.81497509765625,-0.1108856201171875,0.6154937744140625,0.4304046630859375
1776223437130824700,12.83482470703125,-0.157562255859375,0.64361572265625,0.54833984375
1776223437150675000,12.854675048828126,-0.1790924072265625,0.681854248046875,0.66986083984375
1776223437170525000,12.87452490234375,-0.166748046875,0.7216339111328125,0.7829132080078125
1776223437190375000,12.894375,-0.1315765380859375,0.7846221923828125,0.8710479736328125
1776223437210225000,12.914224853515625,-0.0762786865234375,0.8412017822265625,0.8791046142578125
1776223437230075000,12.934074951171874,-0.0435333251953125,0.8872833251953125,0.8784637451171875
1776223437249926000,12.95392578125,-0.0591888427734375,0.8785247802734375,0.8427581787109375
1776223437269776000,12.97377587890625,-0.109588623046875,0.8451385498046875,0.8419342041015625
1776223437289625900,12.9936259765625,-0.157806396484375,0.80572509765625,0.871612548828125
1776223437309475800,13.013475830078125,-0.1661224365234375,0.794281005859375,0.9331207275390625
1776223437329325800,13.033325927734374,-0.1627349853515625,0.8013153076171875,0.9857330322265625
1776223437349175800,13.05317578125,-0.1717071533203125,0.80419921875,1.0136566162109375
1776223437369026000,13.073026123046875,-0.177825927734375,0.787750244140625,1.028839111328125
1776223437388876000,13.0928759765625,-0.1737060546875,0.7581024169921875,1.052825927734375
1776223437408727000,13.11272705078125,-0.177978515625,0.71826171875,1.0749969482421875
1776223437428577000,13.132576904296876,-0.196380615234375,0.67626953125,1.1205291748046875
1776223437448427000,13.152427001953125,-0.2003936767578125,0.6058502197265625,1.164154052734375
1776223437468277000,13.172277099609374,-0.1739959716796875,0.5454864501953125,1.2006072998046875
1776223437488127000,13.192126953125,-0.1488189697265625,0.528167724609375,1.214569091796875
1776223437507977000,13.21197705078125,-0.1722869873046875,0.5374755859375,1.195281982421875
1776223437527827000,13.231826904296875,-0.1953125,0.554168701171875,1.1729278564453125
1776223437547678000,13.251677978515625,-0.213897705078125,0.557861328125,1.1624908447265625
1776223437567528000,13.27152783203125,-0.2464141845703125,0.5564727783203125,1.1510772705078125
1776223437587378000,13.2913779296875,-0.2970733642578125,0.5439910888671875,1.1351776123046875
1776223437607228200,13.311228271484374,-0.3450164794921875,0.5647430419921875,1.138519287109375
1776223437627078000,13.331077880859375,-0.38946533203125,0.572906494140625,1.10791015625
1776223437646928000,13.350927978515625,-0.40509033203125,0.54681396484375,1.0403289794921875
1776223437666777900,13.37077783203125,-0.3781280517578125,0.5032958984375,0.9689788818359375
1776223437686628900,13.39062890625,-0.3203277587890625,0.548370361328125,0.9752349853515625
1776223437706478800,13.410478759765626,-0.2769012451171875,0.673126220703125,1.0334014892578125
1776223437726328800,13.430328857421875,-0.23077392578125,0.78582763671875,1.0525054931640625
1776223437746178800,13.4501787109375,-0.2056884765625,0.9085845947265625,1.0677337646484375
1776223437766028800,13.47002880859375,-0.2180633544921875,0.9782867431640625,1.0598907470703125
1776223437785878800,13.489878662109374,-0.2506103515625,1.0161285400390625,1.062835693359375
1776223437805729000,13.50972900390625,-0.2587432861328125,1.054840087890625,1.0754852294921875
1776223437825579000,13.5295791015625,-0.26165771484375,1.04632568359375,1.0208282470703125
1776223437845430000,13.549429931640624,-0.25006103515625,1.0426483154296875,0.985260009765625
1776223437865280000,13.569280029296875,-0.201690673828125,1.037994384765625,0.9390106201171875
1776223437885130000,13.5891298828125,-0.160552978515625,1.010284423828125,0.871673583984375
1776223437904980000,13.60897998046875,-0.1427001953125,0.98834228515625,0.800750732421875
1776223437924830000,13.628829833984375,-0.13934326171875,0.9465179443359375,0.7287750244140625
1776223437944680000,13.648679931640626,-0.1016845703125,0.8698883056640625,0.640655517578125
1776223437964530000,13.668530029296875,-0.0551910400390625,0.7770843505859375,0.543121337890625
1776223437984380000,13.6883798828125,-0.021759033203125,0.69110107421875,0.4695281982421875
1776223438004231000,13.70823095703125,-0.0087890625,0.6386260986328125,0.4362640380859375
1776223438024081000,13.728080810546874,-0.00164794921875,0.63201904296875,0.4347686767578125
1776223438043931000,13.747930908203125,-0.000885009765625,0.6364288330078125,0.415252685546875
1776223438063781000,13.767781005859375,-0.0167999267578125,0.6240234375,0.3746490478515625
1776223438083631000,13.787631103515626,-0.0351409912109375,0.619903564453125,0.343292236328125
1776223438103480800,13.807480712890625,-0.057281494140625,0.5986328125,0.3327178955078125
1776223438123330000,13.827330078125,-0.0571136474609375,0.5725860595703125,0.347381591796875
1776223438143180000,13.847179931640625,-0.0691375732421875,0.565185546875,0.40374755859375
1776223438163031000,13.867031005859374,-0.07196044921875,0.5994720458984375,0.4837646484375
1776223438182881000,13.886881103515625,-0.048919677734375,0.642333984375,0.5350189208984375
1776223438202731000,13.90673095703125,-0.02972412109375,0.680999755859375,0.554168701171875
1776223438222581200,13.926581298828125,-0.06103515625,0.6943206787109375,0.578033447265625
1776223438242431200,13.94643115234375,-0.1197357177734375,0.705108642578125,0.63909912109375
1776223438262281200,13.96628125,-0.1484832763671875,0.7591400146484375,0.7671966552734375
1776223438282131200,13.986131103515625,-0.16033935546875,0.79791259765625,0.901275634765625
1776223438301981200,14.005981201171876,-0.154541015625,0.839324951171875,1.0245819091796875
1776223438321832200,14.025832275390625,-0.13446044921875,0.856109619140625,1.0855560302734375
1776223438341682200,14.04568212890625,-0.10479736328125,0.8644866943359375,1.0749359130859375
1776223438361532200,14.0655322265625,-0.0758819580078125,0.865997314453125,1.017608642578125
1776223438381382100,14.085382080078125,-0.0902252197265625,0.824249267578125,0.9468231201171875
1776223438401232100,14.105232177734376,-0.128753662109375,0.770660400390625,0.9117889404296875
1776223438421082400,14.125082275390625,-0.1523284912109375,0.7158966064453125,0.921630859375
1776223438440932400,14.144932373046874,-0.143829345703125,0.668975830078125,0.929290771484375
1776223438460782300,14.1647822265625,-0.1090240478515625,0.648162841796875,0.9351348876953125
1776223438480633300,14.18463330078125,-0.08349609375,0.634033203125,0.9138946533203125
1776223438500483300,14.2044833984375,-0.0651397705078125,0.6374664306640625,0.9029541015625
1776223438520333300,14.224333251953125,-0.0743255615234375,0.620025634765625,0.89825439453125
1776223438540183000,14.24418310546875,-0.110198974609375,0.6046142578125,0.92425537109375
1776223438560033000,14.264032958984375,-0.131988525390625,0.5890350341796875,0.9415283203125
1776223438579883000,14.283883056640626,-0.143585205078125,0.55633544921875,0.9394683837890625
1776223438599733000,14.30373291015625,-0.1513671875,0.5251922607421875,0.949462890625
1776223438619583200,14.323583251953124,-0.1573638916015625,0.507843017578125,0.9812164306640625
1776223438639434000,14.34343408203125,-0.1579132080078125,0.5095367431640625,1.025634765625
1776223438659284200,14.3632841796875,-0.16650390625,0.53863525390625,1.076568603515625
1776223438679134200,14.38313427734375,-0.17864990234375,0.5771636962890625,1.098114013671875
1776223438698984200,14.402984130859375,-0.1977386474609375,0.6001129150390625,1.0699615478515625
1776223438718834200,14.422834228515624,-0.20574951171875,0.6262664794921875,1.04266357421875
1776223438738684200,14.44268408203125,-0.224395751953125,0.64483642578125,1.039398193359375
1776223438758534100,14.4625341796875,-0.2452239990234375,0.6631927490234375,1.0499725341796875
1776223438778384100,14.482384033203125,-0.2512359619140625,0.663421630859375,1.046600341796875
1776223438798235100,14.502235107421875,-0.24200439453125,0.620941162109375,1.0024871826171875
1776223438818085000,14.522085205078126,-0.275299072265625,0.592193603515625,0.9766693115234375
1776223438837935000,14.54193505859375,-0.307861328125,0.6125335693359375,0.9720611572265625
1776223438857785300,14.561785400390624,-0.2240447998046875,0.7169952392578125,0.98992919921875
1776223438877635300,14.58163525390625,-0.086669921875,0.821563720703125,1.0117950439453125
1776223438897485300,14.6014853515625,0.0546112060546875,0.9285736083984375,1.049285888671875
1776223438917335300,14.621335205078125,0.1277618408203125,0.9510498046875,1.0133056640625
1776223438937185300,14.641185302734375,0.10693359375,0.893524169921875,0.9436492919921875
1776223438957036300,14.661036376953126,0.0333251953125,0.856719970703125,0.8966217041015625
1776223438976886300,14.68088623046875,-0.0778656005859375,0.8355712890625,0.874847412109375
1776223438996736300,14.700736328125,-0.162384033203125,0.810394287109375,0.83551025390625
1776223439016586000,14.7205859375,-0.2116241455078125,0.777374267578125,0.7850189208984375
1776223439036436000,14.74043603515625,-0.196868896484375,0.7391204833984375,0.7169189453125
1776223439056286200,14.7602861328125,-0.112579345703125,0.6966705322265625,0.630218505859375
1776223439076136200,14.78013623046875,-0.048187255859375,0.6613006591796875,0.5732879638671875
1776223439095986200,14.799986083984376,-0.0065765380859375,0.618560791015625,0.5301055908203125
1776223439115837700,14.819837646484375,0.01751708984375,0.587738037109375,0.5045623779296875
1776223439135688000,14.83968798828125,0.0349884033203125,0.5568389892578125,0.4977569580078125
1776223439155538000,14.859537841796875,0.03973388671875,0.5337066650390625,0.49749755859375
1776223439175388000,14.879387939453125,0.01763916015625,0.53411865234375,0.511688232421875
1776223439195238000,14.89923779296875,-0.0182342529296875,0.5556488037109375,0.5346832275390625
1776223439215087900,14.919087890625,-0.067779541015625,0.6012420654296875,0.5694580078125
1776223439234937900,14.938937744140626,-0.0954437255859375,0.65362548828125,0.60833740234375
1776223439254788900,14.958788818359375,-0.08355712890625,0.6828460693359375,0.623382568359375
1776223439274638800,14.978638916015624,-0.0515594482421875,0.6985015869140625,0.6211700439453125
1776223439294488800,14.99848876953125,-0.0283966064453125,0.707244873046875,0.61419677734375
1776223439314338800,15.0183388671875,-0.034576416015625,0.7520599365234375,0.608245849609375
1776223439334189000,15.03818896484375,-0.06182861328125,0.8306732177734375,0.6141510009765625
1776223439354039000,15.0580390625,-0.08160400390625,0.85736083984375,0.5748138427734375
1776223439373888800,15.077888671875,-0.1031951904296875,0.8072509765625,0.496673583984375
1776223439393740000,15.097739990234375,-0.1539764404296875,0.715972900390625,0.4224395751953125
1776223439413590000,15.117590087890624,-0.253265380859375,0.69781494140625,0.452728271484375
1776223439433439700,15.137439697265625,-0.37847900390625,0.7117767333984375,0.53350830078125
1776223439453289700,15.157289794921875,-0.4741363525390625,0.7738800048828125,0.6984405517578125
1776223439473139700,15.1771396484375,-0.4907684326171875,0.85003662109375,0.8725738525390625
1776223439492989700,15.19698974609375,-0.425384521484375,0.905975341796875,1.005157470703125
1776223439512840700,15.2168408203125,-0.3099517822265625,0.904083251953125,1.04827880859375
1776223439532690700,15.236690673828125,-0.196044921875,0.8326873779296875,1.0060882568359375
1776223439552540700,15.256540771484374,-0.1038055419921875,0.7554931640625,0.950775146484375
1776223439572391000,15.276390869140625,-0.05450439453125,0.6766204833984375,0.880126953125
1776223439592241000,15.296240966796875,-0.053680419921875,0.6309967041015625,0.850921630859375
1776223439612091000,15.3160908203125,-0.0582275390625,0.603515625,0.8478851318359375
1776223439631940900,15.33594091796875,-0.0424957275390625,0.58978271484375,0.851654052734375
1776223439651792000,15.3557919921875,-0.0243988037109375,0.598785400390625,0.8566741943359375
1776223439671641900,15.375641845703125,-0.0404205322265625,0.6242828369140625,0.8562469482421875
1776223439691491800,15.395491943359374,-0.0997772216796875,0.6531219482421875,0.856689453125
1776223439711341800,15.415341796875,-0.17138671875,0.662261962890625,0.8519439697265625
1776223439731191800,15.43519189453125,-0.2239227294921875,0.6608428955078125,0.8628387451171875
1776223439751041800,15.455041748046876,-0.237060546875,0.6432647705078125,0.8905029296875
1776223439770892800,15.474892822265625,-0.2361602783203125,0.606414794921875,0.9072113037109375
1776223439790742800,15.49474267578125,-0.244873046875,0.5704345703125,0.933258056640625
1776223439810592800,15.5145927734375,-0.246551513671875,0.56085205078125,0.9938812255859375
1776223439830443000,15.534443115234374,-0.2367095947265625,0.5706634521484375,1.0667266845703125
1776223439850293000,15.55429296875,-0.21478271484375,0.566741943359375,1.0902557373046875
1776223439870143000,15.57414306640625,-0.18768310546875,0.5603179931640625,1.0811614990234375
1776223439889994000,15.593993896484376,-0.1685333251953125,0.545166015625,1.07891845703125
1776223439909844000,15.613843994140625,-0.1424407958984375,0.554931640625,1.10699462890625
1776223439929694000,15.63369384765625,-0.1188201904296875,0.575836181640625,1.1275634765625
1776223439949544000,15.6535439453125,-0.113128662109375,0.57415771484375,1.1123199462890625
1776223439969393700,15.6733935546875,-0.1142730712890625,0.5177154541015625,1.0515594482421875
1776223439989243600,15.69324365234375,-0.102020263671875,0.4640655517578125,1.0129852294921875
1776223440009095000,15.713094970703125,-0.0879058837890625,0.4871826171875,1.0072479248046875
1776223440028944600,15.732944580078126,-0.0929718017578125,0.5756378173828125,1.03790283203125
1776223440048794600,15.752794677734375,-0.111724853515625,0.69183349609375,1.0858154296875
1776223440068644900,15.772644775390624,-0.124420166015625,0.80023193359375,1.11669921875
1776223440088494800,15.792494873046875,-0.11328125,0.8813323974609375,1.1389617919921875
1776223440108344600,15.812344482421874,-0.071624755859375,0.9362945556640625,1.161712646484375
1776223440128195800,15.83219580078125,-0.010528564453125,0.9923248291015625,1.1651153564453125
1776223440148045800,15.8520458984375,0.0272369384765625,1.012115478515625,1.1205596923828125
1776223440167895600,15.8718955078125,0.0163116455078125,0.9731903076171875,1.0458831787109375
1776223440187745500,15.89174560546875,0.0111236572265625,0.89678955078125,0.9616241455078125
1776223440207595500,15.911595458984374,0.000091552734375,0.8377227783203125,0.884979248046875
1776223440227446500,15.931446533203125,-0.01654052734375,0.825836181640625,0.8428955078125
1776223440247296500,15.951296630859375,-0.0279083251953125,0.8402862548828125,0.80560302734375
1776223440267146500,15.971146484375,-0.02203369140625,0.808624267578125,0.7188873291015625
1776223440286996500,15.99099658203125,-0.0169677734375,0.741485595703125,0.6080322265625
1776223440306846700,16.0108466796875,-0.0067291259765625,0.672332763671875,0.510009765625
1776223440326696700,16.03069677734375,-0.0017852783203125,0.6233062744140625,0.4530792236328125
1776223440346547700,16.050547607421876,0.015472412109375,0.577362060546875,0.4021148681640625
1776223440366397700,16.070397705078125,0.0146942138671875,0.5287628173828125,0.3475341796875
1776223440386247700,16.09024755859375,0.0052947998046875,0.5004425048828125,0.3104095458984375
1776223440406097700,16.11009765625,-0.000213623046875,0.5119476318359375,0.311767578125
1776223440425947600,16.12994775390625,0.008270263671875,0.5415191650390625,0.32318115234375
1776223440445797600,16.149797607421874,0.0273590087890625,0.5623321533203125,0.3310699462890625
1776223440465648600,16.169648681640624,0.036285400390625,0.5772705078125,0.340606689453125
1776223440485498600,16.18949853515625,0.0203704833984375,0.6102142333984375,0.3778839111328125
1776223440505348600,16.2093486328125,-0.01446533203125,0.7087860107421875,0.5072784423828125
1776223440525198600,16.229198486328126,-0.026702880859375,0.816497802734375,0.622222900390625
1776223440545048800,16.249048828125,-0.034698486328125,0.9033203125,0.7066497802734375
1776223440564899600,16.268899658203125,-0.057830810546875,0.9366455078125,0.7548828125
1776223440584749800,16.288749755859374,-0.1182098388671875,0.9927215576171875,0.85443115234375
1776223440604599800,16.308599853515624,-0.18524169921875,1.05657958984375,1.030731201171875
1776223440624449800,16.32844970703125,-0.244476318359375,1.10882568359375,1.2546844482421875
1776223440644299800,16.3482998046875,-0.3197021484375,1.0820465087890625,1.4176483154296875
1776223440664149800,16.368149658203127,-0.3741302490234375,0.976348876953125,1.4564971923828125
1776223440684000800,16.388000732421876,-0.3441314697265625,0.8744354248046875,1.3630523681640625
1776223440703850800,16.407850830078125,-0.27020263671875,0.8127593994140625,1.16912841796875
1776223440723700700,16.42770068359375,-0.22833251953125,0.7599334716796875,0.9691925048828125
1776223440743550700,16.44755078125,-0.1826934814453125,0.7082977294921875,0.821807861328125
1776223440763400400,16.467400390625,-0.126220703125,0.664337158203125,0.738800048828125
1776223440783250700,16.487250732421874,-0.070709228515625,0.62811279296875,0.69329833984375
1776223440803101700,16.507101806640627,-0.0231781005859375,0.6383056640625,0.6595916748046875
1776223440822951700,16.52695166015625,-0.0667724609375,0.6734466552734375,0.6274871826171875
1776223440842801700,16.5468017578125,-0.1589202880859375,0.675506591796875,0.5861663818359375
1776223440862651600,16.566651611328126,-0.2467498779296875,0.668060302734375,0.566802978515625
1776223440882501600,16.586501708984375,-0.332489013671875,0.6732177734375,0.5702972412109375
1776223440902352600,16.6063525390625,-0.450286865234375,0.6749267578125,0.600799560546875
1776223440922202600,16.62620263671875,-0.5745086669921875,0.6481781005859375,0.666259765625
1776223440942052600,16.646052490234375,-0.626556396484375,0.605010986328125,0.764373779296875
1776223440961902600,16.665902587890624,-0.5922393798828125,0.5726318359375,0.8717498779296875
1776223440981752600,16.685752685546873,-0.4901275634765625,0.5660552978515625,0.9567413330078125
1776223441001602600,16.7056025390625,-0.3685150146484375,0.60516357421875,1.0150909423828125
1776223441021453600,16.72545361328125,-0.2897491455078125,0.6252593994140625,1.0424041748046875
1776223441041303600,16.745303466796877,-0.2147216796875,0.5911865234375,1.038177490234375
1776223441061153500,16.765153564453126,-0.14007568359375,0.5806427001953125,1.059722900390625
1776223441081003800,16.785003662109375,-0.0867156982421875,0.6089324951171875,1.077117919921875
1776223441100853800,16.804853759765624,-0.0837860107421875,0.63665771484375,1.0724639892578125
1776223441120703500,16.824703369140625,-0.0982818603515625,0.6322174072265625,1.0326690673828125
1776223441140554500,16.844554443359375,-0.1070709228515625,0.5520477294921875,0.9548797607421875
1776223441160404500,16.864404541015624,-0.1305084228515625,0.4872894287109375,0.9312591552734375
1776223441180254500,16.88425439453125,-0.1544036865234375,0.534881591796875,0.9862213134765625
1776223441200104400,16.9041044921875,-0.1740570068359375,0.6251220703125,1.033538818359375
1776223441219954400,16.923954345703127,-0.1745452880859375,0.7332916259765625,1.0639495849609375
1776223441239804400,16.943804443359376,-0.1515655517578125,0.8062591552734375,1.047576904296875
1776223441259655400,16.963655517578125,-0.1248321533203125,0.8290863037109375,1.0009307861328125
1776223441279505400,16.98350537109375,-0.1172027587890625,0.8438568115234375,0.9720306396484375
1776223441299355400,17.00335546875,-0.1214752197265625,0.8384857177734375,0.930755615234375
1776223441319205600,17.02320556640625,-0.1158294677734375,0.833770751953125,0.8923492431640625
1776223441339055600,17.0430556640625,-0.0906982421875,0.8397064208984375,0.875946044921875
1776223441358905600,17.062905517578123,-0.0831298828125,0.86187744140625,0.8885650634765625
1776223441378756600,17.082756591796876,-0.0906829833984375,0.8096160888671875,0.869781494140625
1776223441398606600,17.102606689453125,-0.0934906005859375,0.796417236328125,0.88330078125
1776223441418456600,17.12245654296875,-0.0954132080078125,0.7993316650390625,0.8523101806640625
1776223441438306600,17.142306640625,-0.08880615234375,0.804443359375,0.7996673583984375
1776223441458156500,17.162156494140625,-0.0828704833984375,0.7857208251953125,0.72528076171875
1776223441478007600,17.182007568359374,-0.05853271484375,0.7558746337890625,0.658905029296875
1776223441497857500,17.201857421875,-0.03411865234375,0.718048095703125,0.5972137451171875
1776223441517707500,17.22170751953125,-0.025115966796875,0.6682586669921875,0.534271240234375
1776223441537557500,17.2415576171875,-0.035430908203125,0.6202392578125,0.48828125
1776223441557407700,17.26140771484375,-0.04010009765625,0.6075439453125,0.4807891845703125
1776223441577257700,17.2812578125,-0.0413055419921875,0.6049346923828125,0.4710235595703125
1776223441597107700,17.301107666015625,-0.0297393798828125,0.622528076171875,0.4810791015625
1776223441616958700,17.320958740234374,-0.007080078125,0.6207122802734375,0.463592529296875
1776223441636808700,17.34080859375,0.01483154296875,0.6206512451171875,0.452911376953125
1776223441656658700,17.36065869140625,0.02850341796875,0.632537841796875,0.46875
1776223441676508700,17.3805087890625,0.02685546875,0.67657470703125,0.52923583984375
1776223441696358400,17.4003583984375,0.0281829833984375,0.7234954833984375,0.5890045166015625
1776223441716208400,17.42020849609375,0.009796142578125,0.7475738525390625,0.6385040283203125
1776223441736059600,17.4400595703125,-0.0520172119140625,0.7115478515625,0.6322479248046875
1776223441755909400,17.459909423828126,-0.109619140625,0.696502685546875,0.6662750244140625
1776223441775759400,17.47975927734375,-0.1647796630859375,0.727630615234375,0.7785491943359375
1776223441795609600,17.499609619140625,-0.1939697265625,0.7723846435546875,0.910919189453125
1776223441815459600,17.51945947265625,-0.201690673828125,0.799713134765625,0.9905548095703125
1776223441835309600,17.5393095703125,-0.1823883056640625,0.81341552734375,1.01861572265625
1776223441855160600,17.55916064453125,-0.1345977783203125,0.8400726318359375,1.0081329345703125
1776223441875010600,17.579010498046873,-0.1133880615234375,0.8401031494140625,0.9391632080078125
1776223441894860500,17.598860595703126,-0.1462249755859375,0.8169403076171875,0.852142333984375
1776223441914710500,17.61871044921875,-0.187774658203125,0.7799224853515625,0.793304443359375
1776223441934560500,17.638560546875,-0.22998046875,0.7279052734375,0.783416748046875
1776223441954410500,17.658410400390625,-0.2449493408203125,0.67559814453125,0.798919677734375
1776223441974260500,17.678260498046875,-0.2347564697265625,0.66925048828125,0.8498077392578125
1776223441994111500,17.698111572265624,-0.248809814453125,0.6677093505859375,0.8671875
1776223442013961500,17.71796142578125,-0.28729248046875,0.67376708984375,0.8563079833984375
1776223442033811500,17.7378115234375,-0.3264312744140625,0.682769775390625,0.8533172607421875
1776223442053661700,17.75766162109375,-0.3665618896484375,0.6907196044921875,0.8648529052734375
1776223442073511700,17.77751171875,-0.3860931396484375,0.645538330078125,0.856689453125
1776223442093361700,17.797361572265626,-0.3285369873046875,0.599822998046875,0.8684844970703125
1776223442113213000,17.817212890625,-0.2372283935546875,0.5412445068359375,0.8961334228515625
1776223442133063000,17.83706298828125,-0.151641845703125,0.472137451171875,0.9145050048828125
1776223442152913000,17.856912841796873,-0.0787811279296875,0.4275054931640625,0.9429168701171875
1776223442172763000,17.876762939453126,-0.01953125,0.4404754638671875,0.9728546142578125
1776223442192612900,17.89661279296875,-0.041229248046875,0.4733428955078125,1.001556396484375
1776223442212462800,17.916462890625,-0.1432952880859375,0.50103759765625,1.0469512939453125
1776223442232312800,17.936312744140626,-0.2334136962890625,0.533843994140625,1.1074371337890625
1776223442252163800,17.956163818359375,-0.3068389892578125,0.5861053466796875,1.1784210205078125
1776223442272013800,17.976013916015624,-0.3468475341796875,0.6280517578125,1.225189208984375
1776223442291863800,17.99586376953125,-0.3903961181640625,0.6258087158203125,1.2322998046875
1776223442311714000,18.015714111328126,-0.402587890625,0.5373992919921875,1.1564178466796875
1776223442331564000,18.03556396484375,-0.359039306640625,0.4882659912109375,1.10675048828125
1776223442351414000,18.0554140625,-0.25048828125,0.5418548583984375,1.0730438232421875
1776223442371264000,18.075263916015626,-0.1985015869140625,0.6024932861328125,1.028961181640625
1776223442391115000,18.095114990234375,-0.1712799072265625,0.6917266845703125,0.9888916015625
1776223442410965000,18.114965087890624,-0.1699371337890625,0.7670745849609375,0.9401092529296875
1776223442430815000,18.13481494140625,-0.1912689208984375,0.831573486328125,0.9265289306640625
1776223442450665000,18.1546650390625,-0.2220458984375,0.85858154296875,0.936553955078125
1776223442470515000,18.174514892578124,-0.2274322509765625,0.8548126220703125,0.9447174072265625
1776223442490365000,18.194364990234376,-0.1977996826171875,0.823516845703125,0.921722412109375
1776223442510215000,18.21421484375,-0.1598358154296875,0.7851409912109375,0.8946685791015625
1776223442530066000,18.23406591796875,-0.1160125732421875,0.7513427734375,0.8604278564453125
1776223442549916000,18.253916015625,-0.0858001708984375,0.7296142578125,0.832183837890625
1776223442569766000,18.273765869140625,-0.071533203125,0.7139739990234375,0.7993621826171875
1776223442589615900,18.293615966796875,-0.061798095703125,0.7232666015625,0.7861328125
1776223442609465900,18.3134658203125,-0.0455322265625,0.7258758544921875,0.757171630859375
1776223442629315800,18.33331591796875,-0.0261077880859375,0.7210540771484375,0.716888427734375
1776223442649165800,18.353165771484374,-0.009613037109375,0.7216644287109375,0.6846923828125
1776223442669016800,18.373016845703123,-0.008697509765625,0.7025146484375,0.634674072265625
1776223442688866800,18.39286669921875,-0.0185089111328125,0.67095947265625,0.5948944091796875
1776223442708716800,18.412716796875,-0.01861572265625,0.6616973876953125,0.58526611328125
1776223442728566800,18.43256689453125,-0.0044708251953125,0.6619873046875,0.57275390625
1776223442748417000,18.4524169921875,0.0104522705078125,0.66168212890625,0.5460968017578125
1776223442768267000,18.47226708984375,0.02838134765625,0.6449127197265625,0.49688720703125
1776223442788117000,18.492116943359374,0.027862548828125,0.601287841796875,0.43780517578125
1776223442807968000,18.511968017578123,0.0446319580078125,0.5755767822265625,0.411102294921875
1776223442827818000,18.53181787109375,0.0503082275390625,0.576690673828125,0.4206390380859375
1776223442847668000,18.55166796875,0.04705810546875,0.613677978515625,0.4841766357421875
1776223442867518000,18.57151806640625,0.0393829345703125,0.6421051025390625,0.5271759033203125
1776223442887368000,18.591367919921876,0.0257110595703125,0.6267852783203125,0.5680694580078125
1776223442907218000,18.611218017578125,-0.0266876220703125,0.6194610595703125,0.665740966796875
1776223442927068000,18.63106787109375,-0.0436859130859375,0.6521759033203125,0.810455322265625
1776223442946919000,18.6509189453125,-0.036407470703125,0.7178802490234375,0.9495086669921875
1776223442966769000,18.670768798828124,-0.0198516845703125,0.7700042724609375,1.0287322998046875
1776223442986619000,18.690618896484374,0.000274658203125,0.8188629150390625,1.0543060302734375
1776223443006469000,18.71046923828125,0.0083770751953125,0.846160888671875,1.0131683349609375
1776223443026319000,18.730319091796876,-0.01922607421875,0.8604888916015625,0.942718505859375
1776223443046168800,18.7501689453125,-0.1019134521484375,0.8618316650390625,0.867095947265625
1776223443066018800,18.770018798828126,-0.195892333984375,0.814361572265625,0.7837066650390625
1776223443085868800,18.789868896484375,-0.26593017578125,0.753448486328125,0.734344482421875
1776223443105719800,18.8097197265625,-0.302001953125,0.728851318359375,0.750091552734375
1776223443125570000,18.829570068359374,-0.2949066162109375,0.7077484130859375,0.7537994384765625
1776223443145420000,18.849419921875,-0.2838134765625,0.6947784423828125,0.7497406005859375
1776223443165270000,18.86927001953125,-0.271728515625,0.7010498046875,0.7670745849609375
1776223443185120000,18.8891201171875,-0.2733306884765625,0.6836395263671875,0.7812957763671875
1776223443204970200,18.90897021484375,-0.2823028564453125,0.6652374267578125,0.8236083984375
1776223443224820200,18.9288203125,-0.2954864501953125,0.646759033203125,0.891998291015625
1776223443244670200,18.948670166015624,-0.263519287109375,0.6125030517578125,0.9651641845703125
1776223443264521200,18.968521240234374,-0.2397308349609375,0.560394287109375,1.0044403076171875
1776223443284371200,18.98837109375,-0.255645751953125,0.511322021484375,1.04534912109375
1776223443304221200,19.00822119140625,-0.281097412109375,0.5042572021484375,1.125213623046875
1776223443324071000,19.02807080078125,-0.2828216552734375,0.5368804931640625,1.193756103515625
1776223443343921000,19.0479208984375,-0.25555419921875,0.5626068115234375,1.183807373046875
1776223443363771000,19.06777099609375,-0.2509918212890625,0.5951995849609375,1.1122894287109375
1776223443383620900,19.087620849609376,-0.2716217041015625,0.616424560546875,1.062103271484375
1776223443403471000,19.10747119140625,-0.303375244140625,0.6339263916015625,1.0475921630859375
1776223443423321900,19.12732177734375,-0.357635498046875,0.66693115234375,1.079193115234375
1776223443443172000,19.147172119140624,-0.4268035888671875,0.657073974609375,1.07000732421875
1776223443463022000,19.16702197265625,-0.45391845703125,0.586822509765625,1.0108795166015625
1776223443482872000,19.1868720703125,-0.444091796875,0.4858856201171875,0.942169189453125
1776223443502722000,19.20672216796875,-0.3856658935546875,0.4885101318359375,0.9567718505859375
1776223443522572000,19.226572021484376,-0.312103271484375,0.565032958984375,0.9620208740234375
1776223443542422000,19.246422119140625,-0.2825927734375,0.6735382080078125,0.9689483642578125
1776223443562272000,19.26627197265625,-0.285400390625,0.780792236328125,0.96435546875
1776223443582123000,19.286123046875,-0.3191986083984375,0.861785888671875,0.9586639404296875
1776223443601973000,19.305972900390625,-0.3513031005859375,0.9215545654296875,0.9769439697265625
1776223443621823000,19.325822998046874,-0.3682098388671875,0.945648193359375,0.9876251220703125
1776223443641673200,19.345673095703123,-0.3527984619140625,0.9366912841796875,0.9959716796875
1776223443661523200,19.365523193359376,-0.304046630859375,0.91827392578125,0.9862060546875
1776223443681373200,19.385373291015625,-0.232574462890625,0.9242706298828125,0.9827423095703125
1776223443701223200,19.40522314453125,-0.1903533935546875,0.9481658935546875,0.97509765625
1776223443721073200,19.4250732421875,-0.1378173828125,0.9933319091796875,0.9967193603515625
1776223443740924200,19.444924072265625,-0.032073974609375,1.0112152099609375,0.968414306640625
1776223443760774100,19.464774169921874,0.073883056640625,0.9888153076171875,0.8942718505859375
1776223443780624100,19.4846240234375,0.1224212646484375,0.917572021484375,0.7847442626953125
1776223443800473900,19.504473876953124,0.116241455078125,0.8492584228515625,0.6877899169921875
1776223443820323800,19.52432373046875,0.06866455078125,0.7856903076171875,0.6044769287109375
1776223443840174000,19.544174072265626,0.0023193359375,0.7213287353515625,0.540679931640625
1776223443860024000,19.564024169921876,-0.057647705078125,0.6685943603515625,0.5069122314453125
1776223443879874000,19.5838740234375,-0.063934326171875,0.6506805419921875,0.477264404296875
1776223443899725000,19.60372509765625,-0.03228759765625,0.6470184326171875,0.4378204345703125
1776223443919575000,19.623574951171875,-0.0149688720703125,0.6301422119140625,0.3868865966796875
1776223443939425000,19.643425048828124,0.0045928955078125,0.617462158203125,0.3392181396484375
1776223443959275000,19.66327490234375,0.0052032470703125,0.59307861328125,0.3019561767578125
1776223443979125000,19.683125,0.0077667236328125,0.59600830078125,0.3006744384765625
1776223443998975000,19.70297509765625,0.01025390625,0.62994384765625,0.324737548828125
1776223444018825000,19.722824951171877,-0.0003814697265625,0.6586761474609375,0.351226806640625
1776223444038675000,19.742675048828126,-0.04296875,0.6423187255859375,0.3780364990234375
1776223444058525200,19.762525146484375,-0.123504638671875,0.6533355712890625,0.489044189453125
1776223444078376000,19.7823759765625,-0.1627197265625,0.719757080078125,0.6634368896484375
1776223444098226200,19.80222607421875,-0.1507110595703125,0.7910919189453125,0.83416748046875
1776223444118076200,19.822076171875,-0.1098175048828125,0.847564697265625,0.9549407958984375
1776223444137926100,19.841926025390624,-0.0661468505859375,0.8878326416015625,1.011383056640625
1776223444157776100,19.861776123046877,-0.0258331298828125,0.8940277099609375,1.01220703125
1776223444177626000,19.881626220703126,-0.0008392333984375,0.8941650390625,0.990814208984375
1776223444197476000,19.90147607421875,-0.00848388671875,0.8929443359375,0.96600341796875
1776223444217326000,19.921326171875,-0.0706329345703125,0.88836669921875,0.928619384765625
1776223444237176000,19.941176025390625,-0.147369384765625,0.876068115234375,0.90264892578125
1776223444257027000,19.961027099609375,-0.193939208984375,0.8701629638671875,0.895233154296875
1776223444276877000,19.980876953125,-0.2286224365234375,0.8725433349609375,0.9039764404296875
1776223444296727300,20.000727294921877,-0.255584716796875,0.8779296875,0.9171905517578125
1776223444316577300,20.020577392578126,-0.2775726318359375,0.8663787841796875,0.9299163818359375
1776223444336427300,20.04042724609375,-0.3056793212890625,0.8477935791015625,0.9598236083984375
1776223444356277200,20.06027734375,-0.357940673828125,0.8121185302734375,1.0038909912109375
1776223444376127200,20.080127197265625,-0.4302215576171875,0.7523040771484375,1.0680389404296875
1776223444395977200,20.099977294921874,-0.4506378173828125,0.67657470703125,1.1310272216796875
1776223444415827200,20.1198271484375,-0.39678955078125,0.61175537109375,1.13067626953125
1776223444435678200,20.13967822265625,-0.342376708984375,0.5672149658203125,1.076416015625
1776223444455528200,20.159528076171874,-0.3056640625,0.5529327392578125,0.9990234375
1776223444475378200,20.179378173828123,-0.2787322998046875,0.551025390625,0.950286865234375
1776223444495228400,20.199228515625,-0.2712860107421875,0.5412445068359375,0.9106597900390625
1776223444515078100,20.219078125,-0.32781982421875,0.525360107421875,0.9004669189453125
1776223444534928100,20.23892822265625,-0.40380859375,0.552093505859375,0.957305908203125
1776223444554778000,20.258778076171875,-0.4859619140625,0.5955352783203125,1.0386199951171875
1776223444574628000,20.278628173828125,-0.55474853515625,0.6168670654296875,1.0855865478515625
1776223444594479000,20.29847900390625,-0.5859527587890625,0.6398773193359375,1.13201904296875
1776223444614329000,20.3183291015625,-0.574554443359375,0.59423828125,1.10552978515625
1776223444634179000,20.338178955078124,-0.5294189453125,0.5653839111328125,1.0819244384765625
1776223444654029000,20.358029052734373,-0.44989013671875,0.6230621337890625,1.0696563720703125
1776223444673879000,20.377879150390626,-0.3817291259765625,0.7291717529296875,1.08831787109375
1776223444693729300,20.397729248046875,-0.312286376953125,0.84893798828125,1.08917236328125
1776223444713579300,20.417579345703125,-0.2396240234375,0.942108154296875,1.0693206787109375
1776223444733429200,20.43742919921875,-0.1849365234375,0.9931640625,1.028564453125
1776223444753279200,20.457279296875,-0.1461944580078125,1.01385498046875,0.98089599609375
1776223444773129200,20.477129150390624,-0.1492767333984375,0.98779296875,0.94012451171875
1776223444792980200,20.496980224609374,-0.15948486328125,0.939422607421875,0.942840576171875
1776223444812830200,20.516830322265626,-0.1606597900390625,0.8964691162109375,0.96026611328125
1776223444832680200,20.53668017578125,-0.124603271484375,0.86474609375,0.931427001953125
1776223444852530200,20.5565302734375,-0.07598876953125,0.8719940185546875,0.8805999755859375
1776223444872380200,20.576380126953126,-0.0590667724609375,0.89959716796875,0.8466796875
1776223444892230400,20.59623046875,-0.05633544921875,0.9022369384765625,0.7803497314453125
1776223444912080400,20.616080322265624,-0.041015625,0.8762969970703125,0.700042724609375
1776223444931930000,20.63593017578125,-0.021575927734375,0.8382110595703125,0.6426544189453125
1776223444951780000,20.655780029296874,-0.002960205078125,0.7888641357421875,0.6023712158203125
1776223444971631400,20.67563134765625,-0.00238037109375,0.7324981689453125,0.56854248046875
1776223444991481000,20.695481201171877,-0.033905029296875,0.689697265625,0.55438232421875
1776223445011331000,20.7153310546875,-0.069580078125,0.6860198974609375,0.558807373046875
1776223445031181000,20.73518115234375,-0.0731353759765625,0.7039794921875,0.557861328125
1776223445051031000,20.755031005859376,-0.059295654296875,0.6881561279296875,0.5130157470703125
1776223445070881000,20.774881103515625,-0.04022216796875,0.6540985107421875,0.45928955078125
1776223445090731300,20.794731201171874,-0.0121917724609375,0.640228271484375,0.420745849609375
1776223445110580500,20.81458056640625,-0.01251220703125,0.6214599609375,0.383453369140625
1776223445130430500,20.834430419921876,-0.00750732421875,0.655364990234375,0.40789794921875
1776223445150280400,20.854280517578125,-0.0018310546875,0.6940765380859375,0.431121826171875
1776223445170131500,20.87413134765625,-0.010040283203125,0.6837158203125,0.4278564453125
1776223445189981400,20.8939814453125,-0.06439208984375,0.6710052490234375,0.4723052978515625
1776223445209831400,20.91383154296875,-0.135223388671875,0.7008209228515625,0.5908966064453125
1776223445229681400,20.933681396484374,-0.1644439697265625,0.7515869140625,0.730804443359375
1776223445249531400,20.953531494140623,-0.1840667724609375,0.7982330322265625,0.861602783203125
1776223445269381600,20.973381591796876,-0.192413330078125,0.8242340087890625,0.9470062255859375
1776223445289231600,20.993231689453125,-0.156890869140625,0.8402099609375,0.9822845458984375
1776223445309081600,21.01308154296875,-0.0818634033203125,0.8468780517578125,0.9395904541015625
1776223445328931600,21.032931640625,-0.0377197265625,0.8573150634765625,0.858001708984375
1776223445348781600,21.052781494140625,-0.0597076416015625,0.8427886962890625,0.7623138427734375
1776223445368632600,21.072632568359374,-0.12554931640625,0.8295135498046875,0.718841552734375
1776223445388482600,21.092482666015623,-0.200897216796875,0.820037841796875,0.7412872314453125
1776223445408332500,21.11233251953125,-0.254425048828125,0.8341522216796875,0.8012847900390625
1776223445428182500,21.1321826171875,-0.3082427978515625,0.848541259765625,0.8596954345703125
1776223445448032500,21.152032470703126,-0.3415679931640625,0.8740692138671875,0.9312896728515625
1776223445467882800,21.1718828125,-0.318572998046875,0.8564453125,0.9579925537109375
1776223445487732700,21.191732666015625,-0.3096466064453125,0.835418701171875,0.979278564453125
1776223445507582700,21.211582763671874,-0.356170654296875,0.806549072265625,1.0234375
1776223445527432400,21.231432373046875,-0.3869171142578125,0.7485198974609375,1.0859222412109375
1776223445547282400,21.251282470703124,-0.386199951171875,0.6548919677734375,1.119110107421875
1776223445567133700,21.2711337890625,-0.3872833251953125,0.5799407958984375,1.149078369140625
1776223445586983400,21.2909833984375,-0.3967437744140625,0.550384521484375,1.1873779296875
1776223445606833400,21.31083349609375,-0.36236572265625,0.524383544921875,1.181396484375
1776223445626683400,21.330683349609377,-0.2978515625,0.50262451171875,1.135528564453125
1776223445646533400,21.350533447265626,-0.26739501953125,0.4899444580078125,1.0926055908203125
1776223445666383600,21.370383544921875,-0.296112060546875,0.488800048828125,1.08428955078125
1776223445686233600,21.390233642578124,-0.337799072265625,0.5104827880859375,1.1201934814453125
1776223445706083600,21.41008349609375,-0.3876953125,0.5391693115234375,1.149322509765625
1776223445725933600,21.42993359375,-0.412994384765625,0.585113525390625,1.1648712158203125
1776223445745783600,21.449783447265624,-0.4158477783203125,0.5981903076171875,1.1244659423828125
1776223445765634600,21.469634521484377,-0.4337310791015625,0.57708740234375,1.0519866943359375
1776223445785484500,21.489484619140626,-0.4130096435546875,0.6243743896484375,1.0218353271484375
1776223445805334500,21.50933447265625,-0.3708953857421875,0.721343994140625,1.0323638916015625
1776223445825184500,21.5291845703125,-0.3387451171875,0.8310546875,1.0494384765625
1776223445845034500,21.549034423828125,-0.328399658203125,0.9300384521484375,1.0689239501953125
1776223445864884700,21.568884765625,-0.333831787109375,0.9956512451171875,1.05401611328125
1776223445884734700,21.588734619140624,-0.357208251953125,1.0480499267578125,1.0540618896484375
1776223445904584700,21.608584716796877,-0.366058349609375,1.0865936279296875,1.0642547607421875
1776223445924434700,21.6284345703125,-0.3529510498046875,1.0957794189453125,1.0779876708984375
1776223445944284400,21.648284423828127,-0.3032073974609375,1.0792999267578125,1.065582275390625
1776223445964135700,21.6681357421875,-0.2460174560546875,1.058502197265625,1.0271148681640625
1776223445983985700,21.687985595703125,-0.194488525390625,1.0507049560546875,0.98779296875
1776223446003835400,21.70783544921875,-0.1566009521484375,1.0653076171875,0.9612884521484375
1776223446023685400,21.727685302734375,-0.130584716796875,1.0557861328125,0.90484619140625
1776223446043535400,21.747535400390625,-0.1206817626953125,1.034271240234375,0.8470306396484375
1776223446063385600,21.767385498046874,-0.1110992431640625,1.0023345947265625,0.788726806640625
1776223446083235600,21.787235595703127,-0.114410400390625,0.95819091796875,0.7302398681640625
1776223446103085600,21.80708544921875,-0.1246337890625,0.8952484130859375,0.652435302734375
1776223446122935800,21.826935791015625,-0.1471099853515625,0.8392791748046875,0.5877532958984375
1776223446142785800,21.846785888671874,-0.1493988037109375,0.809967041015625,0.5507965087890625
1776223446162635500,21.866635498046875,-0.1168060302734375,0.7901458740234375,0.5103607177734375
1776223446182486800,21.88648681640625,-0.0659027099609375,0.75323486328125,0.42620849609375
1776223446202336800,21.906336669921874,-0.0076141357421875,0.70269775390625,0.3134918212890625
1776223446222186500,21.9261865234375,0.0434417724609375,0.6374664306640625,0.212310791015625
1776223446242036500,21.946036376953124,0.056304931640625,0.5836181640625,0.1683349609375
1776223446261886700,21.96588671875,0.06683349609375,0.5996246337890625,0.2280731201171875
1776223446281736700,21.98573681640625,0.0677947998046875,0.5923614501953125,0.271942138671875
1776223446301586700,22.005586669921875,0.0538330078125,0.57421875,0.289276123046875
1776223446321436700,22.025436767578125,0.00262451171875,0.526214599609375,0.295928955078125
1776223446341286700,22.04528662109375,-0.0839996337890625,0.539215087890625,0.4074554443359375
1776223446361136600,22.06513671875,-0.1231842041015625,0.6062164306640625,0.60418701171875
1776223446380987600,22.084987548828124,-0.069580078125,0.6743316650390625,0.777618408203125
1776223446400837600,22.104837646484373,0.018951416015625,0.745147705078125,0.8550567626953125
1776223446420687600,22.1246875,0.0955810546875,0.832794189453125,0.8942108154296875
1776223446440537600,22.14453759765625,0.10992431640625,0.9315185546875,0.9168853759765625
1776223446460387600,22.1643876953125,0.0513916015625,1.0113525390625,0.94427490234375
1776223446480237800,22.18423779296875,-0.06365966796875,1.0687713623046875,0.979583740234375
1776223446500087800,22.204087890625,-0.176605224609375,1.08587646484375,1.0258331298828125
1776223446519937800,22.223937744140624,-0.25390625,1.085205078125,1.0981903076171875
1776223446539787800,22.243787841796873,-0.2923736572265625,1.0614166259765625,1.178009033203125
1776223446559637800,22.2636376953125,-0.306304931640625,1.0285491943359375,1.222015380859375
1776223446579487500,22.283487548828123,-0.3378448486328125,0.9681396484375,1.242034912109375
1776223446599338800,22.3033388671875,-0.3684844970703125,0.90838623046875,1.2823028564453125
1776223446619188700,22.323188720703126,-0.4156494140625,0.82220458984375,1.3269500732421875
1776223446639038500,22.34303857421875,-0.4446258544921875,0.7225799560546875,1.343994140625
1776223446658888700,22.362888671875,-0.4205474853515625,0.6260986328125,1.295257568359375
1776223446678738700,22.38273876953125,-0.3300018310546875,0.546051025390625,1.17266845703125
1776223446698588700,22.402588623046874,-0.244781494140625,0.486541748046875,1.0498504638671875
1776223446718438700,22.422438720703123,-0.2020721435546875,0.4425048828125,0.9743499755859375
1776223446738288600,22.44228857421875,-0.196990966796875,0.432861328125,0.9441070556640625
1776223446758138600,22.462138671875,-0.2223968505859375,0.4362335205078125,0.9432830810546875
1776223446777988600,22.481988525390626,-0.2783203125,0.4617462158203125,0.9831695556640625
1776223446797838600,22.501838623046876,-0.371612548828125,0.482177734375,1.0237579345703125
1776223446817689600,22.521689697265625,-0.45538330078125,0.4904937744140625,1.058807373046875
1776223446837539600,22.54153955078125,-0.5156097412109375,0.526885986328125,1.12451171875
1776223446857389600,22.5613896484375,-0.551361083984375,0.569305419921875,1.191650390625
1776223446877239800,22.58123974609375,-0.566650390625,0.627716064453125,1.2390289306640625
1776223446897089800,22.60108984375,-0.54180908203125,0.60772705078125,1.165313720703125
1776223446916939800,22.620939697265626,-0.4556884765625,0.58935546875,1.07861328125
1776223446936789800,22.640789794921876,-0.375885009765625,0.6824951171875,1.0751800537109375
1776223446956639700,22.6606396484375,-0.3387603759765625,0.7987060546875,1.056427001953125
1776223446976489700,22.68048974609375,-0.2969512939453125,0.9256134033203125,1.0424346923828125
1776223446996339500,22.70033935546875,-0.271209716796875,1.0002593994140625,0.9965667724609375
1776223447016189700,22.720189697265624,-0.2760772705078125,1.0103302001953125,0.949005126953125
1776223447036040700,22.740040771484374,-0.28497314453125,1.01220703125,0.9501190185546875
1776223447055890700,22.759890625,-0.2977752685546875,0.999725341796875,0.973876953125
1776223447075740700,22.77974072265625,-0.28875732421875,0.9839324951171875,0.98779296875
1776223447095590700,22.799590576171877,-0.249053955078125,0.966949462890625,0.9781036376953125
1776223447115440600,22.819440673828126,-0.2011871337890625,0.9291229248046875,0.93011474609375
1776223447135290600,22.83929052734375,-0.180755615234375,0.8953857421875,0.8856048583984375
1776223447155140600,22.859140625,-0.1818084716796875,0.887725830078125,0.8726959228515625
1776223447174990600,22.878990478515625,-0.1682891845703125,0.8861236572265625,0.8608856201171875
1776223447194840600,22.898840576171875,-0.1549224853515625,0.887603759765625,0.8682403564453125
1776223447214690600,22.918690673828124,-0.108001708984375,0.8692169189453125,0.8459320068359375
1776223447234540800,22.938540771484377,-0.0543212890625,0.84564208984375,0.80316162109375
1776223447254390800,22.958390869140626,-0.0250701904296875,0.8092803955078125,0.746978759765625
1776223447274241800,22.97824169921875,-0.0125579833984375,0.78411865234375,0.6861724853515625
1776223447294091800,22.998091796875,0.0888671875,0.7771453857421875,0.6159210205078125
1776223447313941800,23.017941650390625,0.2105560302734375,0.75311279296875,0.57025146484375
1776223447333791700,23.037791748046875,0.243560791015625,0.700714111328125,0.5289764404296875
1776223447353641700,23.057641845703124,0.193267822265625,0.654571533203125,0.50079345703125
1776223447373491700,23.07749169921875,0.1240081787109375,0.6096954345703125,0.459320068359375
1776223447393341700,23.097341796875,0.08673095703125,0.5750274658203125,0.4138946533203125
1776223447413191700,23.117191650390627,0.07073974609375,0.5732574462890625,0.4210357666015625
1776223447433042000,23.1370419921875,0.0915374755859375,0.6165618896484375,0.418914794921875
1776223447452892000,23.156891845703125,0.071502685546875,0.5963134765625,0.35369873046875
1776223447472741600,23.17674169921875,-0.0054779052734375,0.548614501953125,0.32171630859375
1776223447492593000,23.196593017578124,-0.113922119140625,0.5199737548828125,0.352081298828125
1776223447512443000,23.21644287109375,-0.171905517578125,0.5823974609375,0.468353271484375
1776223447532292600,23.236292724609374,-0.167205810546875,0.6717987060546875,0.582000732421875
1776223447552142600,23.256142578125,-0.120391845703125,0.7601470947265625,0.65386962890625
1776223447571992600,23.27599267578125,-0.0894622802734375,0.8394317626953125,0.721099853515625
1776223447591842600,23.295842529296873,-0.058929443359375,0.919403076171875,0.7930908203125
1776223447611692500,23.315692626953126,-0.0560150146484375,0.9703826904296875,0.8491973876953125
1776223447631542800,23.335542724609375,-0.1100616455078125,0.9630279541015625,0.8557586669921875
1776223447651392800,23.355392822265625,-0.1737060546875,0.957916259765625,0.8439178466796875
1776223447671242800,23.37524267578125,-0.250640869140625,0.9638671875,0.870086669921875
1776223447691092700,23.3950927734375,-0.31463623046875,0.97210693359375,0.92974853515625
1776223447710942700,23.414942626953124,-0.3290557861328125,0.9990997314453125,1.00531005859375
1776223447730793700,23.434793701171873,-0.3133544921875,0.9921875,1.0496978759765625
1776223447750643700,23.454643798828126,-0.294525146484375,0.985809326171875,1.08367919921875
1776223447770493700,23.47449365234375,-0.301055908203125,0.9782257080078125,1.119842529296875
1776223447790343700,23.49434375,-0.3325347900390625,0.9478607177734375,1.1483612060546875
1776223447810193700,23.514193603515626,-0.37860107421875,0.896636962890625,1.1735992431640625
1776223447830044000,23.5340439453125,-0.4190521240234375,0.81378173828125,1.1964263916015625
1776223447849894000,23.553893798828124,-0.4205780029296875,0.73626708984375,1.21234130859375
1776223447869743900,23.573743896484373,-0.332763671875,0.6842193603515625,1.2015380859375
1776223447889593600,23.593593505859374,-0.22100830078125,0.6518096923828125,1.1677398681640625
1776223447909443600,23.613443603515623,-0.156829833984375,0.61822509765625,1.11212158203125
1776223447929293600,23.63329345703125,-0.142669677734375,0.5810394287109375,1.0832977294921875
1776223447949143600,23.6531435546875,-0.1907806396484375,0.5305633544921875,1.0686798095703125
1776223447968994600,23.67299462890625,-0.299652099609375,0.49627685546875,1.093658447265625
1776223447988844500,23.692844482421876,-0.411346435546875,0.486846923828125,1.1345977783203125
1776223448008694500,23.712694580078125,-0.528839111328125,0.5000457763671875,1.1880950927734375
1776223448028544800,23.732544677734374,-0.6176605224609375,0.542633056640625,1.249237060546875
1776223448048394800,23.752394775390623,-0.6619110107421875,0.544708251953125,1.2226104736328125
1776223448068244700,23.77224462890625,-0.6410369873046875,0.5143890380859375,1.131866455078125
1776223448088094700,23.7920947265625,-0.53436279296875,0.5683746337890625,1.061767578125
1776223448107944700,23.81194482421875,-0.4351043701171875,0.6973724365234375,1.06585693359375
1776223448127794400,23.83179443359375,-0.3798828125,0.85516357421875,1.0905303955078125
1776223448147644400,23.85164453125,-0.350555419921875,0.9639739990234375,1.068939208984375
1776223448167494700,23.87149462890625,-0.33917236328125,1.010711669921875,1.0369873046875
1776223448187344400,23.891344482421875,-0.3374481201171875,1.0368499755859375,1.0325775146484375
1776223448207194400,23.9111943359375,-0.3299560546875,1.0572967529296875,1.0556640625
1776223448227045600,23.931045654296874,-0.31793212890625,1.101348876953125,1.10302734375
1776223448246895400,23.950895263671875,-0.2914886474609375,1.1473846435546875,1.1257476806640625
1776223448266745300,23.970745361328124,-0.2485198974609375,1.15570068359375,1.084991455078125
1776223448286595300,23.99059521484375,-0.2075347900390625,1.1458282470703125,1.019195556640625
1776223448306445300,24.0104453125,-0.1690216064453125,1.1448822021484375,0.962249755859375
1776223448326295300,24.03029541015625,-0.151275634765625,1.15789794921875,0.9154205322265625
1776223448346145300,24.050145263671876,-0.147735595703125,1.1399993896484375,0.866485595703125
1776223448365995500,24.06999560546875,-0.12652587890625,1.089691162109375,0.7974853515625
1776223448385845500,24.089845458984374,-0.1072235107421875,1.0282745361328125,0.7313690185546875
1776223448405695500,24.109695556640624,-0.106658935546875,0.97125244140625,0.6620635986328125
1776223448425545500,24.12954541015625,-0.1273956298828125,0.9197540283203125,0.597808837890625
1776223448445395500,24.1493955078125,-0.140655517578125,0.8726806640625,0.55548095703125
1776223448465245400,24.169245361328127,-0.124237060546875,0.8466644287109375,0.5238037109375
1776223448485096400,24.189096435546876,-0.091461181640625,0.80596923828125,0.4603118896484375
1776223448504946400,24.208946533203125,-0.06085205078125,0.747772216796875,0.3766632080078125
1776223448524796400,24.22879638671875,-0.0386505126953125,0.65667724609375,0.2725067138671875
1776223448544646400,24.248646484375,-0.0298309326171875,0.5592803955078125,0.1835174560546875
1776223448564496600,24.26849658203125,-0.0129547119140625,0.512969970703125,0.17340087890625
1776223448584346600,24.2883466796875,-0.004638671875,0.5207977294921875,0.21368408203125
1776223448604196400,24.3081962890625,0.0186309814453125,0.5832977294921875,0.297821044921875
1776223448624046300,24.32804638671875,0.006072998046875,0.622406005859375,0.3344573974609375
1776223448643896300,24.347896240234373,-0.07373046875,0.63671875,0.3829345703125
1776223448663746300,24.367746337890626,-0.1449737548828125,0.6907501220703125,0.53253173828125
1776223448683596300,24.38759619140625,-0.1597900390625,0.7689056396484375,0.6938934326171875
1776223448703446300,24.4074462890625,-0.117889404296875,0.843963623046875,0.8490142822265625
1776223448723296500,24.427296630859374,-0.05108642578125,0.9689788818359375,0.9937744140625
1776223448743147300,24.447147216796875,0.0031280517578125,1.02581787109375,1.0815582275390625
1776223448762997500,24.46699755859375,0.06353759765625,1.04278564453125,1.1405181884765625
1776223448782847500,24.486847412109373,0.126007080078125,1.0569610595703125,1.202178955078125
1776223448802697500,24.506697509765626,0.128875732421875,1.0432281494140625,1.2128448486328125
1776223448822547500,24.52654736328125,0.0409088134765625,1.0100250244140625,1.170257568359375
1776223448842397400,24.5463974609375,-0.0669097900390625,1.0288238525390625,1.14178466796875
1776223448862247400,24.566247314453125,-0.1811676025390625,1.0484771728515625,1.0989990234375
1776223448882097400,24.586097412109375,-0.257476806640625,1.0213623046875,1.0223541259765625
1776223448901947400,24.605947509765624,-0.2939605712890625,0.9591217041015625,0.9591217041015625
1776223448921797600,24.625797607421877,-0.2917327880859375,0.8914947509765625,0.9435882568359375
1776223448941647600,24.645647705078126,-0.33001708984375,0.841796875,0.9461822509765625
1776223448961497300,24.665497314453123,-0.4288330078125,0.77276611328125,0.949249267578125
1776223448981347300,24.685347412109376,-0.4979400634765625,0.6523590087890625,0.93511962890625
1776223449001198600,24.705198486328126,-0.495086669921875,0.5271148681640625,0.90704345703125
1776223449021048300,24.72504833984375,-0.4571075439453125,0.4892578125,0.9140472412109375
1776223449040898300,24.744898193359376,-0.4484405517578125,0.491119384765625,0.9222412109375
1776223449060748300,24.764748291015625,-0.4769744873046875,0.5366668701171875,0.959716796875
1776223449080598300,24.784598388671874,-0.5032958984375,0.5841827392578125,1.0325164794921875
1776223449100448300,24.8044482421875,-0.5447540283203125,0.6497344970703125,1.119354248046875
1776223449120298800,24.824298828125,-0.6354827880859375,0.6776580810546875,1.19140625
1776223449140148700,24.844148681640625,-0.7162017822265625,0.66412353515625,1.225128173828125
1776223449159998700,24.863998779296875,-0.7564239501953125,0.6585845947265625,1.2236480712890625
1776223449179848400,24.883848388671876,-0.76580810546875,0.6958465576171875,1.199249267578125
1776223449199698400,24.903698486328125,-0.7011260986328125,0.754425048828125,1.133331298828125
1776223449219548400,24.92354833984375,-0.5887603759765625,0.74444580078125,1.0361480712890625
1776223449239398400,24.9433984375,-0.484283447265625,0.75506591796875,0.9937286376953125
1776223449259248400,24.963248291015624,-0.4182281494140625,0.8460693359375,0.9975128173828125
1776223449279099400,24.983099365234374,-0.3907012939453125,0.9603271484375,1.0064697265625
1776223449298949400,25.002949462890626,-0.3564910888671875,1.0613555908203125,0.9877471923828125
1776223449318799600,25.022799560546876,-0.353271484375,1.0981597900390625,0.9324188232421875
1776223449338649600,25.042649658203125,-0.3728485107421875,1.0532379150390625,0.8853759765625
1776223449358499600,25.06249951171875,-0.3877410888671875,1.07470703125,0.96405029296875
1776223449378349600,25.082349609375,-0.3707275390625,1.1705169677734375,1.0713348388671875
1776223449398199600,25.102199462890624,-0.3276824951171875,1.2568817138671875,1.1010589599609375
1776223449418049500,25.122049560546873,-0.267486572265625,1.2623291015625,1.03570556640625
1776223449437899500,25.1418994140625,-0.1955718994140625,1.229339599609375,0.950775146484375
1776223449457749500,25.16174951171875,-0.132476806640625,1.230712890625,0.9234619140625
1776223449477599700,25.181599853515625,-0.093170166015625,1.2059326171875,0.91192626953125
1776223449497449700,25.20144970703125,-0.0460357666015625,1.1644134521484375,0.8944244384765625
1776223449517299700,25.2212998046875,-0.0121002197265625,1.107330322265625,0.8694305419921875
1776223449537149400,25.2411494140625,0.015533447265625,1.0410308837890625,0.819244384765625
1776223449557000700,25.261000732421873,0.0075836181640625,0.955047607421875,0.7385711669921875
1776223449576850700,25.2808505859375,-0.034912109375,0.900390625,0.680419921875
1776223449596700400,25.300700439453124,-0.14068603515625,0.898895263671875,0.64373779296875
1776223449616550400,25.32055029296875,-0.2526702880859375,0.8810577392578125,0.5723724365234375
1776223449636400400,25.340400390625,-0.251495361328125,0.8815765380859375,0.4729461669921875
1776223449656250400,25.36025048828125,-0.1864471435546875,0.8527374267578125,0.3399658203125
1776223449676100600,25.3801005859375,-0.0881500244140625,0.7584228515625,0.174896240234375
1776223449695950600,25.39995068359375,-0.0015869140625,0.68505859375,0.1021881103515625
1776223449715800600,25.419800537109374,0.069000244140625,0.6973876953125,0.15814208984375
1776223449735650600,25.439650634765623,0.1073455810546875,0.6656341552734375,0.18804931640625
1776223449755500500,25.45950048828125,0.0849456787109375,0.619781494140625,0.2313995361328125
1776223449775350500,25.4793505859375,-0.006866455078125,0.578277587890625,0.309661865234375
1776223449795200500,25.499200439453126,-0.0922088623046875,0.620361328125,0.47027587890625
1776223449815050500,25.519050537109376,-0.1354522705078125,0.7143707275390625,0.6679229736328125
1776223449834901500,25.538901611328125,-0.1531829833984375,0.7989044189453125,0.8306884765625
1776223449854751500,25.55875146484375,-0.1325531005859375,0.840057373046875,0.9200286865234375
1776223449874601700,25.578601806640624,-0.0780487060546875,0.8780517578125,0.943145751953125
1776223449894451700,25.59845166015625,-0.0166168212890625,0.8986053466796875,0.9108734130859375
1776223449914301700,25.6183017578125,0.0328369140625,0.92315673828125,0.874053955078125
1776223449934151700,25.638151611328126,0.0075225830078125,0.935516357421875,0.838653564453125
1776223449954001700,25.658001708984376,-0.077850341796875,0.97442626953125,0.8376312255859375
1776223449973851400,25.677851318359377,-0.1494903564453125,1.025390625,0.855194091796875
1776223449993701400,25.697701416015626,-0.2225341796875,1.1045379638671875,0.9289703369140625
1776223450013551400,25.71755126953125,-0.25189208984375,1.1318817138671875,0.9734344482421875
1776223450033401600,25.737401611328124,-0.260711669921875,1.1160125732421875,1.0017242431640625
1776223450053251600,25.75725146484375,-0.280029296875,1.1167449951171875,1.03363037109375
1776223450073101600,25.7771015625,-0.3541259765625,1.1227569580078125,1.0664825439453125
