time,seconds_elapsed,z,y,x
1776223424399319600,0.103319580078125,-1.1934575051397085,0.06054068568050861,-1.8426631716609
1776223424419170600,0.123170654296875,-0.5073877966016531,-0.45648733818680043,-1.7856554824121296
1776223424439020500,0.1430205078125,-0.48961482402384277,-1.172158112001419,-1.9559607572779059
1776223424458871600,0.16287158203125,-0.29389409900307656,0.002429565234482288,-1.324347592201084
1776223424478721500,0.182721435546875,-0.5462941581010818,1.7046365107178687,-0.6435360964521766
1776223424498572500,0.202572509765625,-0.0042979894548654555,2.0179966499522326,-0.7254334584161639
1776223424518422500,0.222422607421875,0.7482394567251205,1.9165794717431068,0.9752728732459246
1776223424538273500,0.2422734375,1.5620950026988982,1.0998320037201046,2.2317798320166764
1776223424558123500,0.26212353515625,1.4071177914768456,-0.31338468915373086,1.971868812766671
1776223424577974500,0.281974609375,1.334553490525484,-0.10289017337113618,0.9062409842044115
1776223424597824500,0.301824462890625,1.5045967534542082,0.24890637176334857,-0.6627814796701074
1776223424617674500,0.321674560546875,2.1046657563626763,0.4400356773406267,-1.8220505917429923
1776223424637525500,0.341525390625,2.8149533758342264,0.6286372180059552,-2.335249997232854
1776223424657375500,0.36137548828125,3.156108992227912,-0.8103747181206941,-2.0583038181602955
1776223424677226500,0.3812265625,2.8704373626470563,0.32922172523289917,-0.4882613635882735
1776223424697076500,0.401076416015625,2.2922458450257777,1.8159157422497867,0.662849284209311
1776223424716927500,0.420927490234375,2.079283477824926,1.5482444642618298,0.6480246400430798
1776223424736777500,0.440777587890625,1.3475743001401423,1.2221955238461493,1.2448349334165454
1776223424756628500,0.46062841796875,0.43765842681527134,1.375609431274235,2.1570105683669447
1776223424776478500,0.480478515625,0.17862287522554396,1.521645211149752,2.800362248162925
1776223424796329500,0.50032958984375,-1.3518331266283987,1.1077461378455162,2.3429405517354605
1776223424816179500,0.520179443359375,-3.083164752048254,0.8468921386569738,2.1545427169486877
1776223424836030500,0.540030517578125,-3.618113340270519,1.0157874005943537,2.571780287025869
1776223424855880400,0.55988037109375,-3.358673884055018,0.6475020774737,2.3758619936063883
1776223424875730400,0.57973046875,-2.6531746679037806,0.2009258924484253,1.5729492819294333
1776223424895581400,0.59958154296875,-2.3559774357020853,-0.10829115563184022,1.1720099357023834
1776223424915431400,0.619431396484375,-2.219586267006397,-0.07305588386058808,1.072579839657247
1776223424935282400,0.639282470703125,-2.5854905402094124,0.29342180531620976,1.0475307385966182
1776223424955132400,0.65913232421875,-2.1743179692596195,0.43881607241779563,1.3473581731714308
1776223424974983400,0.6789833984375,-1.6513485726445913,0.6064157415866851,1.3430755274161696
1776223424994833400,0.69883349609375,-0.6642810705780983,0.7269833182066678,1.242678486035019
1776223425014684400,0.718684326171875,0.3055108870387077,0.63317895308882,1.0886408937506378
1776223425034534400,0.738534423828125,1.0349106187373398,0.7641615407392383,1.0667299445852636
1776223425054385700,0.7583857421875,1.3525818991690872,0.7590738622114062,1.1476616763874887
1776223425074235400,0.7782353515625,1.9308067345380782,0.7248623805299401,1.3101057163588703
1776223425094085400,0.79808544921875,2.4129613056838513,0.7480866042509675,1.335496178203076
1776223425113936400,0.817936279296875,2.7000182521432636,0.5817468720152974,1.2502540358558296
1776223425133786400,0.837786376953125,2.7296920903950928,0.605214841364324,1.1186996396668254
1776223425153637400,0.857637451171875,2.5458354061692954,0.6576511310443282,0.8168323698274791
1776223425173487400,0.8774873046875,2.679336698642373,0.6279582958310842,0.43930823984891176
1776223425193338400,0.89733837890625,3.2374399524807926,0.49431730262637136,0.4194657675206661
1776223425213188400,0.917188232421875,3.4843946056544777,0.4453218010500073,0.30583982673212884
1776223425233039400,0.937039306640625,3.2410867845505473,0.4214101795867085,0.028005028256773947
1776223425252889300,0.956889404296875,2.3453543348789214,0.4197863777771592,0.18097353000491856
1776223425272739300,0.9767392578125,1.824634178495407,0.8764785908862948,0.6146507782295346
1776223425292590300,0.99659033203125,0.8922954609602689,-0.23090163625627755,-0.3226490688443184
1776223425312440300,1.0164404296875,0.4398118054568767,0.42327889606803654,-0.800854025581479
1776223425332291300,1.036291259765625,0.6263187119305134,0.372184376385808,-0.3982914620667696
1776223425352141300,1.056141357421875,-0.9006798429459333,-1.4639835880368948,-1.6842153617188333
1776223425371992300,1.075992431640625,-0.17656418913006783,-0.8259224158644676,-1.8957637704685328
1776223425391842300,1.09584228515625,-0.35787644957005976,-1.2206062088280916,-3.1052026885941624
1776223425411692300,1.1156923828125,-1.6740701075404882,-1.5913959159851074,-3.4949379192396997
1776223425431543300,1.135543212890625,-2.60871417940855,-1.736648728789389,-3.675988606134057
1776223425451393300,1.155393310546875,-4.231701165443659,-2.1645400870889424,-3.607207038591802
1776223425471244300,1.175244384765625,-5.111985286092758,-2.1326685926623643,-3.6906054527685046
1776223425491094300,1.19509423828125,-5.823754084032774,-1.9269766548559069,-3.6186613295421
1776223425510945300,1.2149453125,-6.175842597851156,-1.6046550644002855,-3.5499665635004636
1776223425530795300,1.234795166015625,-5.457501435783505,-1.362856917206943,-3.5769352344468235
1776223425550646300,1.254646240234375,-4.492117357736825,-1.054847929742187,-3.4573432248607276
1776223425570496300,1.274496337890625,-3.81514923954308,-1.0760440086364746,-2.8949507493957873
1776223425590346200,1.29434619140625,-3.812245919317007,-0.7405379424370825,-2.394775952912867
1776223425610197200,1.314197265625,-3.630843642506003,-0.4396900787733495,-1.6841314828276632
1776223425630047200,1.334047119140625,-3.033821752208471,-0.15215046336352825,-1.3108178101509809
1776223425649898200,1.353898193359375,-2.434543022894859,-0.06630553281754255,-0.7089736142635346
1776223425669748200,1.373748291015625,-1.8702999511271714,0.11908464458584785,0.022223229984939096
1776223425689598200,1.39359814453125,-1.2433458639025687,0.3635068566724658,0.2866948351487517
1776223425709449200,1.41344921875,-0.32506957398951053,0.6558288840532303,0.3784609724372625
1776223425729299200,1.43329931640625,0.5272101029247045,1.056307627031207,0.44815512477979064
1776223425749150200,1.453150146484375,0.9912123467862606,1.365150873363018,0.5705694983102381
1776223425769000200,1.473000244140625,1.2760510326743124,1.7729326328307389,0.8396573650978505
1776223425788851200,1.492851318359375,1.6360510502696037,2.052090350472927,1.1583470287919044
1776223425808701200,1.512701171875,1.8595412412256,2.2684768469035625,1.5192882727600634
1776223425828551200,1.53255126953125,2.1687954064458608,2.4988737485080956,1.8474604889400301
1776223425848402200,1.552402099609375,2.8806255791842936,2.730769948759675,1.885265465068817
1776223425868252200,1.572252197265625,3.5253397795051336,2.9248242018729447,1.3372702021382747
1776223425888103200,1.592103271484375,4.4942438483715055,3.4047283637434242,1.0903791157200933
1776223425907953200,1.611953125,5.371696544986963,3.2700130193054675,0.2794578696325421
1776223425927803400,1.631803466796875,5.731423006337881,4.183757511007785,-0.07720511249452829
1776223425947654100,1.651654052734375,5.828946391978859,4.855132339239121,-0.32170389694869517
1776223425967504400,1.67150439453125,6.366793624252081,5.197480964809656,-0.6470622247517108
1776223425987355100,1.691355224609375,6.69123133007884,5.856018523299694,-0.8728978097900748
1776223426007205000,1.711205078125,6.240651462370157,6.413637208491563,-0.7706295677095651
1776223426027056400,1.731056396484375,5.585307146963477,7.472443666601181,-0.40989655966460703
1776223426046906000,1.750906005859375,5.049683435958624,8.533305303674936,-0.8383890987277031
1776223426066756400,1.77075634765625,3.999767555791139,9.608818566435575,-1.9479788186132907
1776223426086607400,1.790607421875,0.5055763632655144,10.455941591238975,-2.367870702591538
1776223426106457900,1.810457763671875,-0.9882976283833383,11.2411731002748,-0.41041853771209713
1776223426126308900,1.830308837890625,-0.8968927256226539,11.685329072415827,1.267325289905071
1776223426146158800,1.850158935546875,-0.5649623259529472,12.269411401641369,2.38220902454555
1776223426166008800,1.8700087890625,-0.7768018266037106,12.429804208171367,3.8927480275303123
1776223426185859800,1.88985986328125,-0.77106795912683,11.973957798236608,5.9303825671494
1776223426205709800,1.909709716796875,-1.0481272431850432,10.555623616218567,7.180065232858062
1776223426225560800,1.929560791015625,-0.9740542912364005,8.609498316517472,7.536673269927501
1776223426245410800,1.949410888671875,-1.23769236818552,7.048327442926168,7.245634560355544
1776223426265261000,1.969260986328125,-2.250990874573588,6.177172385150194,7.260916885161399
1776223426285111800,1.98911181640625,-3.708141401720047,5.619800368195772,7.349356216114759
1776223426304961800,2.0089619140625,-4.995538588795066,4.984800337159633,7.59178725438416
1776223426324812800,2.028812744140625,-5.903631338346004,3.6713492558956142,8.850261713835597
1776223426344662800,2.048662841796875,-6.166001002794504,1.7509616240411996,10.300507868421077
1776223426364513000,2.068512939453125,-6.004385376471281,-0.4067904103428125,11.11058857203126
1776223426384363800,2.08836376953125,-5.874229887294769,-1.9171534722387789,11.869556343519687
1776223426404214000,2.108214111328125,-5.969773497295379,-3.515644899442792,11.81121404466629
1776223426424064000,2.12806396484375,-4.7599733446419235,-4.678643553432822,10.574385599833727
1776223426443915000,2.1479150390625,-3.0396716472804544,-5.360631545615196,8.645090438902377
1776223426463765000,2.167764892578125,-2.1579507718265054,-6.025791737115383,7.315454531034827
1776223426483616000,2.187615966796875,-2.5599814204216003,-6.800946088773012,6.750714615660906
1776223426503466000,2.207466064453125,-3.2972283584892748,-7.612204019469022,6.3511459732651705
1776223426523316000,2.22731591796875,-3.5976726097881793,-7.715924506184458,5.926524138155579
1776223426543167000,2.2471669921875,-4.308019850492477,-7.1021484649628395,5.776054759746789
1776223426563017000,2.267016845703125,-5.758706150060892,-6.5249570642948145,5.706001564833522
1776223426582868000,2.286867919921875,-7.283591658306121,-5.914581186905503,6.312598508206009
1776223426602718000,2.306718017578125,-8.30018979076147,-4.557068845596909,7.262343118572234
1776223426622568000,2.32656787109375,-9.307434403938055,-2.9130016621321437,8.303439732468128
1776223426642419000,2.3464189453125,-9.949794734609126,-2.024061356818676,8.404569033646583
1776223426662269000,2.36626904296875,-9.508364972561598,-1.9106839839637277,7.366281047430634
1776223426682120000,2.386119873046875,-8.070276288759707,-1.429752817133069,6.234638485690951
1776223426701970000,2.405969970703125,-6.108188280773162,-0.29174130488336086,5.264823731720448
1776223426721820000,2.42581982421875,-4.931549223965406,0.9220996475934982,4.914627315258979
1776223426741671000,2.4456708984375,-4.264793872228265,2.345171964049339,5.974253857579827
1776223426761521000,2.46552099609375,-4.1344910835355515,3.82930460614562,6.741535868427157
1776223426781371000,2.485370849609375,-3.240264946773648,4.8501346770823,6.3696589505553245
1776223426801222000,2.505221923828125,-1.5847705064959823,5.11196248973906,5.887968489789962
1776223426821072000,2.52507177734375,-0.8088491159886121,5.5781438312053675,5.835437507563829
1776223426840923000,2.5449228515625,-2.096396379058808,5.937516072291135,4.694438503935933
1776223426860772900,2.56477294921875,-2.1742384742826224,6.696727589407563,3.663326108437776
1776223426880622800,2.584622802734375,-1.6857400870680808,7.547881477162242,2.483645199716091
1776223426900473900,2.604473876953125,-1.0015466937959194,8.39426040560007,1.4782687184989451
1776223426920323800,2.62432373046875,-0.1945464205443859,9.299640389060974,0.6402040294200182
1776223426940174800,2.6441748046875,0.4865829089820385,9.605445875132084,-0.46750820615589617
1776223426960024800,2.66402490234375,1.5018226125657557,9.696582190084456,-1.2415583959639072
1776223426979874800,2.683874755859375,2.2311761670351027,9.758186121082305,-1.6700637945085763
1776223426999725800,2.703725830078125,2.717107334110141,9.680801268106698,-2.1268594679921864
1776223427019575800,2.723575927734375,3.0607343090534207,9.435646357831358,-2.825254405096173
1776223427039425800,2.74342578125,3.624168987047672,9.338222340911626,-3.4044010314852
1776223427059276800,2.76327685546875,4.4337306352198125,9.440383323225378,-3.8956343966215847
1776223427079126800,2.783126708984375,5.178182974621653,9.681953945273161,-4.180525104957819
1776223427098977800,2.802977783203125,5.6120601293325425,9.432954050007462,-4.7247044628620145
1776223427118827800,2.822827880859375,5.996933891421556,8.922416849464177,-5.616508340913057
1776223427138677800,2.842677734375,6.45579292717576,8.708684666934609,-5.859013028940558
1776223427158528800,2.86252880859375,6.868290024727583,8.835243592923879,-5.764200071302056
1776223427178378800,2.882378662109375,7.398070854923128,8.950660947173834,-5.574254422551393
1776223427198229800,2.902229736328125,7.808346769294142,8.711898952805996,-5.277402058264613
1776223427218079700,2.922079833984375,6.812031546410918,7.96430247015953,-4.481556800755858
1776223427237929700,2.9419296875,5.327402060708403,7.714754877883196,-3.2861165973663327
1776223427257780700,2.96178076171875,4.243146688565612,8.199205451011657,-2.1640046650379894
1776223427277630700,2.981630615234375,2.8739938860848544,8.692789178666471,-1.4696575420200824
1776223427297481700,3.001481689453125,1.772378506079316,8.86588306133747,-0.5645154589682817
1776223427317331700,3.021331787109375,1.0611106433987616,8.898936020633577,0.5602022719442844
1776223427337181700,3.041181640625,0.7863678195893764,8.659263925683497,1.5388707789778708
1776223427357032700,3.06103271484375,0.8536255385652184,8.1626640650779,2.0695120253950354
1776223427376882700,3.080882568359375,0.08284311838150024,7.671929297113418,2.602556241300702
1776223427396733000,3.10073291015625,-1.0692223459228873,7.001545818006992,3.595074994510412
1776223427416583700,3.120583740234375,-1.9869849872253833,5.808066685557365,4.639634900602698
1776223427436434000,3.140433837890625,-2.1919904040724036,4.380746064007282,5.930668398353457
1776223427456284700,3.16028466796875,-2.0181851582616566,3.082155282744765,6.629036447450519
1776223427476134700,3.180134765625,-1.9927257228344677,2.2465514308214187,7.309964116925001
1776223427495985000,3.19998486328125,-2.5553870783686636,1.3566308822989464,7.979831463202833
1776223427515835600,3.219835693359375,-3.0454046379745003,0.42190556188821793,8.30543178306818
1776223427535686000,3.239685791015625,-3.2188515718668698,-0.27238720059394833,8.600374514341354
1776223427555536600,3.25953662109375,-3.499165473806858,-1.1796434993207454,8.581865044182539
1776223427575387000,3.279386962890625,-3.539230942213535,-2.2367770557820794,8.818551985841989
1776223427595236900,3.29923681640625,-2.3320728285014627,-3.3262633143156766,8.934140020483731
1776223427615087900,3.319087890625,-1.3480045082509517,-4.17386447802484,8.316239592808484
1776223427634937900,3.338937744140625,-2.2332991505384445,-4.753889056292176,7.385704709824919
1776223427654788600,3.35878857421875,-5.965561432558298,-4.889937110638618,8.008172007024287
1776223427674638800,3.378638916015625,-8.925570929580926,-5.3750949552536005,9.825593185400962
1776223427694488800,3.39848876953125,-10.400998871695995,-5.57866113307774,11.265332559019326
1776223427714339800,3.41833984375,-10.579365726333856,-4.9195524967014785,11.694269919240474
1776223427734189800,3.43818994140625,-10.154721094870567,-3.858949218302965,11.611593974119424
1776223427754040800,3.458040771484375,-9.49123965023756,-3.84071798056364,10.283519324219226
1776223427773890800,3.477890869140625,-8.578528593236207,-4.299771662107109,8.5026740185678
1776223427793740800,3.49774072265625,-6.843406927883625,-3.5555133839726447,7.522297538572549
1776223427813591800,3.517591796875,-5.325123009860516,-1.8701146576881407,6.901859116852283
1776223427833441800,3.53744189453125,-4.248552931523323,-0.032089082700014114,6.24314503275156
1776223427853292800,3.557292724609375,-3.656514090335369,1.3882763128846882,5.5654860096842045
1776223427873142800,3.577142822265625,-3.5682255660295485,2.4815964504927397,5.106809929281473
1776223427892992800,3.59699267578125,-3.492178683659434,3.2822078994899986,4.851373278966546
1776223427912843800,3.61684375,-3.7879303932279345,3.806669580489397,4.468793765294552
1776223427932693800,3.63669384765625,-4.14909770103693,4.241129503524303,3.8005917218804357
1776223427952544800,3.656544677734375,-4.150025921797752,4.824198856315016,3.1323435012370346
1776223427972394800,3.676394775390625,-3.815770586311817,5.589340932524204,2.1778075649410487
1776223427992246000,3.69624609375,-3.4423651436984537,6.541456948196887,1.3108704171210526
1776223428012095700,3.716095703125,-3.0833944691509005,7.720165212494134,0.718732207211852
1776223428031945700,3.73594580078125,-2.873199813097715,8.592255505293608,0.19404431624114513
1776223428051797000,3.755796875,-2.344637857172638,9.135808840253949,-0.11798165178000926
1776223428071646700,3.775646728515625,-1.9272750532805918,9.641547116082906,-0.304736395534873
1776223428091498000,3.795498046875,-1.622231929884106,9.865484466284514,-0.7299930214166641
1776223428111347500,3.815347412109375,-1.2826695740312337,10.206351913386582,-1.2070727735161781
1776223428131197400,3.835197509765625,-1.0571550376407801,10.171413870996236,-2.2022744821995497
1776223428151048400,3.85504833984375,-0.8703048706874251,10.574517701780795,-2.6791730325132606
1776223428170898400,3.8748984375,-0.5543284114748239,11.171229210954904,-2.964792639645934
1776223428190749400,3.89474951171875,0.31444267377406354,11.833990524619818,-3.5031215179562567
1776223428210599400,3.914599365234375,1.7410212447851896,11.736339128684996,-5.313181227654218
1776223428230450400,3.934450439453125,3.8249788519009944,11.231966880512237,-7.4520754168331615
1776223428250300400,3.954300537109375,6.400170993196964,10.833611705559491,-8.873715070137381
1776223428270150400,3.974150390625,7.630531703320145,10.21267760927677,-8.722645972269772
1776223428290001400,3.99400146484375,7.332406834879517,9.425957907509803,-7.50674165752232
1776223428309851400,4.013851318359375,6.388678123801946,8.264639169430732,-6.847006413680314
1776223428329702400,4.033702392578125,5.420402415966987,7.2223279190480705,-6.675302524062991
1776223428349552400,4.053552490234375,4.115524517259002,6.982052597507834,-6.006279811915755
1776223428369403400,4.0734033203125,3.11066241530478,7.319734984833001,-5.300175031086802
1776223428389253400,4.09325341796875,2.045241799752414,7.63675218527019,-4.564326269379258
1776223428409103400,4.113103271484375,1.1146183617025613,7.78930947586894,-3.3391204578012226
1776223428428954400,4.132954345703125,0.8382862228751182,7.739414102843403,-2.057235896667838
1776223428448804400,4.152804443359375,1.1340642359286546,7.694944261997938,-0.969178209632635
1776223428468655400,4.1726552734375,1.1486220458522438,7.614653166186809,-0.05002689045071602
1776223428488505300,4.19250537109375,0.42928281265795226,7.517836467510461,1.0302566554516552
1776223428508356400,4.2123564453125,-1.121753474279493,6.989867655172944,3.4796021106809376
1776223428528206300,4.232206298828125,-2.464614336031675,5.755608768567442,6.245813375177979
1776223428548056300,4.252056396484375,-2.173983622738719,4.196073387223482,7.238660629689693
1776223428567907300,4.2719072265625,-1.1408622255057095,2.9080262118071314,7.719307134360075
1776223428587757300,4.29175732421875,-0.9102906979866325,1.5395201827973126,7.778035802182555
1776223428607608300,4.3116083984375,-1.6501789443433283,0.4626642732560634,7.82474436186552
1776223428627458300,4.331458251953125,-1.994492586376518,-0.5573229171156883,8.246148403972386
1776223428647309300,4.351309326171875,-1.1212402640603483,-1.8822996010005473,7.61573277811706
1776223428667159300,4.3711591796875,-0.5961147123247384,-3.031994536781311,6.615840865790844
1776223428687009300,4.39100927734375,-1.0419804109930992,-3.717001000002026,6.393256683763862
1776223428706860300,4.4108603515625,-2.011743873167783,-4.391172180953622,6.499920822715759
1776223428726710300,4.430710205078125,-2.661451497861743,-5.121112010878324,6.3366773029297585
1776223428746561500,4.4505615234375,-2.8888790282666683,-5.308018145802617,6.332027431297302
1776223428766411300,4.470411376953125,-3.7365193549424407,-5.415076837030052,6.497263586205244
1776223428786262500,4.490262451171875,-4.954951726862788,-5.826740990889072,7.0878668416321275
1776223428806112500,4.510112548828125,-6.121936235618591,-5.697222630572319,8.264277934902905
1776223428825962200,4.529962158203125,-7.020690078938007,-4.809896190196276,9.530150103390216
1776223428845813500,4.5498134765625,-7.6792545254349704,-4.493159560266137,10.23099535625577
1776223428865663500,4.56966357421875,-8.05686384947896,-4.8736213511317965,10.201122780561446
1776223428885514500,4.589514404296875,-7.483979790616035,-5.33936371665895,8.916486874893307
1776223428905364500,4.609364501953125,-5.965391921210289,-4.520291312819719,6.932969709908962
1776223428925215500,4.629215576171875,-4.432272837626933,-3.228172357919812,5.132267026621103
1776223428945065500,4.6490654296875,-3.6748791835874317,-2.0004507641285656,4.154467119115591
1776223428964915500,4.66891552734375,-3.473990700539946,-0.9780880767971276,3.5424130793809887
1776223428984766500,4.688766357421875,-3.4908933200240133,-0.03683189331293106,3.7416210619956254
1776223429004616400,4.708616455078125,-2.810931280711293,0.9595067104458809,4.269506287702918
1776223429024467500,4.728467529296875,-2.414363573697209,1.5700059219539164,3.9748692613780494
1776223429044317400,4.7483173828125,-2.676598798111081,2.0910656855553387,3.57659650401175
1776223429064167400,4.76816748046875,-3.1828561293780804,2.503002226614952,3.010285393798351
1776223429084018400,4.788018310546875,-3.707003337600827,3.1530583724856376,2.628403799262643
1776223429103869000,4.807868896484375,-3.4267502259373663,3.9202377997413276,2.3442075029313565
1776223429123720000,4.827719970703125,-2.6821143466621638,4.8983869590759275,1.8805343448936938
1776223429143570000,4.84756982421875,-2.256673596385121,5.831643960499763,1.2942781787604092
1776223429163421000,4.8674208984375,-2.3854046057164666,6.51429772311449,0.6917062531203031
1776223429183271000,4.88727099609375,-2.6734493941694497,7.171756254196167,0.47625791432261466
1776223429203121000,4.907120849609375,-2.4281571212500332,7.620410706800222,0.15727379772663116
1776223429222972000,4.926971923828125,-2.132808147263527,7.938153298902511,-0.49671091976463794
1776223429242822000,4.94682177734375,-2.1202537861168382,8.373517477300762,-1.1661731923729182
1776223429262673000,4.9666728515625,-1.9171914661616085,9.06661372347474,-1.6389818430244922
1776223429282523000,4.98652294921875,-1.3246223174892364,9.666839378249644,-2.671649066749215
1776223429302374000,5.006373779296875,-0.6998591644376516,9.847052153015136,-4.023018667519092
1776223429322223900,5.026223876953125,-0.4024631217282265,9.612045127266645,-5.402452333256602
1776223429342073900,5.046073974609375,-0.36962643553130325,9.30889746222794,-6.222804840034246
1776223429361924900,5.0659248046875,-0.38875031126141546,9.305876068580151,-6.201026138946413
1776223429381774800,5.08577490234375,-0.16971476162672042,9.737385909637808,-5.934624442502856
1776223429401625900,5.1056259765625,0.6726350574254989,9.573016600692272,-6.7739025990247725
1776223429421475800,5.125475830078125,1.4928431872963905,8.358895077708363,-7.752032761397957
1776223429441325800,5.145325927734375,1.3730179534763096,7.135918048095703,-7.2486483552187675
1776223429461176800,5.1651767578125,0.4725128825753927,6.4534197683036325,-5.72877629122138
1776223429481026800,5.18502685546875,0.024945640686154364,6.279845993161201,-3.9778701967597003
1776223429500877800,5.2048779296875,0.15721892573423682,6.205680102232098,-2.5378636966377495
1776223429520727800,5.224727783203125,0.5740824018020183,6.002549977737665,-1.7708447206407785
1776223429540577800,5.244577880859375,1.0718402002710847,5.600145235133171,-1.3797282647699116
1776223429560428800,5.2644287109375,0.992300726544857,5.311045969191193,-0.6669412296980619
1776223429580278800,5.28427880859375,0.6533254498649388,5.1393151915669435,0.45540977208316324
1776223429600129800,5.3041298828125,1.1633002672851085,4.194815788377821,0.6163152043104171
1776223429619979800,5.323979736328125,1.4372972411632536,3.3180534121140837,0.4023644105941057
1776223429639830800,5.343830810546875,1.0268144791085272,2.9497163588061928,0.4036369147479534
1776223429659680800,5.3636806640625,0.10164309591948985,2.7012831575125453,1.0965215639978647
1776223429679530800,5.38353076171875,0.27604455405771733,2.0466873223856092,1.8944465503901242
1776223429699381800,5.4033818359375,-0.2574592421837151,1.6623685638308525,3.4600381630331274
1776223429719231700,5.423231689453125,-1.4905565376639365,0.7862415628612041,4.542455213832855
1776223429739082800,5.443082763671875,-1.9324872349709272,-0.1806996814996004,5.359581744301319
1776223429758932700,5.4629326171875,-1.426262198538333,-1.0815829380631445,6.224453776285052
1776223429778782700,5.48278271484375,-1.40541274112463,-2.424389877671003,6.3129609117776155
1776223429798633700,5.5026337890625,-1.8872493323624133,-3.4851737733334303,6.766776108145714
1776223429818483700,5.522483642578125,-2.635927180504799,-4.537175227603316,6.866272839686274
1776223429838335000,5.5423349609375,-2.348411968883872,-4.858357146504521,7.083959897321463
1776223429858184700,5.562184814453125,-1.677890688741952,-5.154495225042105,6.7887161372751
1776223429878035000,5.582034912109375,-1.4708037894457577,-5.597807147574424,5.955997485399246
1776223429897886000,5.601885986328125,-1.8926563059724866,-6.2085553654074666,5.545051124420762
1776223429917736000,5.62173583984375,-2.5050901388049125,-5.824827266222238,5.9453346370875835
1776223429937587000,5.6415869140625,-4.91483189792037,-7.089027702105045,6.033780982303619
1776223429957437000,5.66143701171875,-5.378886164230108,-6.375208401376009,6.139364924803376
1776223429977287000,5.681286865234375,-3.23405089456439,-6.862257758826017,5.552236652010679
1776223429997138000,5.701137939453125,-3.276104906439781,-7.58210815641284,4.035053388705849
1776223430016988200,5.72098828125,-2.9114965182662007,-5.67060701084733,3.193727652004361
1776223430036838000,5.740837890625,-2.294118507029861,-4.6251989634931086,2.504675128263235
1776223430056689000,5.76068896484375,-2.4626550186574456,-3.1416777312934396,2.6764748794704674
1776223430076539100,5.7805390625,-3.1160581368684768,-2.062959535011649,2.901810990554094
1776223430096390000,5.800389892578125,-3.1911507872536777,-1.5115134009748696,2.7606086221843955
1776223430116240100,5.820240234375,-3.348060720103979,-1.2157912097617982,2.4402473720163105
1776223430136090000,5.840090087890625,-3.446407989348471,-1.0628460888892413,2.1229431713312863
1776223430155941000,5.859941162109375,-3.546027470485866,-0.5610638572096824,2.097790025374293
1776223430175791000,5.879791015625,-3.44707171395421,0.20000819308161735,2.471700494900346
1776223430195642000,5.89964208984375,-2.976549420674145,0.8377195289030671,2.317645074698329
1776223430215492000,5.9194921875,-2.3409949706256388,1.4512082776159048,1.570700333958864
1776223430235342000,5.939342041015625,-1.6273323217630384,2.080468303695321,0.7589987511485815
1776223430255193000,5.959193115234375,-1.2143326815165578,2.7636259241789576,0.4096580747336149
1776223430275043000,5.97904296875,-1.322648387067765,3.426225617541373,0.5031652104705572
1776223430294893000,5.99889306640625,-1.6425135242819786,3.998412049528956,0.7403770527869462
1776223430314744000,6.018744140625,-2.027270381993055,4.582224329641461,1.018556280785799
1776223430334594000,6.038593994140625,-2.5615666437864304,5.167095178896188,0.9249462691962719
1776223430354445000,6.058445068359375,-3.1208564770609137,5.9817316461145875,0.7089929034858942
1776223430374295000,6.078294921875,-3.2429888187795877,7.194666589662432,0.9149766638457775
1776223430394145000,6.09814501953125,-3.3511183541089293,8.507378250735998,1.1784119116991758
1776223430413996000,6.11799609375,-3.4171710812091827,8.673514569354056,-0.05939794538617134
1776223430433846000,6.137845947265625,-3.110626759469509,8.467274203884601,-1.8408833025068043
1776223430453696000,6.157696044921875,-2.2154361615896225,8.420702422323822,-3.345293008956313
1776223430473547000,6.177547119140625,-1.3384089969098567,8.477100601372122,-4.40156322658658
1776223430493397000,6.19739697265625,-0.6882628346681594,8.306542374658584,-5.489722035908699
1776223430513248300,6.217248291015625,-0.2973976866772398,7.6297373380720614,-6.532968521314859
1776223430533098000,6.237097900390625,-0.15329324019048363,6.539695783743262,-7.225468555161356
1776223430552948000,6.256947998046875,-0.04872458481364883,5.905632156774401,-6.67237523843944
1776223430572799200,6.27679931640625,-0.10776478453702293,5.783212230286002,-5.282037901371718
1776223430592649000,6.29664892578125,-0.13554244291186332,5.7792392350018025,-4.057303214436769
1776223430612499000,6.3164990234375,-0.20948384090270847,5.93329231711626,-2.970350273773074
1776223430632350200,6.33635009765625,-0.1179143586974591,6.115890525713563,-1.9053677573770285
1776223430652200000,6.356199951171875,0.28300913237333297,5.933937044760585,-1.0880267073750496
1776223430672051200,6.37605126953125,1.0311211633265018,5.499605716541409,-0.7254623922497033
1776223430691901200,6.395901123046875,1.4614251357257366,4.929941204246878,-0.9474316572487353
1776223430711751000,6.4157509765625,1.2388035442978143,4.493177680444717,-1.048892382338643
1776223430731602200,6.435602294921875,0.8440788348019123,4.078759259441495,-0.7828910833895206
1776223430751452000,6.455451904296875,0.6621997342593967,3.579709083074331,-0.2512713473290205
1776223430771302000,6.475302001953125,0.6092901279792189,3.101435737276077,0.484593780991435
1776223430791153200,6.495153076171875,0.49023967792391776,2.649755799371004,1.2705839994400738
1776223430811003000,6.5150029296875,0.03251666046231985,2.248547573074698,2.2435066562980412
1776223430830852900,6.534852783203125,-0.7170620820425451,1.9368506908774374,3.4848353351593016
1776223430850704100,6.5547041015625,-1.9953847129106521,1.105629584082961,4.510986308857798
1776223430870553900,6.574553955078125,-3.657914020261168,-0.1123328322380781,5.2084366585880515
1776223430890404000,6.594404052734375,-4.310358522573114,-1.3102654369652271,6.010705811664462
1776223430910255000,6.614255126953125,-3.8796781180769204,-2.378880172383785,6.602050240847468
1776223430930105000,6.63410498046875,-3.2501988962888717,-3.0874715093314644,7.16251788572967
1776223430949955000,6.653955078125,-2.614270644491911,-3.1932810772806404,8.575364576247335
1776223430969806000,6.67380615234375,-2.0762614996552466,-3.624953999945521,9.188907977756857
1776223430989656000,6.693656005859375,-1.7163748793065547,-4.121864826196432,8.66321470913589
1776223431009507000,6.713507080078125,-2.0268916118085385,-4.538613151451945,7.691942157572507
1776223431029357300,6.733357421875,-3.0813515651464463,-4.841818684157729,7.495245865517854
1776223431049207000,6.75320703125,-3.8982325964212414,-5.020971720737219,7.839937254822254
1776223431069058300,6.773058349609375,-4.327431822448968,-5.097462255221605,8.348663022029399
1776223431088908300,6.792908203125,-4.614717316967249,-5.151662047442794,8.282930028402804
1776223431108757200,6.81275732421875,-4.639748882371187,-5.140990431302786,7.601288657701015
1776223431128608300,6.832608154296875,-4.1434091340065,-4.651528167492151,6.6433332683503625
1776223431148458200,6.852458251953125,-3.5289246522545814,-3.825054547485709,5.544567140296102
1776223431168308200,6.87230810546875,-3.223356482070684,-2.648534733143449,5.186381478646397
1776223431188159200,6.8921591796875,-2.896065140378475,-1.589130309140682,5.138234410592913
1776223431208009200,6.91200927734375,-2.460933601692319,-0.9223024766892194,5.065828515073656
1776223431227859200,6.931859130859375,-2.175834219041467,-0.11176000078618525,5.215410589253902
1776223431247710200,6.951710205078125,-2.339620759662986,0.7887859866470098,5.0744022821515795
1776223431267560200,6.971560302734375,-2.6770710917979477,1.5980945368409156,4.308534814277291
1776223431287410200,6.99141015625,-2.750807359138131,2.2805916475892065,3.468634726464748
1776223431307261200,7.01126123046875,-2.62370891944468,2.825032286778092,2.723019188502431
1776223431327111200,7.031111083984375,-2.296098428800702,3.2855478575676678,2.2142834844231603
1776223431346961200,7.050961181640625,-2.000052704721689,3.757902919232845,1.595906086885929
1776223431366812200,7.070812255859375,-1.7266560348242521,4.483082695148885,0.9675532387793063
1776223431386662100,7.090662109375,-1.5931839684456586,5.33063388223648,0.4199269552916288
1776223431406512400,7.110512451171875,-1.670263700994849,6.1079649934113025,0.0844786106288433
1776223431426363100,7.130363037109375,-1.6452011559307573,6.390490726181865,-0.32397885614335536
1776223431446213000,7.150213134765625,-1.5817641642868518,6.516675558161735,-0.8073959945708513
1776223431466063400,7.1700634765625,-1.7166916901707647,6.750349874001741,-1.3040104682236908
1776223431485914000,7.1899140625,-2.0397148530244826,7.148945871973037,-1.7376251726061105
1776223431505764400,7.209764404296875,-1.987602388471365,7.85174985769093,-1.9280045365989207
1776223431525614300,7.2296142578125,-1.7036954304754732,8.237697971013187,-2.8843852239787577
1776223431545465300,7.24946533203125,-1.5001356823921204,8.03575091882348,-4.064006511467695
1776223431565315300,7.2693154296875,-1.2469956185817719,7.681321979358792,-5.0689048537790775
1776223431585165300,7.289165283203125,-0.9890005159556865,7.51341806654632,-5.670260389366746
1776223431605016300,7.309016357421875,-0.5043348387718201,7.729829112896323,-5.89588057808876
1776223431624866300,7.3288662109375,0.05003043411467224,7.629862425756454,-6.393443730768561
1776223431644716300,7.34871630859375,0.45165889511704443,7.028029335784912,-7.172474047076702
1776223431664567300,7.3685673828125,0.4267348817408085,6.123881524467468,-7.65885061983168
1776223431684417300,7.388417236328125,-0.02397474982738495,5.522534172186255,-6.948374199789762
1776223431704267300,7.408267333984375,-0.567498858693242,5.413880320721864,-5.3233314502686255
1776223431724118300,7.4281181640625,-0.6588666443139314,5.522782593989372,-3.80285908229053
1776223431743968300,7.44796826171875,-0.5175555183401331,5.603776869633793,-2.788088749784231
1776223431763818200,7.467818359375,-0.10833587155640124,5.646993495547771,-2.3098253408581018
1776223431783669200,7.487669189453125,0.2662672564089298,5.721822818821669,-1.906927261778712
1776223431803519200,7.507519287109375,0.33581242873482403,5.526452222412824,-1.4736971727997064
1776223431823369200,7.527369140625,0.1401829621940851,5.165105466383696,-0.9872907894283532
1776223431843220200,7.54722021484375,-0.07394428406767546,4.538437502624094,-0.6666577365815639
1776223431863070200,7.5670703125,-0.2094166574180126,3.891734174312651,-0.22989655086696145
1776223431882920200,7.586920166015625,-0.25689795503914353,3.3853321738779543,0.4277490272194147
1776223431902770200,7.606770263671875,-0.34205103086344896,3.0365719276994465,1.2039572718441485
1776223431922621200,7.62662109375,-0.5901572652250529,2.676863002005219,2.1207214036285875
1776223431942471200,7.64647119140625,-1.0241541738580913,2.294039158183336,2.9996155312240123
1776223431962321400,7.6663212890625,-1.466245103228092,1.6563000575721263,3.898527779975533
1776223431982172200,7.686172119140625,-2.35298526814878,1.124850417381525,4.979238611379266
1776223432002022100,7.706022216796875,-3.6262434552341696,0.09579670797884464,5.940423484170436
1776223432021872400,7.725872314453125,-4.0163732381552455,-1.004274072933197,7.316751585108041
1776223432041723100,7.74572314453125,-3.3804835648030043,-2.239717200887203,8.823000197422504
1776223432061573400,7.765573486328125,-2.9317303279995914,-3.4272868170320985,9.814189163333177
1776223432081423400,7.78542333984375,-2.2968600608229637,-3.9518250703990456,10.394110865747928
1776223432101274600,7.805274658203125,-0.9617162031888962,-3.9624616152256724,10.023355645382404
1776223432121124900,7.825124755859375,-0.07477850640211253,-4.235332799944281,8.894319466748833
1776223432140974800,7.844974853515625,-0.18243571151196955,-4.708291088199616,8.232810783493518
1776223432160824800,7.864824951171875,-0.4751712515970692,-4.647808270186186,8.800483245187998
1776223432180675800,7.88467578125,-1.1138403630673885,-4.636554470244049,9.392892673254012
1776223432200525800,7.90452587890625,-1.7309546088010073,-4.8491895051866765,8.91734086137414
1776223432220375800,7.924375732421875,-2.0926590922266244,-4.950213592424989,7.797462971708178
1776223432240226800,7.944226806640625,-1.9214625676095485,-4.690063357591629,6.623208179688453
1776223432260076800,7.964076904296875,-1.4825614472568034,-3.5056583429574966,6.13898323200941
1776223432279926800,7.9839267578125,-1.4317904604405163,-2.0691730026990176,5.894045763877034
1776223432299777800,8.00377783203125,-1.5053893651366232,-0.8472317458748817,5.479311701053381
1776223432319627800,8.023627685546876,-1.6957412566006183,-0.06466214952468871,5.157986574289202
1776223432339477800,8.043477783203125,-1.9312059629887341,0.4074585188627243,4.907722942698001
1776223432359327700,8.06332763671875,-2.294259522935748,0.7396873169571161,4.568261270740628
1776223432379178800,8.0831787109375,-2.3218080395966765,1.0456605608105658,4.183892535564303
1776223432399028700,8.10302880859375,-2.008958480232954,1.5435960539340972,3.751998663625121
1776223432418878700,8.122878662109375,-1.6496528746426105,2.2385808903336524,3.0517770956158636
1776223432438729700,8.142729736328125,-1.7107845119535923,3.2385207334548234,2.3621768748641014
1776223432458579700,8.162579833984376,-2.1477058566659686,4.121903404641151,1.5473574522942304
1776223432478429700,8.1824296875,-2.6588340088397264,4.9807788265585895,0.7102063709288835
1776223432498280700,8.20228076171875,-3.163911774933338,5.653708483016491,-0.17621289147436617
1776223432518130700,8.222130615234375,-3.2146225559949873,6.129277830553055,-1.1008727449446916
1776223432537980700,8.241980712890625,-2.9139141008019447,6.35758155927062,-2.0147645361632107
1776223432557831000,8.261830810546876,-2.5679145515084265,6.528236816617846,-2.829744117730856
1776223432577681700,8.281681640625,-2.2740192834615707,6.4826704127073285,-3.532248243719339
1776223432597532000,8.301531982421874,-2.0915449935048818,6.618046266880631,-3.958098743841052
1776223432617382000,8.3213818359375,-1.7242010428875685,6.988951709371805,-4.325497639515996
1776223432637231900,8.34123193359375,-1.2184849788904188,7.190655015933514,-4.938579853254557
1776223432657083000,8.361082763671876,-0.6759627405434846,7.209384266322851,-5.668676335045695
1776223432676932900,8.380932861328125,-0.16838497432768343,7.272704938110709,-6.169568924409151
1776223432696782800,8.400782958984376,0.19468084231270477,7.536236632075905,-6.046268707954884
1776223432716633900,8.4206337890625,0.43977965675294395,7.468347337198257,-5.944995029869675
1776223432736483800,8.44048388671875,0.6347329045325517,7.385773098886013,-5.771906992417573
1776223432756333800,8.460333740234375,0.5357902632107958,6.8379504160434,-6.0409472206711765
1776223432776183800,8.480183837890625,0.5109686142304912,5.88183743968904,-6.437050817304849
1776223432796034800,8.500034912109374,0.4904828390300274,5.215848396149277,-5.827541785877942
1776223432815884800,8.519884765625,0.3379541900038719,5.114826646998524,-4.235249213314056
1776223432835734800,8.53973486328125,0.35409400842189787,5.270006102794408,-2.450069093328714
1776223432855585800,8.559585693359375,0.5935884817827493,5.234627915421128,-1.1273013176649809
1776223432875435800,8.579435791015625,0.841924798573181,5.090990428858995,-0.4027794211357832
1776223432895285800,8.59928564453125,1.0169978723626583,4.609309904965758,0.011068506503105162
1776223432915135700,8.6191357421875,1.0188222382456065,4.190923749375343,0.48625674576759337
1776223432934986800,8.63898681640625,0.6192629482001066,3.5068984061464663,0.7882377051144838
1776223432954836700,8.658836669921875,0.15934249375946818,2.7327088078677653,1.156486495617032
1776223432974687000,8.67868701171875,-0.23944230478219686,1.9143384148180485,1.4743120898276567
1776223432994537700,8.698537841796876,-0.1910259182680398,1.275114044085145,1.8942957437425851
1776223433014388000,8.718387939453125,-0.010178864187002182,0.7965688956081867,2.2010884872853755
1776223433034238000,8.738238037109374,-0.0377097721260041,0.47528176276683803,2.663401462885737
1776223433054088000,8.758087890625,-0.4663771197667345,0.14074410320818423,3.256291367945075
1776223433073939000,8.77793896484375,-0.9013158027619123,-0.32211013966202734,3.9947932745099064
1776223433093789000,8.797788818359376,-1.2754302704274654,-0.9780348853051661,4.745454405423999
1776223433113639200,8.81763916015625,-1.500199395278096,-1.747195549505949,5.698648863983154
1776223433133489200,8.8374892578125,-1.6273972036927937,-2.5072546233624218,6.587954495477676
1776223433153340200,8.857340087890625,-2.087652662241459,-3.3801848741173743,7.101060669726133
1776223433173190100,8.877190185546874,-2.214294005817175,-3.8803509027719496,7.628138670703768
1776223433193040100,8.8970400390625,-1.8696973090589046,-3.837121417376399,7.968561296647787
1776223433212890000,8.91689013671875,-1.3562544502019882,-3.896837927192449,7.699240497887134
1776223433232741000,8.9367412109375,-0.8720622357487678,-4.135453206565976,7.208228082025051
1776223433252591000,8.956591064453125,-0.9256441883325576,-4.167070580101013,7.39357412802577
1776223433272441000,8.976441162109374,-1.3442939632952213,-3.6186440861463542,7.993011847293377
1776223433292291000,8.996291015625,-1.8208078982055187,-3.306211875411868,7.881354137837886
1776223433312142000,9.01614208984375,-2.1913293098151683,-3.748098733577132,6.783662361016869
1776223433331992000,9.035991943359376,-2.3329425970733166,-3.995092549717426,5.8310664528727525
1776223433351842000,9.055842041015625,-2.187788276207447,-3.4937276666671035,5.156624638286233
1776223433371692300,9.0756923828125,-1.9329729726612568,-2.5505893226981162,4.679667051261664
1776223433391543000,9.09554296875,-1.8187328454971312,-1.5322037223041056,4.130306491327286
1776223433411393300,9.115393310546875,-1.8176041337281466,-0.7252689155042171,3.5687270858108997
1776223433431243300,9.1352431640625,-1.842389030894637,0.04893032738566398,3.463257709601521
1776223433451093200,9.15509326171875,-1.660440810638666,0.7184083820849657,3.7747003247767683
1776223433470944300,9.1749443359375,-1.5664543669521809,1.0997352653473615,3.933379897648096
1776223433490794200,9.194794189453125,-1.5612088675141333,1.2569716536730526,3.676838500961661
1776223433510644200,9.214644287109374,-1.6258435445100068,1.5704519121557474,3.287959010362625
1776223433530494000,9.234493896484375,-1.6200550242364407,2.369449496215582,2.7083792532533404
1776223433550345200,9.25434521484375,-1.5294693289041519,3.759344350212812,2.4289842197239397
1776223433570195200,9.2741953125,-1.1986755320489406,5.019949976474046,1.9649153403669595
1776223433590045000,9.294044921875,-0.7431032628804445,5.538920074319839,0.8479945469409227
1776223433609895000,9.31389501953125,-0.6302548823356628,6.0345367691069836,-0.33664018479585645
1776223433629746200,9.33374609375,-0.8538561324506998,6.591974252513051,-1.433394973027706
1776223433649596000,9.353595947265624,-0.994184713660553,6.97213735269308,-2.5714970861703157
1776223433669446000,9.37344580078125,-1.0565524686377494,6.882457666289806,-3.9471354512780903
1776223433689296100,9.393296142578125,-0.8906482782751322,6.715499509894848,-4.934968092498183
1776223433709147000,9.41314697265625,-0.4917676912087947,6.751342392170429,-5.487848058730363
1776223433728997000,9.4329970703125,-0.044964346364140505,6.873429725703597,-5.823251979729533
1776223433748847000,9.45284716796875,0.2061012492597103,7.014427511411905,-6.140062843939662
1776223433768697000,9.472697021484375,0.3566595480609685,6.737731215447187,-6.612784985351562
1776223433788548000,9.492548095703125,0.5098773483950645,6.51127574494481,-6.745022541499138
1776223433808398000,9.512398193359376,0.5936768176533281,6.528536676347255,-6.327652869474887
1776223433828248000,9.532248046875,0.8977151479214429,6.699868225520849,-5.75453149472475
1776223433848098000,9.55209814453125,1.1539046624302864,6.142403269585967,-5.587511963531375
1776223433867949000,9.571948974609375,1.0417881763566286,5.0951960638552904,-5.373205780506134
1776223433887799000,9.591799072265625,0.6655711103886366,4.609873676328361,-4.320495885705948
1776223433907649000,9.61164892578125,0.5476917499393225,4.5838522231042385,-2.8916946702092883
1776223433927499000,9.6314990234375,0.6324146907180548,4.663801081348955,-1.604492713445425
1776223433947350000,9.65135009765625,0.80542842082493,4.626222753582894,-0.753751498144865
1776223433967200000,9.671199951171875,0.985592168816924,4.406772485667467,-0.3597650397956371
1776223433987050000,9.691050048828124,0.9766267720729112,4.1302912937581535,-0.03634615562260151
1776223434006900000,9.71089990234375,0.7376040078770368,3.7270831258162853,0.14786650243401528
1776223434026751000,9.7307509765625,0.24684118286184964,3.1709213614344596,0.10283318248689174
1776223434046601000,9.75060107421875,-0.502287258592248,2.493590839669108,-0.007048164945840835
1776223434066451200,9.770451171875,-1.0649112777907401,1.8151199156969784,0.3319721929848194
1776223434086301200,9.79030126953125,-1.222397110832855,1.330004741179943,1.1851771680504084
1776223434106150400,9.810150390625,-1.0078332267194985,0.9532868130177259,2.175927158021927
1776223434126001400,9.83000146484375,-0.8106611338466405,0.6436603073537349,2.915985061857104
1776223434145851400,9.849851318359375,-0.9051946900218725,0.2150508639127016,3.438041435280442
1776223434165701400,9.869701416015625,-1.3211474809855221,-0.4249234484046697,3.9609968033701177
1776223434185551400,9.88955126953125,-1.329696698144078,-1.1474854430377484,4.803339023637771
1776223434205402400,9.90940234375,-1.2161094819307328,-1.8415268611073492,5.765213047736883
1776223434225252400,9.92925244140625,-1.3362982883661985,-2.8725077391803264,6.678240331080556
1776223434245102300,9.949102294921875,-1.7789163834154604,-3.4639065288990736,8.117403950637579
1776223434264952300,9.968952392578124,-2.208973103055358,-3.462857312107086,9.15510858400762
1776223434284803300,9.98880322265625,-2.588932205095887,-3.4066970334678888,9.110834557995199
1776223434304653300,10.0086533203125,-2.858939817076921,-3.420614499661326,8.438848904389143
1776223434324503300,10.02850341796875,-3.070771718943119,-3.428853335696459,7.984585379731655
1776223434344353500,10.048353515625,-3.399617304340005,-2.8109008855730293,8.204460302799939
1776223434364203500,10.06820361328125,-3.8005993206650017,-2.2974720552414656,8.327690376627444
1776223434384054500,10.088054443359376,-3.9404268935501574,-2.4256986221820114,7.658648959779739
1776223434403904500,10.107904541015625,-3.7385026377141473,-3.3506256021559238,6.110950731223821
1776223434423754500,10.12775439453125,-3.1728572979331013,-3.7243899412095542,5.075294847077131
1776223434443604500,10.1476044921875,-2.2328572519898415,-2.4593717592030764,4.888564945502579
1776223434463454500,10.167454345703124,-1.6474673472970722,-1.299295714661479,4.452939193558692
1776223434483305500,10.187305419921875,-1.236631460955739,-0.3169908969521522,3.6570009970694777
1776223434503155500,10.207155517578125,-0.9685417383600026,0.41317338937819004,3.184842334759235
1776223434523005400,10.22700537109375,-0.48871875196695325,0.7992150262027978,2.737047129333019
1776223434542855400,10.24685546875,-0.5958815611559898,1.0294657973349093,2.614415605920553
1776223434562706400,10.26670654296875,-1.3833978931933641,1.3506909708559511,2.4939988359481093
1776223434582556400,10.286556396484375,-2.2225568072497843,1.7290058128207921,2.2399124311983583
1776223434602406400,10.306406494140624,-2.6241297752052546,2.3917542670041323,1.8806822289317846
1776223434622256600,10.326256591796875,-2.6268893030464646,3.1890222507923838,1.4551777657687663
1776223434642106600,10.346106689453125,-2.1014479633599517,4.120221735164523,1.024395654463768
1776223434661957400,10.365957275390626,-1.5988818878263233,4.891814302687346,0.3482213169962168
1776223434681807600,10.3858076171875,-1.1731143898129464,5.586853207361698,-0.3559767534285784
1776223434701657600,10.40565771484375,-0.9058721508920192,6.114229899024963,-1.0829162324935198
1776223434721507600,10.425507568359375,-0.7611247303266078,6.43572629070282,-1.8188269535213708
1776223434741357600,10.445357666015624,-0.6625303544532507,6.668623776951432,-2.594743521723151
1776223434761208600,10.46520849609375,-0.6143096366416663,6.749667736956477,-3.156231741824746
1776223434781058600,10.48505859375,-0.5768979706794023,6.989376656785607,-3.4403602336168286
1776223434800908500,10.504908447265626,-0.3101683574557304,7.3710180128246545,-3.7802357470721004
1776223434820758500,10.524758544921875,-0.0323772519916296,7.539832610741257,-4.273063687923551
1776223434840609500,10.544609619140624,0.25331191324591634,7.402159001019597,-4.90981494654119
1776223434860459500,10.56445947265625,0.7318531162001192,7.158686344742774,-5.3106823965758085
1776223434880309500,10.5843095703125,1.3142840249568224,6.965464450800418,-5.371800005361438
1776223434900159200,10.6041591796875,2.177394600225985,6.8834770724654195,-5.448021075254679
1776223434920009500,10.624009521484375,3.1535131305158135,6.001486732420325,-6.43188247475624
1776223434939860500,10.643860595703124,3.8275001870721574,4.708511160691082,-7.534236982691287
1776223434959710500,10.66371044921875,3.0617922936737534,3.9313393317312,-7.386999425810575
1776223434979560400,10.683560546875,1.657964191392064,4.173486292362213,-5.909381280174851
1776223434999410400,10.703410400390625,0.6023445466250181,4.813752281102538,-4.1673733624398706
1776223435019260400,10.723260498046875,-0.1305897889405489,5.363439004251361,-2.8217829295933243
1776223435039111400,10.743111328125,-0.5186351668030024,5.449571811828017,-2.049526052942872
1776223435058961400,10.76296142578125,-0.4725193123161793,5.611118464568257,-1.2203829214662312
1776223435078811400,10.782811279296874,-0.2989607347428799,5.341201453480124,-0.6001017361342906
1776223435098661400,10.802661376953125,-0.09884951967820525,4.689763497862219,-0.18104221132695675
1776223435118511900,10.822511962890625,-0.0655207391154021,3.9267356373280284,0.21977613886892794
1776223435138363000,10.84236279296875,-0.2742231107842177,3.162532303273678,0.6061626436084508
1776223435158212900,10.862212890625,-0.442606989133358,2.6344261282920836,1.3510744172155855
1776223435178062800,10.882062744140624,-0.82159804985933,2.09264798631072,2.0744974125921725
1776223435197912800,10.901912841796875,-1.0879209819782525,1.8651824619829653,2.927460395595431
1776223435217763000,10.92176318359375,-1.2149210758637636,1.535090091395378,3.472096849617362
1776223435237613800,10.94161376953125,-1.560612655186653,1.1264157670021056,3.8754257213294503
1776223435257463800,10.9614638671875,-2.243568031096458,0.43229426943361754,4.402403769063949
1776223435277314000,10.98131396484375,-2.7784757027864453,-0.5344850623637437,5.395177958339453
1776223435297164000,11.0011640625,-2.8832366384655237,-1.5261819777965544,6.62961103246808
1776223435317014000,11.021013916015624,-2.775635510924458,-2.515281277951598,7.584178532946109
1776223435336865000,11.040864990234375,-2.2711393441110848,-3.1690619973033667,8.067920665544271
1776223435356715000,11.060715087890625,-1.411656603950262,-3.2844998098194598,8.232730119472741
1776223435376565000,11.08056494140625,-0.7275029581665993,-3.2126082935631275,7.829641486257314
1776223435396415000,11.1004150390625,-0.740280606675148,-3.4876813722401856,7.232524318891763
1776223435416265000,11.120264892578126,-1.3211936582148074,-3.263739930385351,7.405835643705725
1776223435436116000,11.140115966796875,-2.2640812422931194,-3.3015567430824038,7.611500839635729
1776223435455966000,11.159966064453124,-3.0060172149598596,-3.7184932843863963,7.283174309676885
1776223435475816000,11.17981591796875,-3.666493048036098,-4.7836067336857315,6.626736353814602
1776223435495666000,11.199666015625,-3.924083076992631,-4.782584404900669,6.942302186399698
1776223435515516000,11.219515869140626,-3.547907000622153,-3.7803883072853086,7.312403326770663
1776223435535366000,11.239365966796875,-2.814240259128809,-2.3372914399325846,7.038257299810647
1776223435555217200,11.259217041015624,-2.267778343245387,-1.1379717647612093,6.431413688200712
1776223435575067000,11.27906689453125,-2.113756240791082,-0.23615035056471823,5.6522506854236125
1776223435594916900,11.298916748046874,-2.5252824474841353,0.34937516320645806,5.0425680509954685
1776223435614766800,11.318766845703125,-3.103693160814047,0.9420961414396762,4.7343671942204235
1776223435634616800,11.338616943359375,-3.395121746486425,1.557380833658576,4.545053998154401
1776223435654467800,11.3584677734375,-2.7949375927656885,2.256743154489994,4.052700104555488
1776223435674317800,11.37831787109375,-2.0405320146262644,2.811830275377631,2.9720448027312756
1776223435694167800,11.398167724609374,-1.6163281126677989,3.5934359951317307,1.9388895032286644
1776223435714017800,11.418017822265625,-1.4260726673156021,4.6036271831542255,1.1304144812494517
1776223435733867800,11.43786767578125,-1.1954425414770842,5.646724030956626,0.4114952270328998
1776223435753718000,11.457718017578125,-0.8938076190888881,6.169351482266188,-0.8052566444545983
1776223435773568800,11.47756884765625,-0.6796937437653541,6.363190631324052,-2.0504151107370854
1776223435793419000,11.4974189453125,-0.6762544169664383,6.364212375587225,-3.115274293014407
1776223435813269000,11.51726904296875,-0.7470218976289034,6.121531746470928,-3.9211727425038814
1776223435833119000,11.537118896484374,-0.7940045980781316,6.073226857507229,-4.260190762346983
1776223435852969000,11.556968994140625,-0.6697119365204125,6.456652174353599,-4.1554362564086915
1776223435872820000,11.576820068359375,-0.38458142807893453,6.80626465344727,-4.304300537708402
1776223435892670000,11.596669921875,-0.07869768913984299,6.870907513749599,-4.836854924270511
1776223435912520000,11.61652001953125,0.2582973004430532,6.761176972964406,-5.401700053584575
1776223435932370000,11.636369873046876,0.5202174675583839,6.4389586967527865,-6.100217740285396
1776223435952220000,11.656219970703125,0.8119137642562388,6.400373237770795,-6.288391118666529
1776223435972070000,11.67606982421875,1.0432979233324526,6.504732022389769,-6.302644100424647
1776223435991921000,11.6959208984375,1.0426474235344678,6.111845634236931,-6.468875111588836
1776223436011771000,11.71577099609375,0.6396107397019862,5.475351565250754,-6.4167363435506815
1776223436031620900,11.735620849609376,-0.17943762567453087,5.131089799535274,-5.645830881509185
1776223436051471000,11.75547119140625,-0.5536655636519193,5.227264693176746,-4.489242094561457
1776223436071321000,11.775321044921874,-0.5516500591110438,5.223455948543548,-3.3977748913437127
1776223436091171000,11.795171142578125,-0.23938275661468505,5.095490662887692,-2.549002930289507
1776223436111022000,11.81502197265625,0.15317176923528314,4.8519265289351345,-1.9893483553558586
1776223436130872000,11.8348720703125,0.5671767871320247,4.689745962205529,-1.6428934635102748
1776223436150722000,11.85472216796875,0.7355952253378927,4.56904043841958,-1.3068418922573328
1776223436170572000,11.874572021484376,0.6981685810022056,4.027795672662556,-1.1311305205643176
1776223436190422000,11.894422119140625,0.7425963362716138,3.411690603971481,-0.8738865285664796
1776223436210272000,11.91427197265625,0.6035593292422592,2.8027000434607268,-0.46379240050315856
1776223436230123000,11.934123046875,0.27693185828626155,2.458223173689842,0.20742928299307822
1776223436249973000,11.953972900390625,-0.1736193678498268,2.2166700872987506,1.1230027436882257
1776223436269823000,11.973822998046876,-0.4273685034692287,2.088946209183335,2.163850351259112
1776223436289673200,11.993673095703125,-0.37955768163278697,1.7139339158952236,2.969417961359024
1776223436309523200,12.013523193359376,-0.403563995642215,1.2519564558595417,3.5842104861468074
1776223436329373200,12.033373291015625,-0.7572597985267638,0.8377297580361366,4.1428409787297245
1776223436349224200,12.05322412109375,-1.4180365142457185,0.15078326666355132,4.72279190723896
1776223436369074200,12.07307421875,-2.0388252107083797,-0.7109995671331882,5.673531958383322
1776223436388924200,12.092924072265625,-2.3719734617352484,-1.4869254876852034,7.015760221320391
1776223436408774100,12.112774169921876,-2.616746679216623,-2.0721435429424044,8.137572293919325
1776223436428624100,12.1326240234375,-2.846312390694022,-2.6370576458394526,8.836724186870455
1776223436448473900,12.152473876953126,-2.7478911794304848,-3.117452221575379,9.515767357772589
1776223436468325000,12.1723251953125,-2.673759775292873,-3.9132238293260335,9.58057271516025
1776223436488175000,12.192175048828124,-2.981635053375363,-4.367178141903877,9.723519881370663
1776223436508024800,12.21202490234375,-3.2859675442844627,-4.135423980471492,10.093769490301609
1776223436527875000,12.231875,-3.47064548176527,-4.201515286016464,9.583975801602005
1776223436547725000,12.25172509765625,-3.3968051695287227,-4.492477423220873,8.207930609259009
1776223436567575000,12.271574951171875,-3.1222242582827806,-4.303716600340604,7.09914519149363
1776223436587426000,12.291426025390624,-2.999823621016741,-3.3400007477670908,6.565289074683189
1776223436607276000,12.311276123046875,-2.875309937119484,-2.1200135476201774,6.11160656478405
1776223436627126000,12.3311259765625,-2.55278303335011,-0.6824637930005788,5.735307738816738
1776223436646976000,12.35097607421875,-2.3854209723293778,0.42686172299087044,5.127701910662651
1776223436666826000,12.370825927734375,-2.330110003995895,1.2082026543289421,4.630645538461208
1776223436686676000,12.390676025390626,-2.1254478476285934,2.2496453051835297,4.417973094117642
1776223436706526000,12.41052587890625,-1.9377070154458282,3.2371739950209855,3.9495618016421794
1776223436726377000,12.430376953125,-1.7765514078497886,4.092707120773196,3.151471980077028
1776223436746227000,12.45022705078125,-1.634780299681425,4.746036589226127,2.149495662692189
1776223436766077000,12.470076904296874,-1.652891125911474,5.224387091913819,0.9388941305279731
1776223436785927200,12.48992724609375,-1.7331079874426125,5.504951753744483,-0.1767740324884653
1776223436805777200,12.509777099609375,-1.4709826531440018,5.840539214617014,-1.035515014371276
1776223436825627100,12.529627197265626,-1.0165274783719331,5.7937423921287055,-1.9392314485341309
1776223436845478100,12.54947802734375,-0.5267821963688358,5.7430129063665865,-2.7701392515957353
1776223436865328000,12.569328125,-0.10248067925479262,5.780187329506874,-3.4161329703330994
1776223436885178000,12.58917822265625,0.13464929346442223,5.665963568955659,-4.200447949045897
1776223436905028000,12.609028076171874,0.19219956515729425,5.543931765002012,-4.842900049653649
1776223436924878000,12.628878173828125,0.0962567997712642,5.578982620117068,-5.268973252615332
1776223436944728000,12.64872802734375,-0.09275595204345881,5.736935047757625,-5.48427429189682
1776223436964578000,12.668578125,-0.2683984232187271,6.006764380562305,-5.522983084997534
1776223436984429000,12.688428955078125,-0.25686989798843857,6.264028246304393,-5.5502545382827515
1776223437004279000,12.708279052734374,-0.16032902057878673,6.209858264699578,-5.899594630175828
1776223437024129300,12.72812939453125,-0.15478673015125094,5.945950723159313,-6.398464773800969
1776223437043979000,12.74797900390625,-0.20951777970492838,5.767403251257538,-6.4252376299142835
1776223437063829000,12.7678291015625,0.09337912544310092,6.156846805480122,-5.800685343134403
1776223437083679000,12.787678955078125,0.1283505586463958,5.737464040067792,-5.906702416354418
1776223437103529000,12.807529052734376,-0.04996785373985767,4.982473355516791,-5.832330773720145
1776223437123380000,12.8273798828125,-0.6668640728086233,4.548027461007237,-4.87430582626462
1776223437143230000,12.84722998046875,-0.8845260690677911,4.437133137139678,-3.588006371298432
1776223437163080000,12.867079833984375,-0.9712490976225584,4.255751318594813,-2.2841975631266833
1776223437182930000,12.886929931640625,-0.690548315256834,4.326116648197174,-1.1146236223995685
1776223437202780000,12.90677978515625,-0.23675949543900787,4.487142199672759,-0.4643225618571043
1776223437222630100,12.926630126953125,0.26214228543341156,4.610942766864597,-0.32119068672955037
1776223437242480000,12.946480224609376,0.34266602095663545,4.320292179827391,-0.26758067709505556
1776223437262331100,12.9663310546875,-0.048509471625089645,3.5751875139966605,-0.2964402763545513
1776223437282181000,12.98618115234375,-0.6768319245934487,2.6926497692018745,0.20784896970987318
1776223437302031000,13.006031005859375,-0.9600239392530172,1.9130004442125557,1.0190426029980182
1776223437321880800,13.025880859375,-0.9854004456371068,1.4520412213087082,2.003840991088748
1776223437341730800,13.045730712890625,-1.1218155797302722,1.1160188761502503,2.7652444652915
1776223437361580800,13.065580810546875,-1.2972732689231634,0.6721300305128097,3.342661491408944
1776223437381430800,13.0854306640625,-1.3890969816178083,0.07053016477525234,3.871806361788511
1776223437401281800,13.10528173828125,-1.5192010328680277,-0.5260054033100605,4.496571999058127
1776223437421131800,13.1251318359375,-1.7934592880308626,-1.2342752532184122,5.1833425493419165
1776223437440981800,13.144981689453125,-2.057515882652998,-2.000613845735788,6.006883623027801
1776223437460832000,13.16483203125,-2.0442413905382155,-2.9017841025471687,6.707752256768941
1776223437480682000,13.184681884765626,-1.800185965937376,-3.3936253704488277,7.228236266309023
1776223437500532000,13.204531982421875,-1.8618413348615168,-3.498241929221153,7.302461193948984
1776223437520382000,13.2243818359375,-2.207596554005146,-3.364911317139864,7.201703648692369
1776223437540233000,13.24423291015625,-2.4623148269176482,-3.3182267228543756,7.018276003533601
1776223437560083000,13.2640830078125,-2.722958982747793,-3.2418308809161185,6.99886403157711
1776223437579933000,13.283932861328125,-3.2253836039841173,-3.417472694504261,6.75287033239007
1776223437599783000,13.303782958984375,-3.789342013591528,-3.2569244051516053,6.70286857638061
1776223437619633000,13.3236328125,-4.246836775255203,-3.0600556791394946,6.442669241708517
1776223437639483000,13.34348291015625,-4.526168095898628,-3.008782588019967,5.852147234824299
1776223437659332900,13.363332763671876,-4.3541631775081155,-3.3688562553733585,4.910174427503347
1776223437679183000,13.38318310546875,-3.7297231189310547,-3.380395886519551,4.266127751180529
1776223437699033900,13.403033935546874,-2.9872073005497453,-2.2225229049801825,4.50130253471136
1776223437718884000,13.422884033203125,-2.471871759814024,-0.8448053955107927,4.565492975071073
1776223437738734000,13.442734130859375,-1.924398621061444,0.6032745209515095,4.332745710948109
1776223437758584000,13.462583984375,-1.7668921836227178,1.9333260238826273,4.0521933240771295
1776223437778434000,13.48243408203125,-2.0182249057501553,2.6960961102634666,3.549173075035214
1776223437798283800,13.50228369140625,-2.2065403229504823,3.50995925502181,3.380484149324894
1776223437818133800,13.5221337890625,-2.173520681402087,4.095560172116756,2.7858932855665683
1776223437837985000,13.541985107421874,-2.1199550954312083,4.404494019341469,1.8653630792468785
1776223437857834800,13.561834716796875,-1.6802783145308493,4.983161922302842,1.2215028654068707
1776223437877684700,13.581684814453125,-1.0941115071814507,5.321461564743519,0.29756606551408765
1776223437897534700,13.60153466796875,-0.6587689560931176,5.669664761561155,-0.6462924094229936
1776223437917385000,13.621385009765625,-0.4667909977972507,5.955637419915199,-1.6032541115611791
1776223437937235000,13.64123486328125,-0.17596498112790285,5.956414834028482,-2.5465245574772357
1776223437957085000,13.6610849609375,0.38663185780271886,5.618915402054786,-3.6121903799623247
1776223437976935000,13.680934814453124,0.8826619556963443,5.174489380800724,-4.5877451388895505
1776223437996786000,13.700785888671875,1.1137521002620459,4.907982470417022,-5.22149370855987
1776223438016636000,13.720635986328125,1.1978500410102306,4.987464587932825,-5.3963101772397755
1776223438036486000,13.74048583984375,1.251794689426571,5.362524227494001,-5.451709992900491
1776223438056336000,13.7603359375,1.1845954226396977,5.505353320282698,-5.851079897853732
1776223438076185900,13.780185791015626,0.9782425367064773,5.626445797559619,-6.183428522935509
1776223438096035800,13.800035888671875,0.7661392705529928,5.508531950318813,-6.449913806009293
1776223438115885300,13.81988525390625,0.7214465807370841,5.238499203896522,-6.435578406664729
1776223438135735300,13.8397353515625,0.6944407926507293,4.839743339188397,-6.030740883955359
1776223438155586300,13.85958642578125,0.6034634676523506,4.731441077640652,-5.334002481886744
1776223438175436300,13.879436279296876,0.6831200649522244,4.919633745244145,-4.5910114472091195
1776223438195286300,13.899286376953125,0.9044967708855867,4.941043028497695,-4.261784169018268
1776223438215136300,13.91913623046875,0.8950754470676183,4.849480597087741,-3.9603561673790213
1776223438234986000,13.938986083984375,0.31911161543317135,4.317788088051975,-3.5523657335966825
1776223438254836000,13.9588359375,-0.18333879783153534,4.196737696351111,-2.4163193839401007
1776223438274686200,13.978686279296875,-0.4408814805150032,4.115725008267164,-0.9201730634450912
1776223438294536200,13.9985361328125,-0.5301712177526205,4.003994525836408,0.612425211134553
1776223438314387200,14.01838720703125,-0.42479068887047466,3.853798119150102,1.7914748362153767
1776223438334237200,14.0382373046875,-0.2537573189258575,3.5673695337221023,2.222317153275013
1776223438354087200,14.058087158203126,0.06084346801936626,3.3071371735632416,2.0071318493276835
1776223438373937200,14.077937255859375,0.1206255173522979,2.832724010324478,1.5940256799668073
1776223438393787100,14.097787109375,-0.16363156925551592,1.9691566311985254,1.2002975802928209
1776223438413637000,14.11763720703125,-0.5085637815784663,1.1281781004995106,1.4401771805137396
1776223438433487000,14.137487060546874,-0.5872358248203993,0.2701969970732927,1.7541045982420445
1776223438453337000,14.157337158203125,-0.25035364796221254,-0.32679625165164466,2.148672071349621
1776223438473188000,14.17718798828125,0.03576382569000125,-0.7202583938658237,2.293718840187788
1776223438493038000,14.1970380859375,0.29454700995385646,-0.9865040229648351,2.301277877265215
1776223438512888300,14.216888427734375,0.2599707866132259,-1.2386930696606635,2.5008710598051547
1776223438532738300,14.23673828125,-0.08510938281305133,-1.6573966206371784,2.800876919686794
1776223438552588300,14.25658837890625,-0.4874889179110527,-1.9350497789353132,3.315232801735401
1776223438572438300,14.276438232421874,-0.7718078177087009,-2.3740035062581297,3.543513149577379
1776223438592288300,14.296288330078125,-1.005273605364561,-2.833231375324726,3.7580157319575545
1776223438612138200,14.31613818359375,-1.2005670448839665,-3.201370275712013,4.145749559652805
1776223438631988200,14.33598828125,-1.2926380103379487,-3.3874212551116942,4.690479537177086
1776223438651839200,14.355839111328125,-1.449338976612687,-3.31836817715168,5.233201097488403
1776223438671689200,14.375689208984374,-1.6176123072594404,-2.958693738248944,5.743810778746009
1776223438691539200,14.395539306640625,-1.8607775050222872,-2.6378724693536757,5.6488060979276895
1776223438711389200,14.41538916015625,-2.0117840590476987,-2.385766424766183,5.283205191585421
1776223438731239200,14.4352392578125,-2.106130568218231,-2.1082857004255056,5.053222131478786
1776223438751089200,14.455089111328125,-2.3135329632043837,-1.8752292242228983,5.000892224782705
1776223438770939100,14.474939208984376,-2.410223989674449,-1.6614304061979055,4.973172443208098
1776223438790789000,14.4947890625,-2.2310206842124463,-1.7933102349489927,4.578263609316945
1776223438810640100,14.51464013671875,-2.111824395945668,-2.136460824552178,3.997698348301649
1776223438830490000,14.534489990234375,-2.497210783731937,-2.0011545284837484,3.6386832500904798
1776223438850340000,14.554340087890624,-2.052293764090538,-1.167279107788205,3.4076778611987826
1776223438870190000,14.574190185546875,-0.7029740815877914,0.25907646812200547,3.37096111869812
1776223438890040000,14.5940400390625,0.8434453592039645,1.6494044528394936,3.363229063141346
1776223438909890000,14.61389013671875,2.041252730116248,2.7350240990728136,3.063033818167448
1776223438929740300,14.633740234375,2.3253869209967553,2.773946242663264,2.094367649710178
1776223438949590300,14.65359033203125,1.7984195407867432,2.5927994019180534,1.2892553821623325
1776223438969441300,14.673441162109375,0.899165931251645,2.648067700153589,0.73600599809587
1776223438989291300,14.693291259765624,-0.22734452829658983,2.744627209198475,0.2220750634610653
1776223439009141200,14.713141357421875,-0.962945452722907,2.792139486479759,-0.4014139780014753
1776223439028991200,14.7329912109375,-1.1953086128991097,2.7554721360787746,-1.1777058092564343
1776223439048841200,14.75284130859375,-0.6983055052548647,2.679455648846924,-2.171927859252691
1776223439068691200,14.772691162109375,0.004914075526595115,2.6669892582446337,-3.0099621531933543
1776223439088541200,14.792541259765626,0.43619237285070117,2.5440897315457462,-3.624439620682597
1776223439108393000,14.81239306640625,0.6512514200698584,2.4057971131429077,-4.1293502135157585
1776223439128242700,14.83224267578125,0.7478472425371409,2.357422081552446,-4.363669257000089
1776223439148092700,14.8520927734375,0.7685756308544427,2.2959815244227646,-4.411441646522284
1776223439167942700,14.871942626953125,0.5969131326934323,2.228736372667551,-4.47664798592627
1776223439187793000,14.89179296875,0.19603753588497638,2.5752833267107604,-4.277691932246089
1776223439207643000,14.911642822265625,-0.33283728538155555,3.019609394721687,-4.02005806414783
1776223439227492900,14.931492919921874,-0.7638257329136132,3.6268089801624415,-3.7097342238694426
1776223439247343900,14.95134375,-0.8688917890191078,4.168467295156419,-3.419709659776091
1776223439267193900,14.97119384765625,-0.5350748449504376,4.4782171349391335,-3.4140918198943138
1776223439287043800,14.9910439453125,-0.15300213002311064,4.611529334580898,-3.462742161294818
1776223439306893800,15.010893798828125,0.028543409449793396,4.9069022739648815,-3.5715450658410783
1776223439326743800,15.030743896484376,-0.009993059291318059,5.608247877568006,-3.525483571889996
1776223439346593800,15.05059375,-0.059632996251061554,6.129208856970071,-3.6802339886188506
1776223439366443800,15.07044384765625,-0.04296710813231766,5.913924768823385,-4.1659944753021
1776223439386294800,15.090294677734375,-0.18469839574694633,4.956311909300089,-4.960461430194973
1776223439406144800,15.110144775390625,-0.7986142838306725,3.9593005208462473,-5.152733476066589
1776223439425994800,15.129994873046876,-1.8410295791096984,3.621657296487689,-4.432706552869082
1776223439445845000,15.149844970703125,-3.0091438225477933,3.5649089888274665,-3.004451865339279
1776223439465695000,15.169695068359376,-3.458064232611656,3.8972348175555465,-1.0817992111623287
1776223439485545000,15.189544921875,-3.2146482749581335,4.139427663154899,0.7315525258183478
1776223439505395000,15.20939501953125,-2.1176590934485198,4.1632048445835705,1.8282798415213821
1776223439525246000,15.229245849609375,-0.9294925343237816,3.4053023642390965,1.9174562545776366
1776223439545096000,15.249095947265625,0.08735036667287349,2.348141335248947,1.5995973426192998
1776223439564946000,15.26894580078125,0.8074573693692684,1.3090262505590915,1.1188117217391729
1776223439584796000,15.2887958984375,0.9494565872050821,0.4190694616794586,0.775299897608161
1776223439604645600,15.308645751953126,0.7950215200357139,-0.1898234836757183,0.8396002280831336
1776223439624495900,15.328495849609375,0.7732324436843395,-0.6144003105998039,1.080890279623866
1776223439644347000,15.348346923828124,0.9245067818004638,-0.9235030846506357,1.32139414922297
1776223439664196600,15.368196533203125,0.8701397432535887,-0.8752601550072431,1.542839098086953
1776223439684046800,15.388046875,0.35711430609114464,-0.8822785093367099,1.6930016025036572
1776223439703896800,15.407896728515626,-0.4707154777646064,-0.8009189075112343,1.892486648494005
1776223439723746800,15.427746826171875,-1.269239014571905,-1.0260054277479649,2.086280789366364
1776223439743596800,15.4475966796875,-1.7258768671452998,-1.2703794167786835,2.495107673972845
1776223439763446800,15.46744677734375,-1.8585516456663607,-1.6874316934168339,3.0077111593961714
1776223439783297800,15.4872978515625,-2.016554342189431,-2.288653958013654,3.3580414313703772
1776223439803147800,15.507147705078125,-2.19447754471302,-2.6585218741506336,3.9891871250659223
1776223439822997800,15.526997802734375,-2.1998393640071154,-2.71843302975595,4.866259882453083
1776223439842847700,15.54684765625,-2.0705828694969415,-2.789138551098108,5.510917968672514
1776223439862697700,15.56669775390625,-1.8110358612537383,-2.8655250406861303,5.664595203211904
1776223439882548000,15.5865478515625,-1.5597463937461375,-3.0488661766052245,5.555675978809595
1776223439902398700,15.606398681640625,-1.2936083166748285,-3.0904034711301325,5.756555109506845
1776223439922249000,15.6262490234375,-0.9873562558799982,-2.917199698343873,6.037897185450792
1776223439942099000,15.646098876953126,-0.7741103955626487,-2.715249139022827,6.0248956650584935
1776223439961949000,15.665948974609375,-0.6912754604876041,-2.9219501077413557,5.49572624475956
1776223439981799000,15.685798828125,-0.5768997973103076,-3.5241952856451273,4.778684474852681
1776223440001649000,15.70564892578125,-0.33266189228203147,-3.5445863317668436,4.400373724541068
1776223440021500000,15.7255,-0.1413467452764511,-2.7739719616264105,4.275117113322019
1776223440041350000,15.745349853515625,-0.15149229171574116,-1.5028858578830957,4.419460117805004
1776223440061200000,15.765199951171875,-0.22787585869431495,-0.06555003827512264,4.455191940921544
1776223440081049900,15.7850498046875,-0.14025135125517843,1.1841145072549581,4.299757049059868
1776223440100899800,15.80489990234375,0.23091252297647297,2.2149568536400794,4.19878030809462
1776223440120750600,15.82475048828125,0.9497083700090646,3.234122206234932,3.977228391724825
1776223440140600600,15.8446005859375,1.5706822137802838,4.174899666291475,3.4971126329302784
1776223440160450800,15.864450927734374,1.7851923949450252,4.576571418446302,2.4336124640464782
1776223440180300800,15.88430078125,1.7167326067030428,4.522798327204585,1.3929793760091065
1776223440200150800,15.90415087890625,1.768668107254058,4.340643186199665,0.2905915503263473
1776223440220000800,15.924000732421876,1.6819960782341659,4.515818551319837,-0.526353193834424
1776223440239851800,15.943851806640625,1.6215490621864794,5.169581735014916,-1.0300438894838093
1776223440259701800,15.96370166015625,1.6977289232864974,5.685486600071192,-1.7477666273921728
1776223440279551700,15.9835517578125,1.798596650919318,5.682484495645761,-2.8855794021993875
1776223440299401700,16.003401611328126,1.9958406399846076,5.461534636822343,-4.020833724695444
1776223440319251700,16.023251708984375,2.119138079959899,5.28048482671082,-4.834751814511418
1776223440339101400,16.043101318359376,2.344590949290991,5.202272290739416,-5.2873775088340045
1776223440358952700,16.06295263671875,2.5245821902602907,4.972505503731965,-5.839400565975904
1776223440378802700,16.082802734375,2.5476623293355107,4.733238774712383,-6.3421174481570715
1776223440398652700,16.102652587890624,2.541156016181409,4.753479890969396,-6.455004991668463
1776223440418502700,16.122502685546873,2.6510785724073647,5.006469148132204,-6.3385898585528135
1776223440438352600,16.1423525390625,2.850230440920591,5.201882999160886,-6.218304021483659
1776223440458203600,16.16220361328125,3.0519705723613497,5.184413393443823,-6.135950147923827
1776223440478053600,16.1820537109375,3.0252471083477137,5.043662860494852,-5.961445229411125
1776223440497903600,16.201903564453126,2.6779683328986166,5.210683560732007,-5.141752063325047
1776223440517753600,16.221753662109375,2.3288053511381146,5.841216675487161,-3.6943688969552513
1776223440537603600,16.241603515625,2.10326962582916,6.178450734522938,-2.6495699214100834
1776223440557453600,16.26145361328125,1.797736819219589,6.098591600388288,-1.9076608367502688
1776223440577304600,16.2813046875,1.0928268011331557,5.64882304906249,-1.095875667309761
1776223440597154600,16.301154541015624,0.08763912048637866,5.468134473478794,0.6198211666047573
1776223440617004500,16.321004638671877,-0.9602642508149146,5.356996403983235,3.09447408156991
1776223440636854500,16.3408544921875,-1.9953537332504987,4.852780223155022,5.516330056849122
1776223440656704800,16.360704833984375,-3.0577789663791655,3.6742028917610643,6.923027577087283
1776223440676555500,16.380555419921876,-3.3950188706338404,2.220973921972513,6.870422360581159
1776223440696405800,16.40040576171875,-2.89169174759984,1.299267657610774,5.640697025752067
1776223440716255700,16.420255859375,-2.281357371264696,0.6673498104989528,3.6003298462986946
1776223440736105700,16.440105712890624,-1.854701984500885,0.08551730602681637,1.8648697427719831
1776223440755955700,16.459955810546877,-1.3275216921925543,-0.3333043183714151,0.9228916747540234
1776223440775805700,16.4798056640625,-0.6735416508764028,-0.9198679430186748,0.2589052032083273
1776223440795656700,16.49965673828125,-0.10295940268244594,-1.0551415058612823,0.03044306905865669
1776223440815506700,16.519506591796876,-0.07649811500264331,-0.8266086445629596,-0.2749158422887325
1776223440835356700,16.539356689453125,-1.0712298863530159,-0.7016191598474979,-0.5500906277745962
1776223440855206700,16.55920654296875,-2.2377228121995922,-0.7633230440884828,-0.6978799733191728
1776223440875056600,16.579056640625,-3.3181600873589514,-0.9887959332942962,-0.8502022861182689
1776223440894907000,16.598906982421877,-4.6292625596702095,-0.9099170423686503,-0.43661797785162926
1776223440914757600,16.618757568359374,-6.242463480228185,-1.098621166625619,0.1451204185962677
1776223440934608000,16.63860791015625,-7.313906132549047,-1.5747411337822674,1.0536486369550226
1776223440954457900,16.658457763671876,-7.571082904529571,-2.0526877318441867,2.2926742995709177
1776223440974307800,16.678307861328125,-6.785984666484594,-2.3718571418792007,3.4020722962766885
1776223440994157600,16.698157470703126,-5.5535284453868865,-2.278339484748244,4.1592613676548
1776223441014007600,16.718007568359376,-4.38880662086606,-1.9726380435734987,4.6240936325997115
1776223441033858800,16.73785888671875,-3.4798224754333495,-2.135631387990713,4.799567688405514
1776223441053708500,16.75770849609375,-2.569844642788172,-2.48165139555037,4.919034610307216
1776223441073558500,16.77755859375,-1.680167255371809,-2.3783739764273166,5.121207287946343
1776223441093408500,16.797408447265624,-1.245458326011896,-2.0183570076972246,5.174174323502183
1776223441113258500,16.817258544921874,-1.1708908685445785,-1.85346162905097,4.908838210463523
1776223441133109500,16.837109619140627,-1.1003858382105827,-2.2205869684815407,4.2277796080857515
1776223441152959500,16.85695947265625,-1.0532318728476762,-3.0564129387229677,3.5335739393651484
1776223441172809700,16.876809814453125,-1.111064468613267,-3.077498396849632,3.672821666535735
1776223441192659700,16.89665966796875,-1.1023614491324871,-2.2205361150771377,4.108931110343337
1776223441212509700,16.916509765625,-1.0181430238097906,-1.0026549472987651,4.2638264885008335
1776223441232359700,16.936359619140624,-0.7647369294743984,0.1314648182094097,4.101310113945603
1776223441252210700,16.956210693359374,-0.2908451597612351,0.8038274884343147,3.437748589813709
1776223441272060700,16.976060791015627,-0.0253624047935009,1.311086105698347,2.8249644822388884
1776223441291910700,16.99591064453125,0.030473464196920392,1.6705162144511938,2.198623558476567
1776223441311760600,17.0157607421875,0.053831543430685996,1.9270278005212544,1.4496107792913913
1776223441331610400,17.0356103515625,0.2717116394199431,2.318479771956801,0.8716250133752822
1776223441351460400,17.05546044921875,0.49971872327849265,2.9343022243142127,0.6929483621358871
1776223441371311600,17.0753115234375,0.5088473477602005,3.1158120531529185,0.3054892597287893
1776223441391161300,17.095161376953126,0.42284430404305456,3.106946317391097,0.12542495352327823
1776223441411011600,17.115011474609375,0.44972646574974057,3.5468203744292257,-0.14169219771325586
1776223441430861600,17.134861572265624,0.5008499192655086,4.0294264887347815,-0.8133154477477074
1776223441450711600,17.154711669921873,0.5659926919139922,4.422649561496079,-1.6119126343131065
1776223441470561500,17.1745615234375,0.7756804213583469,4.641437858371436,-2.475426237425208
1776223441490412500,17.19441259765625,1.073567973911762,4.7390553520366545,-3.2034003202348944
1776223441510262500,17.214262451171876,1.3221918754719197,4.6882782277405255,-3.891889949396252
1776223441530112500,17.234112548828126,1.3551257384330033,4.494732800932228,-4.527956148359179
1776223441549962500,17.25396240234375,1.3161544950038193,4.4255388531968,-4.820001989147067
1776223441569812500,17.2738125,1.3655115233689545,4.586275066336989,-4.892631756550073
1776223441589662500,17.293662353515625,1.4562379423461853,4.813182956781983,-4.87676607889831
1776223441609513500,17.313513427734375,1.7200509374707935,4.978966808700561,-4.895916185048223
1776223441629363500,17.333363525390624,1.9827359514787792,4.979344409841299,-5.063720144617557
1776223441649213400,17.35321337890625,2.240625547903776,4.933467624807357,-5.068173032373189
1776223441669063700,17.373063720703126,2.329172430884838,5.021894680801034,-4.626591879156232
1776223441688913700,17.39291357421875,2.373543633661419,5.2694145666420455,-3.953261240682006
1776223441708763600,17.412763671875,2.3009151814326643,5.312908840453624,-3.318645825049281
1776223441728614700,17.43261474609375,1.8371248267561195,4.858333765628934,-2.979126285424828
1776223441748464600,17.452464599609375,1.145453060427308,3.9587262280896303,-2.9711452235430476
1776223441768314600,17.472314697265624,0.41969679979756475,3.5944966101005673,-2.0087819546222687
1776223441788164600,17.49216455078125,-0.15572539924085138,3.4981630187660455,-0.5616518862307072
1776223441808014600,17.5120146484375,-0.4848756666727364,3.4202339759111404,0.7330079853236675
1776223441827864600,17.531864501953127,-0.5956662379048764,3.187058257243037,1.395638366085291
1776223441847714600,17.551714599609376,-0.3330354383021593,3.096777682337165,1.6501742681682108
1776223441867565600,17.571565673828125,-0.03453881393969059,2.997044219431281,1.4123656290024518
1776223441887415600,17.59141552734375,-0.2046674170643091,2.6060300548911095,0.7550830390095711
1776223441907265500,17.611265625,-0.7468809547882527,2.0165572647988794,0.18420155214071274
1776223441927115500,17.631115478515625,-1.276999711701274,1.2611387102246283,0.015429039800167082
1776223441946965500,17.650965576171874,-1.7032266439199446,0.3935848918110132,0.25191256784200666
1776223441966815500,17.6708154296875,-1.831040538406372,-0.04292787210047245,0.9027677551358938
1776223441986666500,17.69066650390625,-1.960669373360276,-0.26562837398350236,1.4534855748981237
1776223442006516500,17.7105166015625,-2.443223172956705,-0.43029520457088943,1.617607046562433
1776223442026366500,17.730366455078126,-3.046671881431341,-0.5027005155682563,1.633172864484787
1776223442046216400,17.750216552734376,-3.615822014462948,-0.4818377602815628,1.8185165723979473
1776223442066066400,17.77006640625,-4.0871640996932985,-0.7403279529482126,1.9575375050753354
1776223442085916400,17.78991650390625,-4.061436953240633,-1.3753800064325332,2.058008634606004
1776223442105766700,17.8097666015625,-3.2216999470353125,-1.884931703069806,2.3661831878960133
1776223442125618000,17.829617919921876,-2.329980240136385,-2.664219209009409,2.7065128748595715
1776223442145468000,17.849468017578126,-1.547667833417654,-3.3470150104433296,3.0330238798290488
1776223442165318000,17.86931787109375,-0.8221312068879604,-3.53375747923851,3.3883944840580225
1776223442185168100,17.889168212890624,-0.5719745793351904,-3.314533129033446,3.742723470279574
1776223442205017900,17.909017822265625,-1.3496306481480598,-3.0584985128253694,4.111749090373515
1776223442224867800,17.928867919921874,-2.522967156279087,-2.778058938679099,4.7460494487077
1776223442244717800,17.9487177734375,-3.4647102464973925,-2.4303648604273795,5.416870150187611
1776223442264568800,17.96856884765625,-4.095703964501619,-1.8440847288966178,6.033029871675372
1776223442284418800,17.988418701171874,-4.588379929661751,-1.6183827071100472,6.2633993007510895
1776223442304268800,18.008268798828126,-4.884870474898815,-1.9448884513825178,5.911421261569857
1776223442324118800,18.028118896484376,-4.693150802212953,-2.835885104703903,5.001847918072342
1776223442343968800,18.04796875,-3.505562481367588,-2.5498218454569574,4.485145765158534
1776223442363819000,18.067819091796874,-2.5244950964987276,-1.83510997980237,3.8538247148960827
1776223442383669800,18.087669677734375,-1.8572785569906234,-0.7963923699975013,3.242010329136252
1776223442403519700,18.107519775390625,-1.5761884099811314,0.25396599324047564,2.4718536396354436
1776223442423370000,18.127369873046874,-1.593022640404105,1.2391191861182451,1.8445856641560792
1776223442443220000,18.147219970703127,-1.8076766139537095,1.9813252078980206,1.6280530372530222
1776223442463070000,18.167070068359376,-1.9871400316566228,2.383671498313546,1.5707354052722453
1776223442482920000,18.186919921875,-1.8134183724761008,2.4840263079881666,1.2735960407376288
1776223442502770000,18.20677001953125,-1.405619661873579,2.4061446114063263,0.7672825953692197
1776223442522621000,18.226620849609375,-0.9140238931655883,2.4034826987206936,0.29485096133649347
1776223442542471000,18.246470947265625,-0.489875520786643,2.4345836471661926,-0.26370412792265413
1776223442562321000,18.26632080078125,-0.19454346140231937,2.671494460709393,-0.7645581388413906
1776223442582171000,18.2861708984375,-0.0037643940348178148,3.0442218579307196,-1.177857784947753
1776223442602020900,18.306020751953124,0.19142390460968017,3.574405131447315,-1.5041127693295477
1776223442621871000,18.32587109375,0.44935361384935674,3.9576851946040987,-2.0322493394494057
1776223442641721000,18.34572119140625,0.723080977005884,4.3898146288648245,-2.5213936233520506
1776223442661571000,18.365571044921875,0.8801298799354582,4.702955280129611,-2.9991502517998216
1776223442681422000,18.385422119140625,0.8377707476336509,4.730661325439811,-3.552435291701555
1776223442701272000,18.40527197265625,0.8340835104882717,4.846631637397408,-3.8479911864370107
1776223442721122000,18.4251220703125,0.9531704931616782,5.06045091368854,-3.936380248507857
1776223442740971800,18.4449716796875,1.1052141351498663,5.294039304810762,-4.17809875459373
1776223442760821800,18.46482177734375,1.3386778769791126,5.406918665015697,-4.515096666786074
1776223442780671700,18.484671630859374,1.4781084133706985,5.193567006236314,-5.123428471127152
1776223442800521700,18.504521728515623,1.5863830562591552,4.803684476074576,-5.571081053212285
1776223442820372700,18.524372802734376,1.8786330413170158,4.633898110516369,-5.66012653336525
1776223442840222700,18.54422265625,1.977014358961582,4.680691133612394,-5.197680286774039
1776223442860073000,18.564072998046875,2.0486555537186564,4.797254150766134,-4.580909155389667
1776223442879923000,18.5839228515625,2.0307742984607815,4.501291428795456,-4.179834200084209
1776223442899773000,18.60377294921875,1.6814936816699801,3.881476984192431,-3.399985553130507
1776223442919623000,18.623622802734374,1.2401396152071653,3.495306460291147,-2.09160461473763
1776223442939473000,18.643472900390623,1.1391238574057816,3.5741038104131815,-0.4889461309820413
1776223442959324000,18.663323974609376,1.0969279528416693,3.7679435439929363,0.8033470114409923
1776223442979174000,18.683173828125,1.1272072096407413,3.8654663451120257,1.389353002205491
1776223442999023900,18.70302392578125,1.1163836178094149,3.8455426242411135,1.428659761199355
1776223443018873900,18.722873779296876,0.9060049104262143,3.7942283243283628,1.0180495003074408
1776223443038723800,18.742723876953125,0.24651385060362516,3.5589971344351765,0.4013222080647945
1776223443058574000,18.762573974609374,-0.8178068408828228,2.981538607263565,-0.2040226894199848
1776223443078424000,18.782424072265623,-1.629340154454112,2.1318711586743593,-0.6784978119790553
1776223443098274000,18.802274169921876,-2.2285475720971823,1.3587883525937794,-0.5967641161441802
1776223443118125000,18.822125,-2.264831183877587,0.9220505477547645,-0.15492226616442203
1776223443137975000,18.84197509765625,-2.173340064138174,0.3845844237536192,-0.02200958723425865
1776223443157825000,18.861824951171876,-2.0747773985773326,0.15202303759157657,0.28858430215716363
1776223443177675000,18.881675048828125,-2.0734061102241275,-0.1402145263761282,0.653846770325303
1776223443197525000,18.90152490234375,-2.2764047172933815,-0.5515162766635417,1.1788187389343976
1776223443217375000,18.921375,-2.5955495774090287,-0.9780997672349214,1.9650842671930788
1776223443237225000,18.941224853515624,-2.764891998592019,-1.4618921687155961,2.972921585565805
1776223443257076000,18.961075927734374,-2.6123241865992544,-2.0313392388671634,3.7848663294821976
1776223443276926000,18.980926025390627,-2.805797424954176,-2.8000258558154103,4.333424340862035
1776223443296776000,19.00077587890625,-3.244336141735315,-3.189268334507942,5.1786500076115125
1776223443316626200,19.020626220703125,-3.5920845805227755,-3.132143010228872,6.151764972171187
1776223443336476200,19.04047607421875,-3.4678806932270523,-2.862028430742025,6.506876048681139
1776223443356326100,19.060326171875,-3.3077322168469427,-2.5543974828094242,6.080034199434518
1776223443376176000,19.080176025390625,-3.4059833322405813,-2.2655448851048945,5.343952213492989
1776223443396026000,19.100026123046874,-3.6104958510041234,-2.0957313392788173,4.920812725895643
1776223443415877000,19.119877197265627,-4.041605294567346,-1.7674112390607595,5.051653859248757
1776223443435727000,19.13972705078125,-4.6553182074248785,-1.544758667972684,5.211961325582862
1776223443455577000,19.1595771484375,-5.13160184071064,-1.9247271223634481,4.753391628164053
1776223443475427000,19.179427001953126,-5.088217457014322,-2.8343478121340273,3.9963931109219786
1776223443495276800,19.19927685546875,-4.625310022652149,-3.3842309346377846,3.5941660629719494
1776223443515127000,19.219126953125,-3.6908103276908397,-2.8028993654251098,3.6754952696591614
1776223443534977000,19.23897705078125,-2.981698766261339,-1.7246423569142817,3.4504110875099894
1776223443554827000,19.258826904296875,-2.7331986372113226,-0.44037177742719646,3.292591346338391
1776223443574678000,19.278677978515624,-2.809431982064247,0.7161661561161279,2.931045852866769
1776223443594528000,19.298528076171873,-3.0494734948486086,1.6333955673247575,2.743043739399314
1776223443614378000,19.3183779296875,-3.2584739726811645,2.339252510872483,2.6673195131123064
1776223443634228000,19.33822802734375,-3.1677146743476388,2.622101484248042,2.4889929904848334
1776223443654078000,19.358077880859376,-2.7658535371005533,2.8036697652757168,2.2293284933418036
1776223443673928000,19.377927978515626,-2.015323923611641,3.0564024173289535,1.8043734807550906
1776223443693778000,19.39777783203125,-1.4086077377736568,3.6993618829369543,1.454102245491743
1776223443713628200,19.417628173828124,-0.998079821402952,4.546498351743817,1.2545324438273906
1776223443733478100,19.43747802734375,-0.186286614786461,5.497267044460773,0.9169552704423666
1776223443753329200,19.4573291015625,0.8624293150067329,6.133585756880045,0.16748831774890421
1776223443773179100,19.47717919921875,1.5182055920898914,6.262793736073374,-1.0300859750598668
1776223443793029000,19.497029052734376,1.6243582743883132,6.17801760380268,-2.29792973588109
1776223443812879000,19.516879150390626,1.2071055067420005,6.098881523245573,-3.277516526803374
1776223443832729000,19.53672900390625,0.6202694948941468,5.989843640899658,-4.1011821036517615
1776223443852579000,19.5565791015625,-0.029423644616734235,5.832631217971444,-4.656414185968041
1776223443872429000,19.576428955078125,-0.3155617043992504,5.86641307606399,-4.971883572441339
1776223443892279000,19.596279052734374,0.014519523739814758,6.177661629971862,-5.2986014981597656
1776223443912130000,19.616130126953124,0.3518132405409589,6.369347984910011,-5.7347559501528735
1776223443931980000,19.63597998046875,0.7150695199858397,6.496390895023942,-6.2038984795123335
1776223443951830300,19.655830322265626,0.9678981797594577,6.41918315218091,-6.653512132537364
1776223443971680300,19.67568017578125,1.1326361028216778,6.274069163325429,-6.837025702413916
1776223443991530000,19.695530029296876,1.362106244970113,6.3842550466626875,-6.686753892403841
1776223444011380000,19.7153798828125,1.5347107366889714,6.597822978541255,-6.353498673871159
1776223444031230000,19.73522998046875,1.3930249687165022,6.255827988713979,-6.122638830929994
1776223444051080000,19.755079833984375,0.9157209063418209,5.681365720748901,-5.447842796078324
1776223444070931000,19.774930908203125,0.17137305022776125,5.438727761730552,-3.994858156439662
1776223444090781000,19.794781005859374,0.03500570079907775,5.63947946665585,-2.1348767702311275
1776223444110631000,19.814630859375,0.21601050272509453,5.649692233112454,-0.567125933727622
1776223444130481200,19.834481201171876,0.49815176622271534,5.585184397366643,0.47183542170524595
1776223444150331100,19.8543310546875,0.7564636797130108,5.307829929754138,0.8753110084116459
1776223444170181400,19.874181396484374,0.93524225695692,4.798366203661263,0.9453624497592449
1776223444190031400,19.89403125,0.8874054969616234,4.291339057065546,0.9573726210266351
1776223444209881000,19.913881103515624,0.4151981732040643,3.7612481380075216,0.880735956069827
1776223444229731000,19.93373095703125,-0.5026853179991245,3.2212621401399373,0.8345943826198577
1776223444249581000,19.9535810546875,-1.2015835284501313,2.6127444578379393,0.9623714522272347
1776223444269432000,19.97343212890625,-1.7229992658823727,2.2576094159305096,1.3552286142855883
1776223444289282000,19.993281982421873,-2.1450953819066285,1.9165911621809004,1.7532722390711306
1776223444309132000,20.013132080078126,-2.5513661522895097,1.5336416461527347,2.202357484307885
1776223444328982000,20.03298193359375,-3.0062451784968376,1.0789660335630178,2.764561159202456
1776223444348832300,20.052832275390625,-3.7068753273069857,0.517901007309556,3.4568022498518225
1776223444368682200,20.07268212890625,-4.626062886846065,-0.11819734035730362,4.280591745340824
1776223444388532200,20.0925322265625,-5.528291128277778,-0.9927391179621219,5.234592259585857
1776223444408382200,20.11238232421875,-5.510566086494922,-1.8205641525775194,5.812088780680298
1776223444428233200,20.132233154296873,-5.1202176923871034,-2.40844996573925,5.640528098925948
1776223444448083200,20.152083251953126,-4.815359131777286,-2.6860388266295194,4.9985290027827025
1776223444467933200,20.17193310546875,-4.560117127251625,-2.6965947074353696,4.305679424846172
1776223444487783200,20.191783203125,-4.399726658809184,-2.6920202391266823,3.8556326411008834
1776223444507633200,20.211633056640625,-4.685986901932955,-2.861543277573585,3.5386405751049517
1776223444527483100,20.231483154296875,-5.431984132689237,-2.8182454031169413,3.7281986858427523
1776223444547333000,20.2513330078125,-6.221167009699344,-2.367424127867818,4.485657806333899
1776223444567183400,20.271183349609377,-7.036255896860361,-2.066506413838267,5.0404795542836185
1776223444587033300,20.291033447265626,-7.57766929718256,-1.7871534658849237,5.583338477239012
1776223444606884400,20.31088427734375,-7.590361605495214,-1.8964234034210443,5.690161021623015
1776223444626734300,20.330734375,-7.157313887345791,-2.429538930997252,5.24939410739839
1776223444646584300,20.350584228515626,-6.327863297355175,-2.163658628079295,5.052034382998943
1776223444666434300,20.370434326171875,-5.184762937533855,-1.2836825504660605,4.794605097562075
1776223444686284000,20.390283935546876,-4.218391602015495,-0.05426175154149532,4.641680727216601
1776223444706134000,20.410134033203125,-3.10392930765748,1.3597656731933354,4.373250155293941
1776223444725984000,20.42998388671875,-2.1584417702138423,2.284852812165022,3.6932962992876766
1776223444745834200,20.449834228515623,-1.410565301582217,2.941481906685233,2.960617399787903
1776223444765684200,20.469684326171876,-1.0516630160957574,3.2324124797075986,2.1603286068737506
1776223444785534200,20.4895341796875,-1.036273723784089,3.139897862139344,1.6570862395137547
1776223444805385200,20.50938525390625,-1.0227169806618244,3.063320818415284,1.6104542521983385
1776223444825235200,20.529235107421876,-0.7789725217062979,3.0627094085186717,1.2175836461365221
1776223444845085200,20.549085205078125,-0.2944230913132429,3.4399300255060195,0.4989548992991447
1776223444864935200,20.56893505859375,0.06750635997466743,4.164946427553892,-0.19275427643060683
1776223444884785200,20.58878515625,0.10116846414506435,4.9083144788503645,-0.949151905170083
1776223444904635100,20.60863525390625,0.15273958836309612,5.363892008715868,-1.951510499870777
1776223444924485000,20.628485107421874,0.3240196996103972,5.53322975372374,-2.818913511636853
1776223444944335000,20.648335205078126,0.5377567044455558,5.600529850536584,-3.3922307012200354
1776223444964185300,20.668185302734376,0.6752438516844064,5.49298425257504,-3.8663258845508097
1776223444984036000,20.6880361328125,0.541363204504922,5.374141600051522,-4.176799946954846
1776223445003886300,20.70788623046875,0.22463994551301,5.43509262009859,-4.267228990420699
1776223445023736300,20.727736328125,0.06915704979114234,5.862449433130026,-4.206382599791884
1776223445043586300,20.74758642578125,0.20711890186965465,6.147362937819957,-4.469492268952727
1776223445063436300,20.767436279296874,0.44986134417578577,6.078376495355367,-4.987615394580364
1776223445083286300,20.787286376953126,0.8119168329961598,5.955745556464791,-5.417144290953874
1776223445103136000,20.807135986328124,1.070813706767559,5.841951419502497,-5.803737131920457
1776223445122985700,20.82698583984375,1.2094378952123224,5.8366796165794135,-5.909801551413536
1776223445142835700,20.846835693359374,1.4098926630176603,6.189112998312711,-5.510773007243872
1776223445162686500,20.8666865234375,1.5646435181379317,6.066714699134231,-5.431172816306352
1776223445182536700,20.88653662109375,1.4491718033522367,5.533944623994827,-5.292063036301732
1776223445202386700,20.90638671875,0.6706441758692264,5.115352716699242,-4.373282888519764
1776223445222236700,20.926236572265626,0.32715646326616404,5.06531939650774,-2.9565421131730076
1776223445242086700,20.946086669921876,0.012688216659426689,4.996923321151733,-1.4516957688719034
1776223445261936600,20.9659365234375,-0.13785481150746345,4.880469025069475,-0.18155951319932936
1776223445281786400,20.985786376953126,-0.04509469474554061,4.559265771119296,0.5707563991844654
1776223445301636400,21.00563623046875,0.4993887606717646,4.429048030361533,0.8375409574657678
1776223445321486600,21.025486572265624,1.1585580411940812,3.9734205238744615,0.17068915961682796
1776223445341336600,21.045336669921873,1.2244998552657662,3.656915364612639,-0.471141594222188
1776223445361187600,21.0651875,0.6989410266794264,3.0474761835515496,-1.0660510224103927
1776223445381037600,21.08503759765625,-0.17540274413526058,2.436818566611409,-0.7481780819267034
1776223445400887600,21.104887451171876,-0.9438668043740093,1.9863895055502652,-0.006526186898350716
1776223445420737500,21.124737548828126,-1.6290040543675421,1.6919728439778088,0.901620338666439
1776223445440587500,21.14458740234375,-2.351687045031786,1.531142230552435,1.9988941823363302
1776223445460437500,21.1644375,-2.604803727966547,1.1474158849328755,2.827884169077873
1776223445480287500,21.18428759765625,-2.5966730284810065,0.6351759721249342,3.3964439350008964
1776223445500137500,21.204137451171874,-3.106531599110365,0.07510346404016018,4.059636041298508
1776223445519987500,21.223987548828124,-3.8914252544939516,-0.524583261552453,4.975591194787621
1776223445539837700,21.243837646484376,-4.215881665021181,-1.4861276153057812,5.850062829765677
1776223445559688400,21.2636884765625,-4.483335500866175,-2.614512636554241,6.375818642228841
1776223445579538700,21.28353857421875,-4.70238975520134,-3.2031255949467416,6.987391620448231
1776223445599388700,21.303388671875,-4.703094688600301,-3.454822474211454,7.428181331026554
1776223445619238700,21.32323876953125,-4.184025222033262,-3.824353705739975,7.156352348837256
1776223445639088600,21.343088623046874,-3.6083529937565326,-3.94437592343688,6.779865891343355
1776223445658938600,21.362938720703124,-3.618638240927458,-4.1113305727005,6.473166671302915
1776223445678788600,21.38278857421875,-4.008638259989023,-3.9543133800834416,6.665535747808217
1776223445698638300,21.402638427734374,-4.4328024144589895,-3.7017555000752207,7.000921548628806
1776223445718488600,21.422488525390627,-4.846169280582666,-3.347308440431952,7.132460016596317
1776223445738338600,21.442338623046876,-4.857577978825569,-2.861750782844424,7.045735088345408
1776223445758189300,21.462189208984373,-4.899988549053669,-3.0198131006002424,6.147709559300542
1776223445778039600,21.48203955078125,-4.813061960750818,-2.7750609259068963,5.460926149535179
1776223445797889500,21.5018896484375,-4.261738576310873,-1.9129940144717692,5.1148056042104955
1776223445817739500,21.521739501953125,-3.669589845007658,-0.6700666682422161,4.972937465408444
1776223445837589500,21.541589599609374,-3.379666987723112,0.5938391686081886,4.810598785507679
1776223445857439500,21.561439453125,-3.221450940710306,1.7329267856568098,4.472783711713552
1776223445877289500,21.58128955078125,-3.3368507593035694,2.5285423260629174,3.9343203933686017
1776223445897139500,21.601139404296877,-3.5010248379379507,3.394955742269754,3.669519117859006
1776223445916989400,21.620989501953126,-3.4853199038058515,3.9521646776169534,3.3876632471740242
1776223445936839700,21.640839599609375,-3.1426071210980413,4.3776387456417085,3.0602912414610386
1776223445956689700,21.660689697265624,-2.5860575264424086,4.6382057445824145,2.3949761516600847
1776223445976540700,21.680540771484374,-2.06060800344944,4.987126149758696,1.5997002184718847
1776223445996390700,21.700390625,-1.6451766060113906,5.689218187814951,0.9740455234080553
1776223446016240600,21.72024072265625,-1.334605512973666,6.365339333790541,0.2492278588026762
1776223446036090600,21.740090576171873,-1.2386053913772106,6.888049202686548,-0.6321452261269093
1776223446055940600,21.759940673828126,-1.114059558776021,7.299412327772378,-1.4025743028283117
1776223446075790600,21.77979052734375,-1.046701009774208,7.555995225512981,-2.1194120745956897
1776223446095640600,21.799640625,-1.0910241356253623,7.708529719758033,-2.909739445465803
1776223446115490600,21.819490478515625,-1.1988029578208923,7.621388611921668,-3.7354338977932926
1776223446135340800,21.8393408203125,-1.2724427790492772,7.789338117441535,-4.217283933034539
1776223446155190800,21.859190673828124,-1.0268448011815547,8.049432238173484,-4.567677917894721
1776223446175041800,21.879041748046873,-0.5022323135346174,8.282235616397857,-5.1506812197119
1776223446194891800,21.898891845703126,0.16184994653575122,8.245265775918961,-6.089554891973734
1776223446214741800,21.91874169921875,0.8642647868055849,7.921416099113226,-7.131580895674229
1776223446234591700,21.938591796875,1.3701847758769987,7.484457929521799,-7.890157622018456
1776223446254441700,21.958441650390625,1.6310311762809753,7.278834819167852,-7.793384177961945
1776223446274291700,21.978291748046875,1.9132192015297709,7.371797180503607,-7.072146709930896
1776223446294141700,21.9981416015625,2.0693438292212782,7.047511450368166,-6.8138996783703565
1776223446313991700,22.01799169921875,1.9263688982211051,6.3026920312196015,-6.8226073009610175
1776223446333841700,22.037841552734374,1.3540152929730713,5.625595318210125,-6.332096404880285
1776223446353691600,22.057691650390623,0.6062731182456016,5.493272421866655,-4.781415945643186
1776223446373543000,22.07754296875,0.8220103569872677,5.716346433237194,-2.712936770427227
1776223446393392600,22.097392578125,1.462600463115424,5.772796634733677,-1.4977145927250384
1776223446413242600,22.11724267578125,2.3265910360895097,6.070500647413731,-0.9047831866115331
1776223446433092600,22.137092529296876,2.670695711547136,6.413408075910806,-0.5394160890251398
1776223446452942600,22.156942626953125,2.3891807632543145,6.6722846375465386,-0.1847691228955984
1776223446472792600,22.17679248046875,1.3126130230046809,6.702510264462232,0.439350617685914
1776223446492642600,22.196642578125,-0.03325220819525421,6.289244520625472,1.0295119745641945
1776223446512492500,22.216492431640624,-1.3160463584542275,5.649719705641269,1.9847195265114306
1776223446532342800,22.2363427734375,-2.1455244209736586,4.849191258752346,3.244167214909196
1776223446552192800,22.25619287109375,-2.6299200490444896,3.9939790355175733,4.287636403155327
1776223446572042800,22.276042724609376,-3.1722014643728733,2.9805992805868384,4.935608143967389
1776223446591893800,22.295893798828125,-3.7906373140990732,2.0046803645223377,5.740777694660425
1776223446611743700,22.31574365234375,-4.511171602296829,0.9492746547669172,6.568266629189252
1776223446631593700,22.33559375,-5.1998143761932845,-0.2486526892632246,7.322115742489695
1776223446651443700,22.355443603515624,-5.45846180524826,-1.4128338310360908,7.482094707521796
1776223446671293700,22.375293701171874,-4.94429881542325,-2.362536940348148,6.806321936592459
1776223446691143700,22.395143798828126,-3.970942443323135,-3.1286154206246137,5.571273945435881
1776223446710993700,22.41499365234375,-3.3829274508237837,-3.692427699759602,4.643730645483732
1776223446730844000,22.434843994140625,-3.113605483019352,-3.9632390293389554,4.197745119827985
1776223446750693600,22.454693603515626,-3.253361159712076,-4.000933676961064,4.0703690322369335
1776223446770543600,22.474543701171875,-3.7397371479451653,-3.9048470461249347,4.313596189320087
1776223446790393600,22.4943935546875,-4.61838811443448,-3.6319355293959377,4.842060091698169
1776223446810244600,22.51424462890625,-5.641778391247987,-3.4916859317064284,5.24128269713521
1776223446830094600,22.534094482421875,-6.574106002867222,-3.2851217411100864,5.744345031753182
1776223446849944600,22.553944580078124,-7.138734274560212,-2.9390473730146884,6.433898490753769
1776223446869794600,22.573794677734377,-7.444367911195754,-2.3411808485865593,7.0609238896489135
1776223446889644500,22.59364453125,-7.278022333741188,-2.0160504843205214,6.822669260281324
1776223446909494500,22.61349462890625,-6.582213321477174,-2.422911037290096,5.655576614975929
1776223446929344800,22.6333447265625,-5.282553449678421,-1.708127275443077,5.075290755423903
1776223446949194800,22.65319482421875,-4.3869922649204725,-0.7248480597436427,4.505576558768749
1776223446969044700,22.673044677734374,-3.715030576711893,0.9405442358225583,4.161595363560319
1776223446988894700,22.692894775390624,-3.0248037484943864,2.209814230054617,3.477480880743265
1776223447008744700,22.71274462890625,-2.747174555593729,2.9158944609642026,2.641798118364811
1776223447028594700,22.7325947265625,-2.6525451378285885,3.2163895656675097,2.096705152747035
1776223447048445700,22.75244580078125,-2.6182570837795733,3.483898931092024,1.995735426044464
1776223447068295700,22.772295654296876,-2.5461755979090928,3.6622979344338176,1.9309031806498764
1776223447088145700,22.792145751953125,-2.179889631912112,3.887465118691325,1.720158489498496
1776223447107995600,22.81199560546875,-1.573503700941801,4.027068235170841,1.1377876403659581
1776223447127846000,22.831845947265624,-1.1167717403441666,4.077648375590146,0.37965398161411285
1776223447147695900,22.85169580078125,-0.9650940821241587,4.360986593787372,-0.164029117205739
1776223447167545900,22.8715458984375,-0.8425187458783387,4.810262393160164,-0.48780982042849064
1776223447187395800,22.891395751953127,-0.6818430307537316,5.3329217009127134,-0.6975473803639411
1776223447207245800,22.911245849609376,-0.3397136008918285,5.843395188570022,-0.8964847293436526
1776223447227095600,22.931095458984377,0.24717618696987628,6.168919520589709,-1.3803396746665237
1776223447246945500,22.950945556640626,0.7053652145080268,6.435476115334033,-2.005261963802576
1776223447266796800,22.970796875,0.7864871351201087,6.639470163181424,-2.5760814913511276
1776223447286646500,22.990646484375,1.3183224866926668,6.969393022421002,-3.388952702462673
1776223447306496500,23.01049658203125,2.523843939113617,7.2975950492173425,-3.945461380586028
1776223447326346800,23.0303466796875,3.3423329901069403,7.218254970520734,-4.387873139408231
1776223447346196700,23.05019677734375,3.1427211028665303,6.964490052810311,-4.722078206011653
1776223447366046700,23.070046630859373,2.4253216055631635,6.714591747400164,-5.044398773553967
1776223447385896700,23.089896728515626,1.8420172749727963,6.41686903001964,-5.501227764785289
1776223447405746700,23.10974658203125,1.644955656737089,6.2228165304720395,-5.713994901674986
1776223447425596700,23.1295966796875,1.799184095418453,6.475147615987062,-5.489395288172364
1776223447445446700,23.14944677734375,1.9648779309660196,6.511688417398929,-5.980721592289209
1776223447465296600,23.169296630859375,1.576695628850907,5.9412546742975705,-6.445571392890811
1776223447485147000,23.18914697265625,0.6987643549382686,5.09003064391613,-6.538566487452387
1776223447504997600,23.20899755859375,-0.022643208962678907,4.943363580399751,-5.669455502724647
1776223447524847900,23.228847900390626,-0.19283947049602865,5.341213143917918,-4.47752593780458
1776223447544697900,23.24869775390625,0.19424553790166973,5.737848070949315,-3.4969022050499916
1776223447564547800,23.2685478515625,0.6388882706463337,6.163894385904073,-2.7569331485420463
1776223447584397800,23.288397705078125,0.8589930569477379,6.43141719533205,-1.9834633889704942
1776223447604247800,23.308247802734375,1.012275739211589,6.547424916690588,-1.1989783143877983
1776223447624097800,23.328097900390624,0.6280676014244556,6.163969204705953,-0.6776309660166502
1776223447643947500,23.347947509765625,-0.10241510320529341,5.445626289072632,-0.5818313354283571
1776223447663797500,23.367797607421874,-0.8866746984690427,4.884314010059834,-0.25731471914649007
1776223447683647700,23.387647705078123,-1.8494371958404778,4.252676733455061,0.4947293905586004
1776223447703497700,23.407497802734376,-2.3491285927206276,3.9344010573893784,1.6108020427227019
1776223447723347700,23.42734765625,-2.419222704166174,3.5081332086384296,2.6405659462213515
1776223447743198700,23.44719873046875,-2.305397587543726,2.9033523747771977,3.4118408260971305
1776223447763048700,23.467048583984376,-2.390678746727109,2.403157120028138,4.196946662926674
1776223447782898700,23.486898681640625,-2.790844770494103,1.8525018441081047,5.001507726332545
1776223447802748700,23.506748779296874,-3.4281074857652185,1.0668851351469755,5.663303409835696
1776223447822598700,23.5265986328125,-4.00791579093337,0.111292383274436,6.374947704613208
1776223447842448600,23.54644873046875,-4.5057109988033766,-0.8941524870038032,7.003298799154162
1776223447862298600,23.566298583984373,-4.170610444664955,-1.8142606685191391,7.3338722312569615
1776223447882148900,23.58614892578125,-3.1041841592013832,-2.259595036789775,7.426466343802213
1776223447901998800,23.605998779296876,-2.1899381477177142,-2.713282807385921,7.150826863414049
1776223447921848800,23.625848876953125,-1.8620868340551853,-3.0988141566008327,6.898403423440456
1776223447941698800,23.64569873046875,-2.0788439173638817,-3.6019612468928095,6.846776696577668
1776223447961548800,23.665548828125,-3.071252195936441,-4.127203849136829,7.025967142558097
1776223447981399800,23.68539990234375,-4.348189363795519,-4.270333386176825,7.513029359489679
1776223448001249800,23.705249755859374,-5.741542249292135,-4.427174053183197,7.9872858708620065
1776223448021099800,23.725099853515626,-6.890607070475816,-4.016287313437462,8.685789529037475
1776223448040949800,23.74494970703125,-7.634605236369371,-3.701343412142992,8.928674740815163
1776223448060799500,23.764799560546876,-7.740534631305932,-3.960839566981792,8.104934345164894
1776223448080649700,23.784649658203126,-6.903682825148105,-3.848481015780568,7.073064409297705
1776223448100499700,23.804499755859375,-5.470038845795393,-2.8181460343956948,6.4690574824184175
1776223448120349400,23.824349365234376,-4.486417100268602,-1.2118202603042125,6.341900590535998
1776223448140199400,23.844199462890625,-3.850349732261896,0.32491818282008167,5.970652618217468
1776223448160049400,23.86404931640625,-3.4492776995658874,1.2991829019367693,5.250986345025897
1776223448179899400,23.8838994140625,-3.243955617985129,1.9372931739479302,4.625293656039238
1776223448199749400,23.903749267578124,-3.0936300319612022,2.4426976877778768,4.306104956781864
1776223448219600400,23.923600341796874,-2.8703812485456464,3.0976608949124813,4.19178650368452
1776223448239450400,23.943450439453127,-2.664531928220391,4.118722436517476,4.182546966174245
1776223448259300400,23.96330029296875,-2.276378998330235,4.8206227513939135,3.499140923887491
1776223448279150600,23.983150634765625,-1.8123329153269527,5.427386283504963,2.507450438195467
1776223448299000600,24.00300048828125,-1.3863807083964348,6.000054069268703,1.363647483062744
1776223448318850600,24.0228505859375,-1.0877192488610743,6.866521261489391,0.552737342891097
1776223448338700500,24.042700439453125,-0.9953022464483976,7.554711615443229,-0.3402729883402586
1776223448358550300,24.06255029296875,-0.8361075636617838,8.015738058364391,-1.194866202893853
1776223448378400300,24.082400146484375,-0.583500729945302,8.222073116379976,-2.0184487776339055
1776223448398250200,24.102250244140624,-0.4063683124732226,8.279556752577424,-2.8463492155730723
1776223448418100500,24.1221005859375,-0.4037876483302563,8.481890758258103,-3.5687533892959356
1776223448437950500,24.141950439453126,-0.564557471479103,8.54388807248771,-4.1596284474015235
1776223448457800400,24.161800537109375,-0.49820035460479556,8.755811159768701,-4.4676405036062
1776223448477651500,24.1816513671875,-0.174861549930647,8.929179183205962,-4.868973817586898
1776223448497501400,24.20150146484375,0.21352467725872992,8.84682472512424,-5.554189539644121
1776223448517351400,24.221351318359375,0.5165706354886294,8.400659751248359,-6.421748618754744
1776223448537201400,24.241201416015624,0.7294726508043706,7.590356929320096,-7.446168823137879
1776223448557051400,24.261051513671877,0.8891963989663869,6.887959770837425,-7.907385235673189
1776223448576901400,24.2809013671875,1.146276140313223,6.6099313494861125,-7.811161242192983
1776223448596751400,24.30075146484375,1.3517073082916438,6.784631498309969,-7.105313066473602
1776223448616601300,24.320601318359376,1.5775065068423748,7.194661328965425,-6.430022526103258
1776223448636451600,24.34045166015625,1.1314870789170264,6.865649739351868,-6.310093831908702
1776223448656301600,24.360301513671875,0.26766850150898097,6.731966660571098,-5.249567710399627
1776223448676151600,24.380151611328124,-0.19191256490945816,6.828748872455954,-3.687786011433601
1776223448696001500,24.40000146484375,-0.05435571343526244,6.951342401945591,-2.107654416784644
1776223448715851300,24.419851318359374,0.5050264742977917,7.440909879696369,-0.47488194979429244
1776223448735702500,24.43970263671875,1.0153877337522803,7.741886045914888,0.7693506338149309
1776223448755552500,24.459552490234376,1.595824253821373,7.394775905030965,1.5550433306217193
1776223448775402200,24.47940234375,2.119614903691411,6.72586308299899,2.3088614642620087
1776223448795252200,24.499252197265626,2.4504157148092984,6.387950978571176,3.2497476453900336
1776223448815102500,24.5191025390625,2.0247966853559016,5.2938516732841725,3.1099469605118033
1776223448834952400,24.538952392578125,0.8826339717108755,4.65770364125669,3.1192046182006594
1776223448854802400,24.558802490234374,-0.3446557334691286,4.364163177996874,3.221029500427842
1776223448874652400,24.57865234375,-1.425142692989111,3.9142157629728316,3.0026030226022002
1776223448894502400,24.59850244140625,-2.108234847021103,2.968526565477252,2.6174060199081897
1776223448914352400,24.618352294921873,-2.4519430705070495,1.893877810591459,2.6110820775836703
1776223448934202400,24.638202392578126,-2.8232985948532816,0.9369541023761033,2.9877351238161323
1776223448954052400,24.65805224609375,-3.930551980745792,0.10711071367561817,3.430862337431311
1776223448973902300,24.67790234375,-5.279180758374929,-1.0031044446319342,3.7854672179847952
1776223448993753300,24.69775341796875,-5.946329493343829,-2.549479900151491,3.8208985968500375
1776223449013603300,24.717603271484375,-6.017369945728778,-3.513855677938461,4.02807711995244
1776223449033453600,24.73745361328125,-6.069411098611354,-3.7322587748885154,4.37957526666224
1776223449053303600,24.757303466796873,-6.4752984226346015,-3.5090468163520097,4.855083531661331
1776223449073153500,24.777153564453126,-7.104940726029873,-3.204356013524532,5.549692812746763
1776223449093003500,24.79700341796875,-7.608779890239238,-2.48450444689393,6.639490621447563
1776223449112853500,24.816853515625,-8.641229087299108,-2.057942583632469,7.613091323697566
1776223449132703500,24.836703369140626,-9.755941557025908,-2.0349036533504723,8.260251748126745
1776223449152553500,24.856553466796875,-10.526250222218035,-2.1120102739065882,8.602131587141752
1776223449172403500,24.876403564453124,-10.771986731773614,-1.9516209745079278,8.37624310287237
1776223449192253700,24.896253662109373,-10.42877885902524,-1.359037358918786,7.877167792063951
1776223449212103700,24.916103759765626,-9.134242906111478,-1.123526475301385,6.689110684663057
1776223449231953700,24.93595361328125,-7.6044930067002765,-1.2684329588860273,5.642786106985807
1776223449251803600,24.9558037109375,-6.279796893322468,-0.7133680498301982,5.128717809706926
1776223449271654700,24.975654541015626,-5.3941784259080885,0.4876917470067739,4.944286540463566
1776223449291504600,24.995504638671875,-4.634944112437963,1.7009575299441813,4.516083924257755
1776223449311354600,25.015354736328124,-4.023535384869575,2.74499078181386,3.8471862997949122
1776223449331204600,25.03520458984375,-3.785511057126522,2.770911989533901,2.8577830482572315
1776223449351054300,25.055054443359374,-3.716735042542219,2.7749972130209204,2.615030522948503
1776223449370904300,25.074904296875,-3.4340713626056907,3.7819571640372276,3.4220313807219265
1776223449390754600,25.094754638671876,-2.9326334143191573,5.099781053557992,3.7252906894415614
1776223449410604500,25.1146044921875,-2.128138109625876,6.14741437574625,3.0759377234041687
1776223449430454500,25.13445458984375,-1.3533493764102458,6.5131830398708574,1.8006325406610966
1776223449450304500,25.154304443359376,-0.5744505044620484,6.931964332258701,0.8090677271753549
1776223449470154500,25.174154541015625,-0.009867314019799232,7.549750193643569,0.25604046142697334
1776223449490004500,25.19400439453125,0.352731341766566,8.000106773990392,-0.12057459088265896
1776223449509854500,25.2138544921875,0.6766279995191842,8.165305519497394,-0.6044441492527723
1776223449529704400,25.233704345703124,0.9244657191377132,8.2087132840693,-1.1770803708344697
