time,seconds_elapsed,z,y,x
1776223424399319600,0.103319580078125,-9.055521251574158,-3.489935288646817,1.4100608591914177
1776223424419170600,0.123170654296875,-9.010760903349519,-3.6317616341337557,1.3367425250023603
1776223424439020500,0.1430205078125,-8.953565436443686,-3.7827918612956997,1.3017451536402105
1776223424458871600,0.16287158203125,-8.878142823451757,-3.9359535475283858,1.3628044563673436
1776223424478721500,0.182721435546875,-8.790194490885733,-4.07579368763417,1.5135292708419263
1776223424498572500,0.202572509765625,-8.69997178364694,-4.179960749073326,1.7345894581720231
1776223424518422500,0.222422607421875,-8.60750568139553,-4.248831163942814,2.0071542072899637
1776223424538273500,0.2422734375,-8.515006261396408,-4.313448889803886,2.249267850173265
1776223424558123500,0.26212353515625,-8.404022505679727,-4.403341926696896,2.4805983793660995
1776223424577974500,0.281974609375,-8.279234681016206,-4.514477365843952,2.691495922991633
1776223424597824500,0.301824462890625,-8.18771199709475,-4.619521502378583,2.791376393152773
1776223424617674500,0.321674560546875,-8.15451407637,-4.665203349362313,2.812501891028881
1776223424637525500,0.341525390625,-8.163749522227048,-4.621417399127781,2.857634871958196
1776223424657375500,0.36137548828125,-8.221940429911017,-4.511935864667594,2.8657483280479905
1776223424677226500,0.3812265625,-8.300636365485191,-4.357615656049549,2.877674620424211
1776223424697076500,0.401076416015625,-8.369777121728658,-4.1751019108653065,2.9471579064950344
1776223424716927500,0.420927490234375,-8.417782735484838,-3.993921460111439,3.059396630708873
1776223424736777500,0.440777587890625,-8.449674249786138,-3.8652445190548894,3.135805916650593
1776223424756628500,0.46062841796875,-8.455390873867273,-3.7977933233335612,3.202110572685301
1776223424776478500,0.480478515625,-8.457024028027057,-3.7226647248521445,3.284950183935463
1776223424796329500,0.50032958984375,-8.490580260670185,-3.6038507139012217,3.3305691948160527
1776223424816179500,0.520179443359375,-8.56597247852385,-3.4586668746799227,3.291218596680462
1776223424836030500,0.540030517578125,-8.677010010254383,-3.314969182363152,3.144974727012217
1776223424855880400,0.55988037109375,-8.797885045388341,-3.2007685104265806,2.9193635983794928
1776223424875730400,0.57973046875,-8.899297255161404,-3.114370037651062,2.6969597413554784
1776223424895581400,0.59958154296875,-8.96605257757306,-3.0502593845292925,2.5448385040864347
1776223424915431400,0.619431396484375,-9.002186551749706,-3.006785276722908,2.467846157559752
1776223424935282400,0.639282470703125,-9.01292012721002,-2.9874969311460853,2.4520439005330203
1776223424955132400,0.65913232421875,-9.019023704782128,-3.0100390178218484,2.4015127138219774
1776223424974983400,0.6789833984375,-9.023049891558289,-3.0743887403964996,2.3028446881905196
1776223424994833400,0.69883349609375,-9.021012832772731,-3.1675726355284453,2.181329163195938
1776223425014684400,0.718684326171875,-9.013969928523897,-3.262909909301996,2.0669167482048274
1776223425034534400,0.738534423828125,-9.004010844567418,-3.3439138295575974,1.9789938423410056
1776223425054385700,0.7583857421875,-8.990384470275044,-3.4125974896833298,1.9229018066324293
1776223425074235400,0.7782353515625,-8.972602729868889,-3.473555523993075,1.896628132212907
1776223425094085400,0.79808544921875,-8.952872778004407,-3.5232656035795804,1.8981722929149865
1776223425113936400,0.817936279296875,-8.932125173529982,-3.5587867065548893,1.9293951141744852
1776223425133786400,0.837786376953125,-8.91092222650349,-3.581656417749822,1.984335349499434
1776223425153637400,0.857637451171875,-8.887028140696883,-3.6040155490741133,2.049924696871638
1776223425173487400,0.8774873046875,-8.855927484512328,-3.6340278255000706,2.1299694167062637
1776223425193338400,0.89733837890625,-8.822962788021563,-3.6533167555987833,2.231364529214054
1776223425213188400,0.917188232421875,-8.799522291201352,-3.6311063850954173,2.356662203095853
1776223425233039400,0.937039306640625,-8.789200219151377,-3.551230299825966,2.511794312618673
1776223425252889300,0.956889404296875,-8.782614411020278,-3.4334874252378937,2.6920684621825814
1776223425272739300,0.9767392578125,-8.783830216550827,-3.3173671834155916,2.8301564979240297
1776223425292590300,0.99659033203125,-8.791963838645815,-3.215551945799589,2.9209564205288885
1776223425312440300,1.0164404296875,-8.785100967139005,-3.1167557637438175,3.0460163401320575
1776223425332291300,1.036291259765625,-8.76854964531064,-3.0352848104983567,3.173320823791623
1776223425352141300,1.056141357421875,-8.741517846000194,-2.9863880931213496,3.29207112185657
1776223425371992300,1.075992431640625,-8.716697292998433,-2.932674915373325,3.40426045397073
1776223425391842300,1.09584228515625,-8.729615226760506,-2.833525389835238,3.4547561309769748
1776223425411692300,1.1156923828125,-8.756119787326455,-2.679410932922363,3.510200954823196
1776223425431543300,1.135543212890625,-8.790827528092265,-2.5118621171578766,3.547150629296899
1776223425451393300,1.155393310546875,-8.823880487388372,-2.3506249687582255,3.5754838665947317
1776223425471244300,1.175244384765625,-8.84591111741066,-2.216847635822743,3.606359481851756
1776223425491094300,1.19509423828125,-8.854048831158876,-2.114884660299122,3.6473914572030304
1776223425510945300,1.2149453125,-8.858696364703773,-2.0701452087320384,3.661745561248064
1776223425530795300,1.234795166015625,-8.880025568458437,-2.0888336887195704,3.598931962199509
1776223425550646300,1.254646240234375,-8.913765340974926,-2.1430571540772916,3.4817341542735694
1776223425570496300,1.274496337890625,-8.945795971485971,-2.21553436126709,3.351794353674352
1776223425590346200,1.29434619140625,-8.95872501116395,-2.311620261450857,3.250852684022486
1776223425610197200,1.314197265625,-8.948291879954933,-2.444425096092373,3.1817046212553977
1776223425630047200,1.334047119140625,-8.925365177875756,-2.6106086148530245,3.1133523850411176
1776223425649898200,1.353898193359375,-8.900056549096107,-2.7901263930916786,3.0289550229549405
1776223425669748200,1.373748291015625,-8.878169126936793,-2.9826994677364826,2.9072321388199924
1776223425689598200,1.39359814453125,-8.855995289051533,-3.1931539437696337,2.7469083058729766
1776223425709449200,1.41344921875,-8.830207936844229,-3.4161937606096267,2.554884974065423
1776223425729299200,1.43329931640625,-8.798578288349509,-3.6378555670946833,2.349768790320307
1776223425749150200,1.453150146484375,-8.75470992052853,-3.8533249486804007,2.1627108258351684
1776223425769000200,1.473000244140625,-8.693138138234614,-4.068223836901784,2.0122857249595225
1776223425788851200,1.492851318359375,-8.611258311927319,-4.289322456546127,1.9021910270370541
1776223425808701200,1.512701171875,-8.504797586593032,-4.522916985148191,1.8390284684203564
1776223425828551200,1.53255126953125,-8.369029518231748,-4.774861701694131,1.8249455825321375
1776223425848402200,1.552402099609375,-8.204582467874884,-5.040725637999176,1.8564226708136498
1776223425868252200,1.572252197265625,-8.014467307776211,-5.303762241923809,1.9516143986366687
1776223425888103200,1.592103271484375,-7.807968583631515,-5.543199359074235,2.1163548789821562
1776223425907953200,1.611953125,-7.596956765976548,-5.740978770190477,2.3447367875024674
1776223425927803400,1.631803466796875,-7.3805790373742575,-5.885137065756321,2.6575559517279266
1776223425947654100,1.651654052734375,-7.149348607555031,-5.976366904211044,3.056181468054652
1776223425967504400,1.67150439453125,-6.911175226730108,-5.993852292019128,3.532673775655031
1776223425987355100,1.691355224609375,-6.687939302796125,-5.898814877974987,4.079930641308427
1776223426007205000,1.711205078125,-6.473936486631631,-5.684004252558946,4.685148989804089
1776223426027056400,1.731056396484375,-6.242663971236348,-5.367640547594427,5.328035682436823
1776223426046906000,1.750906005859375,-5.966064121383428,-4.953674546533823,6.003130992496013
1776223426066756400,1.77075634765625,-5.6080725210011,-4.413850168968737,6.725907506662606
1776223426086607400,1.790607421875,-5.070421103560924,-3.754870711930096,7.507473478928208
1776223426106457900,1.810457763671875,-4.353614895975589,-3.0130501823365687,8.254570779880881
1776223426126308900,1.830308837890625,-3.5883451017335055,-2.204140276071429,8.856406792461872
1776223426146158800,1.850158935546875,-2.900196248833835,-1.2996281614862382,9.277404591855406
1776223426166008800,1.8700087890625,-2.3268320052385327,-0.2925490410696715,9.522114680972695
1776223426185859800,1.88985986328125,-1.8642000268168746,0.770975750798732,9.596912440064548
1776223426205709800,1.909709716796875,-1.510825564841181,1.833322365733236,9.514552721285819
1776223426225560800,1.929560791015625,-1.2558452799916267,2.850198292216658,9.298903891479968
1776223426245410800,1.949410888671875,-1.0700186839323491,3.809676068829,8.972836538624763
1776223426265261000,1.969260986328125,-0.9035194502860308,4.709113510498404,8.554431678333877
1776223426285111800,1.98911181640625,-0.7155948590341955,5.547204503062367,8.055236540538072
1776223426304961800,2.0089619140625,-0.4847887190416455,6.327953313726186,7.476122062852978
1776223426324812800,2.028812744140625,-0.21460111085120587,7.030133030065894,6.833853502118587
1776223426344662800,2.048662841796875,0.07889306558147072,7.617697940710187,6.175339324504137
1776223426364513000,2.068512939453125,0.3666388710878789,8.077812529483436,5.548416801461577
1776223426384363800,2.08836376953125,0.6098298243464901,8.40858352998495,5.009415722978114
1776223426404214000,2.108214111328125,0.7638815547540784,8.620232476499677,4.612859706401824
1776223426424064000,2.12806396484375,0.8282455981150268,8.741902461403608,4.366180363038182
1776223426443915000,2.1479150390625,0.8678313932459801,8.812024045377969,4.214915158076584
1776223426463765000,2.167764892578125,0.9391529275946319,8.851398024389146,4.115960278327763
1776223426483616000,2.187615966796875,1.0454988674428314,8.86489638838768,4.060900654406845
1776223426503466000,2.207466064453125,1.1621984435230492,8.849855471122265,4.0619846502512695
1776223426523316000,2.22731591796875,1.2878664120219647,8.8058842274487,4.119246752652526
1776223426543167000,2.2471669921875,1.4188167048379778,8.740082844761014,4.215248335553706
1776223426563017000,2.267016845703125,1.5339870985895394,8.66656986478269,4.325254478409886
1776223426582868000,2.286867919921875,1.6162166151173412,8.590550454941392,4.445298031155764
1776223426602718000,2.306718017578125,1.668550905727595,8.505704764565825,4.58685988048762
1776223426622568000,2.32656787109375,1.6768148762039838,8.407844109794498,4.760970538985729
1776223426642419000,2.3464189453125,1.5956769543051719,8.29731861923933,4.977821145796775
1776223426662269000,2.36626904296875,1.3812475832916795,8.168378351071476,5.247869089788198
1776223426682120000,2.386119873046875,1.0377581901881843,8.00378283215463,5.570721572250127
1776223426701970000,2.405969970703125,0.6314524946223944,7.785592501172423,5.929266130340099
1776223426721820000,2.42581982421875,0.23547223210744558,7.514318814778328,6.296820508837699
1776223426741671000,2.4456708984375,-0.11629609157955273,7.185844985303282,6.672368224176764
1776223426761521000,2.46552099609375,-0.43948122179564086,6.779253896924853,7.072409744781256
1776223426781371000,2.485370849609375,-0.7514676249913871,6.300560279887915,7.477207520002127
1776223426801222000,2.505221923828125,-1.0811731151532382,5.780757822871208,7.847567019048332
1776223426821072000,2.52507177734375,-1.4871905683621762,5.230030650758743,8.161215035313367
1776223426840923000,2.5449228515625,-2.0069659912414846,4.65398286716789,8.395409575635194
1776223426860772900,2.56477294921875,-2.6252380287081003,4.038872654733061,8.542014679831265
1776223426880622800,2.584622802734375,-3.2796845184922216,3.383594390299916,8.600311385977268
1776223426900473900,2.604473876953125,-3.9010301181852816,2.6997216072842476,8.582765207892656
1776223426920323800,2.62432373046875,-4.444518571215868,1.9991960878923534,8.50998580288589
1776223426940174800,2.6441748046875,-4.892363168741762,1.3004422543480991,8.399049393442272
1776223426960024800,2.66402490234375,-5.243959807389975,0.623773338296637,8.263302952390909
1776223426979874800,2.683874755859375,-5.510334615826606,-0.015431631332763936,8.112112273970245
1776223426999725800,2.703725830078125,-5.693997823306918,-0.6141089264377951,7.960631088170409
1776223427019575800,2.723575927734375,-5.797306806612014,-1.1681688231695442,7.822851095464825
1776223427039425800,2.74342578125,-5.8322214681267734,-1.6672003679014742,7.705583729434013
1776223427059276800,2.76327685546875,-5.821170497280359,-2.0895856761306524,7.610387909957766
1776223427079126800,2.783126708984375,-5.778828316113352,-2.4212379895113405,7.54407916226983
1776223427098977800,2.802977783203125,-5.7232402844041586,-2.660655086787045,7.505718744215369
1776223427118827800,2.822827880859375,-5.670723915225267,-2.8043337821424004,7.493263167268037
1776223427138677800,2.842677734375,-5.635030086031556,-2.8488761037021875,7.503380656656622
1776223427158528800,2.86252880859375,-5.6137283548057075,-2.791829689878225,7.540697703137994
1776223427178378800,2.882378662109375,-5.580123606845736,-2.614256908227503,7.628778722172975
1776223427198229800,2.902229736328125,-5.508117524299025,-2.2846648883774874,7.7853282972782845
1776223427218079700,2.922079833984375,-5.368626636022329,-1.8134484753534197,8.003725549009442
1776223427237929700,2.9419296875,-5.139306423738598,-1.249512131447345,8.258124672970176
1776223427257780700,2.96178076171875,-4.8375072506994,-0.6223055307663977,8.507740654307604
1776223427277630700,2.981630615234375,-4.479904649634659,0.06460202140186447,8.72333979975283
1776223427297481700,3.001481689453125,-4.079939701397716,0.8068413563627749,8.881074200728536
1776223427317331700,3.021331787109375,-3.6486443798735735,1.5888643516808747,8.962884468930959
1776223427337181700,3.041181640625,-3.2009201938569545,2.394016658978164,8.955064735090732
1776223427357032700,3.06103271484375,-2.759110492581129,3.2157787402927873,8.84400732961595
1776223427376882700,3.080882568359375,-2.3464110043250024,4.054421521520615,8.615475637361406
1776223427396733000,3.10073291015625,-1.9805415101744233,4.887461660435796,8.268045178481936
1776223427416583700,3.120583740234375,-1.6755450023986398,5.675720992860198,7.819789954328536
1776223427436434000,3.140433837890625,-1.4253493214771151,6.378646559131145,7.311062433555722
1776223427456284700,3.16028466796875,-1.2027638973411172,6.983966322174668,6.778492849424481
1776223427476134700,3.180134765625,-0.9810223036181182,7.502338454127312,6.238823077899217
1776223427495985000,3.19998486328125,-0.7583375838261097,7.936763305848836,5.709914938884973
1776223427515835600,3.219835693359375,-0.5429053924456239,8.291491520521044,5.208339627954364
1776223427535686000,3.239685791015625,-0.3362386547902599,8.572336168336868,4.751040681123733
1776223427555536600,3.25953662109375,-0.14810154416575097,8.790510717228054,4.344579941126704
1776223427575387000,3.279386962890625,0.0026962373636313713,8.960594312167167,3.9847409593120213
1776223427595236900,3.29923681640625,0.12895845227851532,9.08925634791553,3.679561788445711
1776223427615087900,3.319087890625,0.2912639148962684,9.181337250241636,3.4334546920120714
1776223427634937900,3.338937744140625,0.5542152334239333,9.238228765764832,3.2432036305740475
1776223427654788600,3.35878857421875,0.8748900065205991,9.270278100976347,3.0768314573735
1776223427674638800,3.378638916015625,1.1602769739411771,9.284676628684997,2.935801230700314
1776223427694488800,3.39848876953125,1.358847097043693,9.278899798849224,2.8680887536942956
1776223427714339800,3.41833984375,1.4614980548314749,9.256799610722064,2.888961445853114
1776223427734189800,3.43818994140625,1.4664631298929451,9.22555165502131,2.984805792365968
1776223427754040800,3.458040771484375,1.3546950919307768,9.185774355906247,3.1554344539672132
1776223427773890800,3.477890869140625,1.1099654943954198,9.130970752573013,3.4005484477102756
1776223427793740800,3.49774072265625,0.7703649984892458,9.041377575409411,3.7189275841504332
1776223427813591800,3.517591796875,0.41102457731384784,8.894702328586577,4.109223663549125
1776223427833441800,3.53744189453125,0.10598508891286328,8.684584244900941,4.5538063366696235
1776223427853292800,3.557292724609375,-0.09744465784896164,8.418075580951571,5.029605109047889
1776223427873142800,3.577142822265625,-0.1997990255766548,8.107058497712016,5.514167325857281
1776223427892992800,3.59699267578125,-0.24965956475082784,7.756258270138502,5.995706979975104
1776223427912843800,3.61684375,-0.30435857519842685,7.363328627365827,6.469864707148075
1776223427932693800,3.63669384765625,-0.39749103240408,6.921387408664822,6.935906932404637
1776223427952544800,3.656544677734375,-0.5366241567516699,6.423310461243987,7.390770761042833
1776223427972394800,3.676394775390625,-0.7149565611306578,5.863172486707568,7.828308191826939
1776223427992246000,3.69624609375,-0.9096947048548608,5.256120785304904,8.228975735375284
1776223428012095700,3.716095703125,-1.1016701058674603,4.614461588640511,8.582740073451399
1776223428031945700,3.73594580078125,-1.2832834681458771,3.9541096742048856,8.88192526459992
1776223428051797000,3.755796875,-1.460795897911489,3.2853096648976203,9.123772365501523
1776223428071646700,3.775646728515625,-1.641432451047003,2.607937057556212,9.309927389797569
1776223428091498000,3.795498046875,-1.8342469332322477,1.9232652331173419,9.439650332775711
1776223428111347500,3.815347412109375,-2.044373346354812,1.23718427253291,9.511061956560612
1776223428131197400,3.835197509765625,-2.26734345895946,0.5625402133725583,9.524341124850512
1776223428151048400,3.85504833984375,-2.4824749868929383,-0.09270270575257018,9.486785593438148
1776223428170898400,3.8748984375,-2.6667709393188357,-0.7226335254993289,9.40938495837152
1776223428190749400,3.89474951171875,-2.825211442737281,-1.3238942954756319,9.297088951012492
1776223428210599400,3.914599365234375,-2.9963308104649182,-1.8975164593547582,9.1428564206779
1776223428230450400,3.934450439453125,-3.1737560003384946,-2.395566811029613,8.964314209473132
1776223428250300400,3.954300537109375,-3.348610755202174,-2.720709450255334,8.806528370571137
1776223428270150400,3.974150390625,-3.5256732492431997,-2.812199693211913,8.708130540183186
1776223428290001400,3.99400146484375,-3.6878330654457208,-2.6979522595241665,8.677057356527447
1776223428309851400,4.013851318359375,-3.80698054613471,-2.435805151785165,8.703111250716447
1776223428329702400,4.033702392578125,-3.875244227282703,-2.0613269653737545,8.76948020415902
1776223428349552400,4.053552490234375,-3.89002035613209,-1.5989891475930809,8.858971674513816
1776223428369403400,4.0734033203125,-3.846130945523083,-1.0582989469788968,8.958664805409311
1776223428389253400,4.09325341796875,-3.737941788960993,-0.4387343854837119,9.055698361706733
1776223428409103400,4.113103271484375,-3.5595471695333716,0.2492227259698324,9.134435213813186
1776223428428954400,4.132954345703125,-3.3046129157826303,0.9832610224556178,9.18058438604772
1776223428448804400,4.152804443359375,-2.993760083194077,1.7524258513748645,9.172610922950506
1776223428468655400,4.1726552734375,-2.6634040932342407,2.5583096878170966,9.084697661697865
1776223428488505300,4.19250537109375,-2.343746169029921,3.3922412226140497,8.897749441197513
1776223428508356400,4.2123564453125,-2.0538556065797806,4.203174451400339,8.618896843981743
1776223428528206300,4.232206298828125,-1.837616409665346,4.916694769182801,8.283698674687743
1776223428548056300,4.252056396484375,-1.7119550170376896,5.532765643343329,7.913792764627933
1776223428567907300,4.2719072265625,-1.63805786004737,6.074120591476559,7.522779184609651
1776223428587757300,4.29175732421875,-1.5668101946525275,6.549740207895637,7.128563593679666
1776223428607608300,4.3116083984375,-1.4959515285752714,6.965047102171182,6.739483612072467
1776223428627458300,4.331458251953125,-1.4513621530033647,7.313609779950976,6.36985359634459
1776223428647309300,4.351309326171875,-1.4148175521992146,7.5998016340136525,6.0342094368487595
1776223428667159300,4.3711591796875,-1.3476773221231997,7.851073565864563,5.719684637749195
1776223428687009300,4.39100927734375,-1.2350548592887818,8.08058316324055,5.4174897433906795
1776223428706860300,4.4108603515625,-1.0856051062513141,8.278459020468592,5.143830623164773
1776223428726710300,4.430710205078125,-0.9108469436299055,8.43693225711286,4.915172674182057
1776223428746561500,4.4505615234375,-0.7136463553149253,8.563533853200077,4.725144023323058
1776223428766411300,4.470411376953125,-0.5028638163711875,8.670442322301865,4.554221639472246
1776223428786262500,4.490262451171875,-0.3106463136984035,8.75859056135416,4.4001115664735435
1776223428806112500,4.510112548828125,-0.1532664069824852,8.817615581774712,4.289120211972296
1776223428825962200,4.529962158203125,-0.028737374819046816,8.844725707018375,4.2356119091466065
1776223428845813500,4.5498134765625,0.05462038312028162,8.841779716694354,4.241504474316537
1776223428865663500,4.56966357421875,0.06486940820035525,8.79876475083232,4.329885645341873
1776223428885514500,4.589514404296875,-0.04339063077401369,8.697979148524999,4.5291994264185425
1776223428905364500,4.609364501953125,-0.25190054861065,8.532673435512185,4.827049277310073
1776223428925215500,4.629215576171875,-0.5015785258010029,8.314055234506725,5.17641713399291
1776223428945065500,4.6490654296875,-0.7371851979430765,8.055087487456202,5.544593443781137
1776223428964915500,4.66891552734375,-0.9287962956879288,7.763104190510511,5.919620934638381
1776223428984766500,4.688766357421875,-1.0755969955213367,7.442695594069361,6.294423384568095
1776223429004616400,4.708616455078125,-1.1697284006364643,7.079175001132488,6.684864133134484
1776223429024467500,4.728467529296875,-1.1930997777432202,6.667244305291772,7.091878415361046
1776223429044317400,4.7483173828125,-1.1753723978728055,6.216963128268718,7.492545958909392
1776223429064167400,4.76816748046875,-1.1633678526286035,5.739635538887978,7.865974197876453
1776223429084018400,4.788018310546875,-1.181956379372999,5.2336809899598355,8.208651909270882
1776223429103869000,4.807868896484375,-1.212464038100466,4.685121517275274,8.529358611875772
1776223429123720000,4.827719970703125,-1.22282856105268,4.093935785785317,8.826934614261985
1776223429143570000,4.84756982421875,-1.202947875605896,3.476712526719272,9.090420715519786
1776223429163421000,4.8674208984375,-1.1656451499108225,2.860348222570121,9.307527342918515
1776223429183271000,4.88727099609375,-1.1242031324539332,2.25032539640218,9.478534482443331
1776223429203121000,4.907120849609375,-1.0757567891929298,1.640809935234487,9.608375498843193
1776223429222972000,4.926971923828125,-1.0267900022543965,1.032620827299729,9.697927174952625
1776223429242822000,4.94682177734375,-0.9963982980567961,0.43729416008014227,9.74609353222847
1776223429262673000,4.9666728515625,-0.9848800750248133,-0.13938378377356567,9.756073658972978
1776223429282523000,4.98652294921875,-0.972464391696453,-0.6785575062770396,9.734692432770132
1776223429302374000,5.006373779296875,-0.9519901973359286,-1.1538557087220251,9.691889648354053
1776223429322223900,5.026223876953125,-0.9221288006227463,-1.5449319787129758,9.640188687211275
1776223429342073900,5.046073974609375,-0.8713177009917795,-1.8379405270531772,9.593391864722967
1776223429361924900,5.0659248046875,-0.7935361037835479,-2.0402225102856755,9.559193242523074
1776223429381774800,5.08577490234375,-0.7061142062444239,-2.1594385261662303,9.53984322988689
1776223429401625900,5.1056259765625,-0.6343278308629989,-2.16535637190789,9.543545007014274
1776223429421475800,5.125475830078125,-0.5947182895302772,-2.017851980784535,9.578359715285897
1776223429441325800,5.145325927734375,-0.5851759696811437,-1.718437803185731,9.637162617388366
1776223429461176800,5.1651767578125,-0.5911756850199773,-1.3078311955556272,9.701056120628119
1776223429481026800,5.18502685546875,-0.6055394702088087,-0.8264527233488858,9.752983876264095
1776223429500877800,5.2048779296875,-0.6269317292623221,-0.3102578258374706,9.781669288000463
1776223429520727800,5.224727783203125,-0.6484525831315666,0.22536674368390813,9.7825910790205
1776223429540577800,5.244577880859375,-0.6618327275779098,0.7818987844165414,9.752999073833227
1776223429560428800,5.2644287109375,-0.6752182057864964,1.3617435491375625,9.688143447563052
1776223429580278800,5.28427880859375,-0.7155749852899461,1.9488683147989212,9.58437503005266
1776223429600129800,5.3041298828125,-0.7715488745115697,2.5153835692822932,9.44711292374134
1776223429619979800,5.323979736328125,-0.8311156736586243,3.0593519147843122,9.280086962807179
1776223429639830800,5.343830810546875,-0.8927388208135962,3.5985745270639655,9.078747813382744
1776223429659680800,5.3636806640625,-0.9764248928252607,4.13939989836514,8.836422573575376
1776223429679530800,5.38353076171875,-1.0930660897817461,4.671741811220348,8.552801446783542
1776223429699381800,5.4033818359375,-1.235923751077801,5.165895155456662,8.24356949339509
1776223429719231700,5.423231689453125,-1.3836827014841138,5.595054049474,7.934178550052643
1776223429739082800,5.443082763671875,-1.5148637343160807,5.951922783306241,7.645272176334261
1776223429758932700,5.4629326171875,-1.6139251431792974,6.237346575605869,7.393317522916197
1776223429778782700,5.48278271484375,-1.6513843746103345,6.474630898636579,7.1779159458696835
1776223429798633700,5.5026337890625,-1.624895011613518,6.673052699309587,7.000033075356483
1776223429818483700,5.522483642578125,-1.556469710163027,6.81406100641191,6.878689253666996
1776223429838335000,5.5423349609375,-1.484405759949237,6.890435805562138,6.8182713175833225
1776223429858184700,5.562184814453125,-1.4044946033664047,6.931591991814971,6.793440827709436
1776223429878035000,5.582034912109375,-1.3149993336193262,6.959509341788292,6.782801360273361
1776223429897886000,5.601885986328125,-1.251080403677374,6.965123674538731,6.789128225207328
1776223429917736000,5.62173583984375,-1.2912158685803412,6.892641206651926,6.855264538937806
1776223429937587000,5.6415869140625,-1.3379247205242515,6.7954375544846055,6.942791431221366
1776223429957437000,5.66143701171875,-1.2605344607211648,6.718028151589632,7.032036233338713
1776223429977287000,5.681286865234375,-1.2808148860752582,6.602637100824714,7.136882509213685
1776223429997138000,5.701137939453125,-1.441220844347775,6.437679178336262,7.256000471547246
1776223430016988200,5.72098828125,-1.5951391941666602,6.221423030287027,7.410790051242708
1776223430036838000,5.740837890625,-1.7022528304517268,5.960713992527127,7.59885529307425
1776223430056689000,5.76068896484375,-1.7735853976510465,5.673845262116194,7.799504706668853
1776223430076539100,5.7805390625,-1.8236289469756184,5.391349339962005,7.986120918735861
1776223430096390000,5.800389892578125,-1.9050569378621875,5.116732772880792,8.14617820970118
1776223430116240100,5.820240234375,-1.9948997058726845,4.848393678633869,8.287571132206915
1776223430136090000,5.840090087890625,-2.0622014101207253,4.576786522501707,8.424414136323332
1776223430155941000,5.859941162109375,-2.092766644254327,4.288537151387334,8.567331491917372
1776223430175791000,5.879791015625,-2.087724120042473,3.961712842684984,8.724484293612838
1776223430195642000,5.89964208984375,-2.0554634801678358,3.5755420265227555,8.897243829762935
1776223430215492000,5.9194921875,-1.9859259796917437,3.1410201441675425,9.07526698552966
1776223430235342000,5.939342041015625,-1.8581766748741269,2.6863869094148276,9.246668677330016
1776223430255193000,5.959193115234375,-1.6726256078206,2.2345696088656783,9.401033309611677
1776223430275043000,5.97904296875,-1.4478915542833506,1.7931338554687797,9.531981410470605
1776223430294893000,5.99889306640625,-1.2124222447853534,1.3619060462228954,9.635643444997072
1776223430314744000,6.018744140625,-0.9795478471513837,0.9365603538181633,9.712555419763921
1776223430334594000,6.038593994140625,-0.7491658508550375,0.5122507629955187,9.764566177508234
1776223430354445000,6.058445068359375,-0.5138411009268835,0.09445260902666486,9.792723765978216
1776223430374295000,6.078294921875,-0.27603900109976526,-0.31881840464025735,9.797579389315842
1776223430394145000,6.09814501953125,-0.052089599700761026,-0.7504640009067952,9.777755329427123
1776223430413996000,6.11799609375,0.13367305057710036,-1.1834039478328078,9.734067578870057
1776223430433846000,6.137845947265625,0.2775374229639768,-1.566137702218443,9.676806645512581
1776223430453696000,6.157696044921875,0.3810288501638919,-1.863133712759614,9.620495560225844
1776223430473547000,6.177547119140625,0.45135728182196616,-2.0738078228928147,9.57423474431038
1776223430493397000,6.19739697265625,0.4799668153105303,-2.198185751581192,9.545050735402107
1776223430513248300,6.217248291015625,0.43566286908388135,-2.2171960108689963,9.542780452382564
1776223430533098000,6.237097900390625,0.30831808994654564,-2.117754808907956,9.570289221554994
1776223430552948000,6.256947998046875,0.11187197326067834,-1.9118043662957847,9.617840661802887
1776223430572799200,6.27679931640625,-0.11908595976009964,-1.635856112219393,9.668514033463596
1776223430592649000,6.29664892578125,-0.34359694513119754,-1.3131548747964203,9.712257898122072
1776223430612499000,6.3164990234375,-0.5349628359433263,-0.9506593140583485,9.745790749889611
1776223430632350200,6.33635009765625,-0.6937196387693285,-0.5451816302819177,9.766877377060055
1776223430652200000,6.356199951171875,-0.8214048653747886,-0.10300834725755266,9.771646491158007
1776223430672051200,6.37605126953125,-0.9136558635707944,0.3618490064628422,9.757288879981637
1776223430691901200,6.395901123046875,-0.9792925572160631,0.8517564567577093,9.720384505954383
1776223430711751000,6.4157509765625,-1.0487635683272034,1.3848868165768682,9.651558222487568
1776223430731602200,6.435602294921875,-1.1514344729244708,1.971687903241813,9.537139231625199
1776223430751452000,6.455451904296875,-1.2686805039063096,2.6006229351505636,9.370036698323487
1776223430771302000,6.475302001953125,-1.3537367682926356,3.251877058634162,9.15221636969745
1776223430791153200,6.495153076171875,-1.369210962408781,3.9103567494571205,8.888462557414174
1776223430811003000,6.5150029296875,-1.2984506421394646,4.571933529512584,8.577983818835019
1776223430830852900,6.534852783203125,-1.1390429011240601,5.223307479983568,8.221313822445273
1776223430850704100,6.5547041015625,-0.8995042963605373,5.838752331200242,7.827531946757436
1776223430870553900,6.574553955078125,-0.6130426123805344,6.400255164349079,7.404817406573891
1776223430890404000,6.594404052734375,-0.3263124501900747,6.902820655360817,6.958085446465015
1776223430910255000,6.614255126953125,-0.0658167811862193,7.352086517861485,6.489444436886906
1776223430930105000,6.63410498046875,0.15150372642520815,7.7477838717818255,6.009930151116848
1776223430949955000,6.653955078125,0.3104499143434688,8.068176101610064,5.565838476383686
1776223430969806000,6.67380615234375,0.4148353312410414,8.296639989325403,5.211915732875466
1776223430989656000,6.693656005859375,0.48755160788372154,8.452824822771548,4.947970781934261
1776223431009507000,6.713507080078125,0.5492207496048882,8.57119693517387,4.73321627061963
1776223431029357300,6.733357421875,0.6126307071113959,8.666705473861098,4.547887760275602
1776223431049207000,6.75320703125,0.6684548491314053,8.739165729916095,4.398922356688976
1776223431069058300,6.773058349609375,0.7009641300048679,8.780642234164477,4.3103789808392525
1776223431088908300,6.792908203125,0.687627751635015,8.783217053088546,4.30727838447541
1776223431108757200,6.81275732421875,0.6059686919389292,8.74486248025298,4.3966549962788815
1776223431128608300,6.832608154296875,0.46741249069645996,8.664959506976604,4.568414415475726
1776223431148458200,6.852458251953125,0.30842410760428757,8.548065650433301,4.796438158208131
1776223431168308200,6.87230810546875,0.15279309951546602,8.400603637146949,5.057359377413988
1776223431188159200,6.8921591796875,0.00656355748338392,8.22331347182989,5.342981907156109
1776223431208009200,6.91200927734375,-0.1186690221228171,8.010784819871187,5.655405934584141
1776223431227859200,6.931859130859375,-0.2068455465546809,7.751359392181039,6.003669337156414
1776223431247710200,6.951710205078125,-0.2549453596666455,7.433500480222701,6.3912792462110515
1776223431267560200,6.971560302734375,-0.27408176608476786,7.061583230340481,6.79921473493576
1776223431287410200,6.99141015625,-0.277558611882478,6.647536565259099,7.204417583826184
1776223431307261200,7.01126123046875,-0.26848653989359733,6.199462542891502,7.593746571758389
1776223431327111200,7.031111083984375,-0.24968621529573573,5.714706264814734,7.965563868397473
1776223431346961200,7.050961181640625,-0.21817526127723977,5.188030999419093,8.31908095371425
1776223431366812200,7.070812255859375,-0.1683545243904926,4.627752447368204,8.644418238729237
1776223431386662100,7.090662109375,-0.10056420550844632,4.0511949606895445,8.930178715637325
1776223431406512400,7.110512451171875,-0.023933191691001412,3.47692178555578,9.169559718686342
1776223431426363100,7.130363037109375,0.05485324659466277,2.910982723525166,9.364484909415244
1776223431446213000,7.150213134765625,0.13821063007465562,2.3518965961292384,9.519446923068164
1776223431466063400,7.1700634765625,0.2189692064002156,1.7979970775909722,9.637926587498187
1776223431485914000,7.1899140625,0.2862619601568207,1.2500634817197918,9.722438515874742
1776223431505764400,7.209764404296875,0.33799773688465357,0.7130578879024833,9.77485084015727
1776223431525614300,7.2296142578125,0.37012590948604046,0.21323572251582518,9.797343826994299
1776223431545465300,7.24946533203125,0.38862726940363646,-0.2201786004562862,9.796473473900557
1776223431565315300,7.2693154296875,0.3886746887419373,-0.5727877954142168,9.782191266047954
1776223431585165300,7.289165283203125,0.3659088763128966,-0.841825356786698,9.763596455693245
1776223431605016300,7.309016357421875,0.3220767853816971,-1.0256153324518351,9.747552498865128
1776223431624866300,7.3288662109375,0.25552971715955064,-1.1116485521115362,9.740089907899499
1776223431644716300,7.34871630859375,0.1588628022174351,-1.0751461099486797,9.74623966270089
1776223431664567300,7.3685673828125,0.03489665550061036,-0.8956935059007257,9.765598443165421
1776223431684417300,7.388417236328125,-0.10097234791791997,-0.5803035048065707,9.788944831961393
1776223431704267300,7.408267333984375,-0.22752532822359353,-0.17581592804603277,9.8024332590878
1776223431724118300,7.4281181640625,-0.3453512414526194,0.2683425100467168,9.79689257609546
1776223431743968300,7.44796826171875,-0.4579324589611962,0.7243971741709858,9.769131293466687
1776223431763818200,7.467818359375,-0.5689243614517152,1.1953355739712714,9.7168867269665
1776223431783669200,7.487669189453125,-0.6658000968389213,1.6954134859509764,9.636008771178126
1776223431803519200,7.507519287109375,-0.7389363524593412,2.2295646401852367,9.52120808752179
1776223431823369200,7.527369140625,-0.795146680785343,2.795914328843355,9.36594855222702
1776223431843220200,7.54722021484375,-0.8535094379048794,3.389811365118623,9.162481743124127
1776223431863070200,7.5670703125,-0.9134639211952685,4.001649424014985,8.906333729669452
1776223431882920200,7.586920166015625,-0.9648931527245789,4.61818470081687,8.597194130739569
1776223431902770200,7.606770263671875,-0.9927163216084242,5.228959806656837,8.236678564837575
1776223431922621200,7.62662109375,-0.9859756151765584,5.826443469247222,7.826288668698072
1776223431942471200,7.64647119140625,-0.9329559726506471,6.400802861359715,7.370868375220894
1776223431962321400,7.6663212890625,-0.8276989240176975,6.942774480086564,6.876277516350149
1776223431982172200,7.686172119140625,-0.6628112172212451,7.4368147193372245,6.358053852957487
1776223432002022100,7.706022216796875,-0.4623048653591424,7.8739038218319415,5.82737753522694
1776223432021872400,7.725872314453125,-0.27657995784236117,8.251671551308036,5.29186196077168
1776223432041723100,7.74572314453125,-0.14542730172150767,8.555171098524331,4.791477905452251
1776223432061573400,7.765573486328125,-0.08496389166144654,8.771595004355907,4.384325383798778
1776223432081423400,7.78542333984375,-0.11170713808778673,8.906325546362996,4.103080046227574
1776223432101274600,7.805274658203125,-0.20007033506501465,8.981306845328211,3.9327451068758963
1776223432121124900,7.825124755859375,-0.28839225018378345,9.025383302941918,3.824877437353134
1776223432140974800,7.844974853515625,-0.34758049834202975,9.05930369272232,3.73879606770277
1776223432160824800,7.864824951171875,-0.37028128271084276,9.082916623499989,3.6788431187823414
1776223432180675800,7.88467578125,-0.3627836934970692,9.083035865965485,3.679298169073462
1776223432200525800,7.90452587890625,-0.3588839826447889,9.04891732326448,3.7627997513636946
1776223432220375800,7.924375732421875,-0.3919236806005239,8.9772607848078,3.9275408162310717
1776223432240226800,7.944226806640625,-0.46839927324410524,8.868094892168045,4.160275513133406
1776223432260076800,7.964076904296875,-0.5565504349058493,8.720229558777808,4.451767519430816
1776223432279926800,7.9839267578125,-0.6228831845238805,8.53516232971847,4.788881751479209
1776223432299777800,8.00377783203125,-0.6505888645078987,8.321030918738245,5.148549468380213
1776223432319627800,8.023627685546876,-0.6320209421601146,8.086284589752555,5.512072399404644
1776223432339477800,8.043477783203125,-0.5771692619014531,7.829343380093574,5.876959019997716
1776223432359327700,8.06332763671875,-0.5068068914411589,7.540509487089515,6.249340380260348
1776223432379178800,8.0831787109375,-0.4388561486998573,7.207899580723047,6.635055269348621
1776223432399028700,8.10302880859375,-0.37641415944267065,6.821295049318671,7.035525244498253
1776223432418878700,8.122878662109375,-0.30865429963096974,6.3772524744242425,7.443504572364687
1776223432438729700,8.142729736328125,-0.22492758508166297,5.879646067124605,7.84535168108642
1776223432458579700,8.162579833984376,-0.1296286522908136,5.336240616202354,8.22667155008614
1776223432478429700,8.1824296875,-0.04766144909416325,4.758234684281051,8.574805773320794
1776223432498280700,8.20228076171875,0.0017700070596736622,4.156383474130928,8.8822777312994
1776223432518130700,8.222130615234375,0.020009622755809687,3.543895426893234,9.143893947032094
1776223432537980700,8.241980712890625,0.008250420870826928,2.938204784710705,9.356134429699182
1776223432557831000,8.261830810546876,-0.023060363512381443,2.3600869168475267,9.518394783666729
1776223432577681700,8.281681640625,-0.06556473352075554,1.8244613061465322,9.63521908210516
1776223432597532000,8.301531982421874,-0.11082142302813008,1.3354912097670137,9.714657360479235
1776223432617382000,8.3213818359375,-0.14941105586173944,0.8956029050078242,9.764525260975956
1776223432637231900,8.34123193359375,-0.17553912039864808,0.5134371963011101,9.791625449347496
1776223432657083000,8.361082763671876,-0.19118711844542993,0.20156773401591926,9.80271382959485
1776223432676932900,8.380932861328125,-0.19358879102598875,-0.021715323845285454,9.804715232545137
1776223432696782800,8.400782958984376,-0.18674968398725614,-0.14369007526589556,9.803819745010138
1776223432716633900,8.4206337890625,-0.1928779576092027,-0.16288961004810407,9.803400642815232
1776223432736483800,8.44048388671875,-0.22248099564714355,-0.08674988002907484,9.803742588120699
1776223432756333800,8.460333740234375,-0.28843945032637563,0.09580743030225858,9.801939338091016
1776223432776183800,8.480183837890625,-0.38602095936276015,0.40009858455397185,9.790877845850586
1776223432796034800,8.500034912109374,-0.488836496595107,0.8117041400935501,9.760766785225272
1776223432815884800,8.519884765625,-0.5752797583604231,1.2914585912950336,9.70420435552597
1776223432835734800,8.53973486328125,-0.6372082816701382,1.801867197022587,9.618608139044046
1776223432855585800,8.559585693359375,-0.6779838711075484,2.319826071999222,9.50416284469664
1776223432875435800,8.579435791015625,-0.7005174822159111,2.844441336125135,9.358890450409055
1776223432895285800,8.59928564453125,-0.7059009288199245,3.378046693044901,9.17937442573607
1776223432915135700,8.6191357421875,-0.6938092898141592,3.915843071913719,8.964105535158515
1776223432934986800,8.63898681640625,-0.6729828479498624,4.452475375439226,8.711655207177996
1776223432954836700,8.658836669921875,-0.6579346241608262,4.977218503728508,8.424059916058182
1776223432974687000,8.67868701171875,-0.6528461419153958,5.4762622503548855,8.108928383237123
1776223432994537700,8.698537841796876,-0.6499377071227878,5.939214692902564,7.776483896565437
1776223433014388000,8.718387939453125,-0.6302702991005033,6.365086820334196,7.433627905994653
1776223433034238000,8.738238037109374,-0.5823886039849371,6.764184922608733,7.076508996793628
1776223433054088000,8.758087890625,-0.5049204931726679,7.141668574446439,6.701641664934158
1776223433073939000,8.77793896484375,-0.40083099048174914,7.495736279383301,6.310598274299502
1776223433093789000,8.797788818359376,-0.2761616593650542,7.822158437025546,5.908293484938144
1776223433113639200,8.81763916015625,-0.14132509056706913,8.112778628924488,5.507561059460044
1776223433133489200,8.8374892578125,-0.005298411797973676,8.3559911729604,5.133009369421005
1776223433153340200,8.857340087890625,0.11737454359917901,8.544477270552516,4.811289105859399
1776223433173190100,8.877190185546874,0.197777547952719,8.678629135888814,4.562087842802703
1776223433193040100,8.8970400390625,0.2311659132156521,8.763490023833512,4.395245714002847
1776223433212890000,8.91689013671875,0.23008195390384642,8.812883292555808,4.295410252027214
1776223433232741000,8.9367412109375,0.21739731744099408,8.842602723515034,4.234559185223281
1776223433252591000,8.956591064453125,0.21082566569941116,8.854018436020612,4.210970804364979
1776223433272441000,8.976441162109374,0.21467932718656957,8.839052337557076,4.242107408645749
1776223433292291000,8.996291015625,0.2189373864898458,8.79432296899259,4.33386331680119
1776223433312142000,9.01614208984375,0.20249615570614113,8.723249783381819,4.475969063751399
1776223433331992000,9.035991943359376,0.1561637723918073,8.623083189755677,4.667806809858978
1776223433351842000,9.055842041015625,0.08403357027508318,8.486835228922963,4.912938631519675
1776223433371692300,9.0756923828125,0.005490745186677668,8.31268453067541,5.202849798366427
1776223433391543000,9.09554296875,-0.06281072210487909,8.105635186910629,5.519523884454369
1776223433411393300,9.115393310546875,-0.1104764546485152,7.878094843780994,5.838988478043675
1776223433431243300,9.1352431640625,-0.13447300531575457,7.638551928168535,6.148563545781373
1776223433451093200,9.15509326171875,-0.13236675375150517,7.381475109431147,6.454975181052088
1776223433470944300,9.1749443359375,-0.11008536383854224,7.094420501059293,6.769599933394789
1776223433490794200,9.194794189453125,-0.08480481950906105,6.764201873743533,7.099911499691009
1776223433510644200,9.214644287109374,-0.0768827030065935,6.373659418368339,7.452580443745851
1776223433530494000,9.234493896484375,-0.09973005623924545,5.912243683868646,7.823413990044593
1776223433550345200,9.25434521484375,-0.15021245363880878,5.38082034716308,8.197231520590186
1776223433570195200,9.2741953125,-0.23051333105843513,4.792085515956581,8.552961021259426
1776223433590045000,9.294044921875,-0.32515940769743173,4.1623847603723405,8.87351165651977
1776223433609895000,9.31389501953125,-0.41256954173352567,3.5039626449555157,9.149995771038531
1776223433629746200,9.33374609375,-0.4987177295424044,2.838486811634898,9.373615141332149
1776223433649596000,9.353595947265624,-0.5901778696216643,2.1960094304554163,9.539373858809471
1776223433669446000,9.37344580078125,-0.6813388075586408,1.6102243889652192,9.649525255355238
1776223433689296100,9.393296142578125,-0.7613507941674441,1.1038131092455237,9.714543378710745
1776223433709147000,9.41314697265625,-0.8207040236290544,0.6811578980337828,9.748480719625949
1776223433728997000,9.4329970703125,-0.850765838285163,0.34284364254586397,9.76365899953544
1776223433748847000,9.45284716796875,-0.8505905547834932,0.0957528505708091,9.769223647925257
1776223433768697000,9.472697021484375,-0.8268206798784434,-0.04369342681260314,9.771633631676435
1776223433788548000,9.492548095703125,-0.7894003922183066,-0.06862892056407872,9.774584298175572
1776223433808398000,9.512398193359376,-0.7567818788167089,0.012422053703642449,9.777396432986855
1776223433828248000,9.532248046875,-0.7370042153529822,0.19662954696137458,9.77693992139101
1776223433848098000,9.55209814453125,-0.7272878541111946,0.4874404025942087,9.767488202434778
1776223433867949000,9.571948974609375,-0.7215636312454938,0.873548747979477,9.740977212128042
1776223433887799000,9.591799072265625,-0.7159989828556775,1.32550173067227,9.690240712103247
1776223433907649000,9.61164892578125,-0.7217207215033471,1.810461860758066,9.611021629437804
1776223433927499000,9.6314990234375,-0.7416498492017388,2.302128795006126,9.503712178319692
1776223433947350000,9.65135009765625,-0.7678694553464651,2.786824428936839,9.370932770380378
1776223433967200000,9.671199951171875,-0.7849282152403145,3.266194922322035,9.21337314144969
1776223433987050000,9.691050048828124,-0.7785062193688005,3.744387604099512,9.030164691999554
1776223434006900000,9.71089990234375,-0.7507721900731325,4.221816900289059,8.81946676259935
1776223434026751000,9.7307509765625,-0.7105678977176547,4.7007653688699005,8.577196467849612
1776223434046601000,9.75060107421875,-0.6720688018448651,5.185212434867024,8.296522500425576
1776223434066451200,9.770451171875,-0.6479900071211159,5.672597307881713,7.973215259933471
1776223434086301200,9.79030126953125,-0.6358022142644971,6.144692257305979,7.616356462973356
1776223434106150400,9.810150390625,-0.6175301330581308,6.583211684864759,7.242263622617721
1776223434126001400,9.83000146484375,-0.573636630795896,6.983667046967148,6.860736832869052
1776223434145851400,9.849851318359375,-0.5002017210224643,7.3548162350863215,6.467368798679113
1776223434165701400,9.869701416015625,-0.4197359262315556,7.706437715914845,6.050206047403812
1776223434185551400,9.88955126953125,-0.3571679725071415,8.039494197005032,5.604405230665207
1776223434205402400,9.90940234375,-0.30465708322096613,8.34747059737444,5.13783109048903
1776223434225252400,9.92925244140625,-0.24821422478072344,8.615448749354481,4.677906763590872
1776223434245102300,9.949102294921875,-0.19465371684376148,8.82242853501439,4.277527389334142
1776223434264952300,9.968952392578124,-0.15395420658355577,8.95814808805883,3.9872625867441296
1776223434284803300,9.98880322265625,-0.12758859783057122,9.033070350313187,3.8154602051883932
1776223434304653300,10.0086533203125,-0.11151634648973122,9.067189477536083,3.7341704537287352
1776223434324503300,10.02850341796875,-0.09989974111719056,9.075878395426273,3.713335170970857
1776223434344353500,10.048353515625,-0.08080365757630206,9.061564038869738,3.7485914855301377
1776223434364203500,10.06820361328125,-0.061996245650528,9.02293532526791,3.8409897832423447
1776223434384054500,10.088054443359376,-0.08198166098026559,8.962915448591113,3.978666900095343
1776223434403904500,10.107904541015625,-0.17137814652798697,8.881231437116861,4.155086420057714
1776223434423754500,10.12775439453125,-0.3207317639809102,8.765980087083578,4.384644825011492
1776223434443604500,10.1476044921875,-0.4938388349270448,8.602742997038364,4.681806985899806
1776223434463454500,10.167454345703124,-0.6590466770559549,8.386881985786557,5.039472423067688
1776223434483305500,10.187305419921875,-0.7891623456787318,8.13196555995345,5.423907209217548
1776223434503155500,10.207155517578125,-0.8799319462105631,7.8614879923731085,5.795958314612507
1776223434523005400,10.22700537109375,-0.9181737793866545,7.587374114117026,6.144842479431629
1776223434542855400,10.24685546875,-0.884932238715887,7.303104752549529,6.484747803503274
1776223434562706400,10.26670654296875,-0.8096908275097608,6.993999055889248,6.826328367310762
1776223434582556400,10.286556396484375,-0.7375741972606629,6.644564855971932,7.174687046951055
1776223434602406400,10.306406494140624,-0.6931862625449895,6.241736919519305,7.531972544890642
1776223434622256600,10.326256591796875,-0.6795028243031352,5.77845948280096,7.89417854809761
1776223434642106600,10.346106689453125,-0.6922860988348722,5.25607051642239,8.250142442044615
1776223434661957400,10.365957275390626,-0.7206505349885672,4.686339076371491,8.584245801839232
1776223434681807600,10.3858076171875,-0.762747436157614,4.087966063725948,8.881280536955595
1776223434701657600,10.40565771484375,-0.8152597136832773,3.4800846335008737,9.132072576335071
1776223434721507600,10.425507568359375,-0.8790530444841831,2.8781676646381613,9.33347894577682
1776223434741357600,10.445357666015624,-0.9511613452963531,2.297511802729964,9.486153140753506
1776223434761208600,10.46520849609375,-1.0237727733250708,1.7488501848451792,9.59498760948181
1776223434781058600,10.48505859375,-1.0927584120720624,1.2356037253431975,9.666930563664435
1776223434800908500,10.504908447265626,-1.1579260269008576,0.7665741548389196,9.707829560285806
1776223434820758500,10.524758544921875,-1.2123087014082818,0.3547479788186028,9.72496014330685
1776223434840609500,10.544609619140624,-1.2581284224927425,0.012982452648936304,9.725601948341726
1776223434860459500,10.56445947265625,-1.3128959315992892,-0.24557861558012664,9.71526409420073
1776223434880309500,10.5843095703125,-1.3775802929557859,-0.4189689969796687,9.700366969320177
1776223434900159200,10.6041591796875,-1.445366858111322,-0.5057728356856852,9.68635481058061
1776223434920009500,10.624009521484375,-1.5224633956648408,-0.47342440792974083,9.676175361871719
1776223434939860500,10.643860595703124,-1.6155575666867195,-0.27789113177247343,9.668667762720585
1776223434959710500,10.66371044921875,-1.6960497380279003,0.08493394404775463,9.658497666361928
1776223434979560400,10.683560546875,-1.7290419070474803,0.5661352056572213,9.636405661541223
1776223434999410400,10.703410400390625,-1.7063706410340964,1.1109989290963858,9.592933599561452
1776223435019260400,10.723260498046875,-1.6439622617855667,1.6826966277189552,9.520310261899231
1776223435039111400,10.743111328125,-1.5513015137448907,2.264396153461188,9.414688909998535
1776223435058961400,10.76296142578125,-1.431020937372744,2.8520851288765665,9.272980930194258
1776223435078811400,10.782811279296874,-1.306500969865173,3.447912840953469,9.087097708576916
1776223435098661400,10.802661376953125,-1.1928219837151468,4.049520889997482,8.851493301457166
1776223435118511900,10.822511962890625,-1.0935719934772699,4.648396591468155,8.56544757786691
1776223435138363000,10.84236279296875,-1.0138573823798447,5.236925086447596,8.229039448261261
1776223435158212900,10.862212890625,-0.9472273668482899,5.798700891318917,7.851638214009999
1776223435178062800,10.882062744140624,-0.8817269398685544,6.31578765963614,7.450085119798779
1776223435197912800,10.901912841796875,-0.8076878171242773,6.779532713866233,7.039601115635037
1776223435217763000,10.92176318359375,-0.713907563534379,7.197759879502653,6.622156624808907
1776223435237613800,10.94161376953125,-0.5931215218581259,7.58503602655828,6.1875529093891375
1776223435257463800,10.9614638671875,-0.4630771649058908,7.9499565494209525,5.7231245490700005
1776223435277314000,10.98131396484375,-0.3422161582972854,8.28167155277431,5.2409126947790385
1776223435297164000,11.0011640625,-0.24718226965079082,8.559448045191168,4.779656827016175
1776223435317014000,11.021013916015624,-0.19931007301593198,8.771928766354918,4.379946730323136
1776223435336865000,11.040864990234375,-0.20266922898441553,8.920534104457497,4.068587701778114
1776223435356715000,11.060715087890625,-0.2310651379886083,9.015171121007203,3.8527509481847284
1776223435376565000,11.08056494140625,-0.2463381835094653,9.073914986398815,3.7113086335793137
1776223435396415000,11.1004150390625,-0.22847320353295653,9.114951930186152,3.610515432487428
1776223435416265000,11.120264892578126,-0.16740129705257714,9.143599932521582,3.540753621736169
1776223435436116000,11.140115966796875,-0.08223632072792388,9.15792481047213,3.506573411975801
1776223435455966000,11.159966064453124,-0.007085601175422198,9.158567784550785,3.5058459744840857
1776223435475816000,11.17981591796875,0.016083108378283213,9.146591515552997,3.5369492610171434
1776223435495666000,11.199666015625,-0.029492049660847987,9.109056442406773,3.6324376336991784
1776223435515516000,11.219515869140626,-0.12090754916407168,9.02698197031021,3.830061561992764
1776223435535366000,11.239365966796875,-0.21681933488994837,8.894111961477995,4.125306491082907
1776223435555217200,11.259217041015624,-0.27621050347546117,8.71591929436326,4.486294935193658
1776223435575067000,11.27906689453125,-0.2831387866349891,8.503926648977398,4.875802202302217
1776223435594916900,11.298916748046874,-0.24854995954111217,8.262719015023112,5.275992775988579
1776223435614766800,11.318766845703125,-0.20659007395626977,7.9839353913903235,5.690734437596798
1776223435634616800,11.338616943359375,-0.19438469064403324,7.65161657692492,6.130691204482317
1776223435654467800,11.3584677734375,-0.2238516994784586,7.247938745644688,6.602096418076753
1776223435674317800,11.37831787109375,-0.27181767534399404,6.766024997517466,7.093478251773119
1776223435694167800,11.398167724609374,-0.3201320445220917,6.210520528000592,7.5827008616089815
1776223435714017800,11.418017822265625,-0.3701772743470967,5.592978412243723,8.046859172815084
1776223435733867800,11.43786767578125,-0.42573169604763383,4.932056588965654,8.465458094373345
1776223435753718000,11.457718017578125,-0.48360648698713626,4.256498629830777,8.821492130947112
1776223435773568800,11.47756884765625,-0.5359621126463636,3.599082476586103,9.106576900550722
1776223435793419000,11.4974189453125,-0.5863875374279915,2.9926266952499745,9.320447030246257
1776223435813269000,11.51726904296875,-0.6357789795193821,2.453450844721496,9.473476030009984
1776223435833119000,11.537118896484374,-0.6763350079219788,1.979221659747511,9.581004676836729
1776223435852969000,11.556968994140625,-0.7023149600919336,1.5553941898860035,9.657013565284013
1776223435872820000,11.576820068359375,-0.7131595947112888,1.1777994058240204,9.709509476196766
1776223435892670000,11.596669921875,-0.7119870438005775,0.8584731247268617,9.743023038741946
1776223435912520000,11.61652001953125,-0.7166373538244515,0.6099713151764125,9.761391639125346
1776223435932370000,11.636369873046876,-0.7467685073897242,0.44302404550164937,9.76813468364477
1776223435952220000,11.656219970703125,-0.8015886965315788,0.36100218037515874,9.76716613087356
1776223435972070000,11.67606982421875,-0.8772003292895852,0.3702180082162842,9.76032021050155
1776223435991921000,11.6959208984375,-0.9551095714654773,0.4837313189432025,9.748032975858449
1776223436011771000,11.71577099609375,-1.0174456161301582,0.7049808913655579,9.728217099276184
1776223436031620900,11.735620849609376,-1.064051007699594,1.0149757919505238,9.695772042745352
1776223436051471000,11.75547119140625,-1.103421260383725,1.3880644236996769,9.645005732104181
1776223436071321000,11.775321044921874,-1.1417981911815702,1.796342880643159,9.57286988569796
1776223436091171000,11.795171142578125,-1.1872619384352117,2.220740989999473,9.477823119303583
1776223436111022000,11.81502197265625,-1.236398236721754,2.6526982825636862,9.359748528543115
1776223436130872000,11.8348720703125,-1.2806488818585873,3.0957489238113163,9.216650555685161
1776223436150722000,11.85472216796875,-1.3221741936847566,3.5604710063800216,9.041309770870209
1776223436170572000,11.874572021484376,-1.371388452578336,4.052336239679158,8.824300174105167
1776223436190422000,11.894422119140625,-1.4210536701098084,4.56773520103991,8.560771402749419
1776223436210272000,11.91427197265625,-1.4605334475830196,5.09696833422482,8.249735614809394
1776223436230123000,11.934123046875,-1.4780727575354278,5.625200765934586,7.895746235805749
1776223436249973000,11.953972900390625,-1.4707482598662376,6.135352766552567,7.507645328363775
1776223436269823000,11.973822998046876,-1.4442989366188645,6.612929946780205,7.096023844602704
1776223436289673200,11.993673095703125,-1.3909545921832323,7.050790033647417,6.672481621423363
1776223436309523200,12.013523193359376,-1.2886878114074467,7.449321734210848,6.246382114976644
1776223436329373200,12.033373291015625,-1.1419403030660003,7.816411417806148,5.811202060973644
1776223436349224200,12.05322412109375,-0.9751176826842128,8.15574858660102,5.357544685515761
1776223436369074200,12.07307421875,-0.8071320829376578,8.459234689813853,4.8949227900967
1776223436388924200,12.092924072265625,-0.6471144663956016,8.712626098036765,4.454410727415978
1776223436408774100,12.112774169921876,-0.49721207421980795,8.906541819462179,4.0739033438429235
1776223436428624100,12.1326240234375,-0.3631147886149585,9.047830697071552,3.7650060292363166
1776223436448473900,12.152473876953126,-0.2538392433219589,9.149194391527772,3.521109010067582
1776223436468325000,12.1723251953125,-0.15977746937694026,9.218028273779153,3.342579366083443
1776223436488175000,12.192175048828124,-0.07770547236525453,9.25598829433918,3.238987181922793
1776223436508024800,12.21202490234375,-0.020574933054950086,9.259913358828426,3.228616010034084
1776223436527875000,12.231875,-0.006932414770306786,9.22874022192955,3.3167309313386677
1776223436547725000,12.25172509765625,-0.04560758073769975,9.164911600619554,3.488941309173405
1776223436567575000,12.271574951171875,-0.1247624710265547,9.06892726111412,3.729530226707458
1776223436587426000,12.291426025390624,-0.22770967181455343,8.932854656848312,4.040126161925494
1776223436607276000,12.311276123046875,-0.3427960405444726,8.751353011316061,4.412106540171802
1776223436627126000,12.3311259765625,-0.4541840662131086,8.523473645490407,4.828508243946731
1776223436646976000,12.35097607421875,-0.5474762805577367,8.254513496735692,5.2662756840944285
1776223436666826000,12.370825927734375,-0.6171518012650311,7.943931882303953,5.716943814608454
1776223436686676000,12.390676025390626,-0.6573632540136576,7.578851784965395,6.188639535582065
1776223436706526000,12.41052587890625,-0.6650897566124796,7.148872222214937,6.679944796910881
1776223436726377000,12.430376953125,-0.6468295850396156,6.655911010372638,7.1729241289317605
1776223436746227000,12.45022705078125,-0.6120283938366919,6.112714818286896,7.643985059133172
1776223436766077000,12.470076904296874,-0.5767090605111792,5.538596833714842,8.072282367885112
1776223436785927200,12.48992724609375,-0.5596395965602249,4.952172909799218,8.445897653856873
1776223436805777200,12.509777099609375,-0.5664833249751479,4.364895876185596,8.7634000074625
1776223436825627100,12.529627197265626,-0.586540499499999,3.784710554398596,9.027865182885527
1776223436845478100,12.54947802734375,-0.6025331645322963,3.220877816997468,9.243011908388137
1776223436865328000,12.569328125,-0.6062031582819297,2.684512055453658,9.412560081276297
1776223436885178000,12.58917822265625,-0.5995734014112502,2.187616280641407,9.540714752024412
1776223436905028000,12.609028076171874,-0.5812574810631573,1.7390797553285955,9.633696987104415
1776223436924878000,12.628878173828125,-0.5520523928342387,1.3441504631713033,9.698395376986264
1776223436944728000,12.64872802734375,-0.5180648195691406,1.0087279105369,9.740864983925222
1776223436964578000,12.668578125,-0.4848773106405511,0.7354574973676353,9.767004218310117
1776223436984429000,12.688428955078125,-0.4579492274329066,0.5253294768098742,9.781856335005164
1776223437004279000,12.708279052734374,-0.4476486365623772,0.3858677415624261,9.788824420452118
1776223437024129300,12.72812939453125,-0.460822444781661,0.3331425884710625,9.790151285141706
1776223437043979000,12.74797900390625,-0.49542511773779985,0.37761458474099635,9.786845813855528
1776223437063829000,12.7678291015625,-0.550521676135622,0.5211799559149891,9.777304663050174
1776223437083679000,12.787678955078125,-0.6193113904517143,0.7701257829058915,9.756727738967538
1776223437103529000,12.807529052734376,-0.687147055445984,1.1299232636664063,9.71707260492742
1776223437123380000,12.8273798828125,-0.7356888219054788,1.5787345873326062,9.650738722798227
1776223437143230000,12.84722998046875,-0.7623855440426618,2.0758440048955378,9.554058802244066
1776223437163080000,12.867079833984375,-0.7738242720976471,2.577599202437699,9.4301407461524
1776223437182930000,12.886929931640625,-0.783980486061424,3.051466422231495,9.286782076531647
1776223437202780000,12.90677978515625,-0.7949920747455209,3.4925825882852077,9.129088592088221
1776223437222630100,12.926630126953125,-0.7950017193567007,3.9297733975887295,8.949594194725154
1776223437242480000,12.946480224609376,-0.7781118862889707,4.388017808575928,8.735572673860192
1776223437262331100,12.9663310546875,-0.7490588833492249,4.881731300090253,8.472190032976865
1776223437282181000,12.98618115234375,-0.7103088083900511,5.393915975579619,8.159137059995532
1776223437302031000,13.006031005859375,-0.6623469607103616,5.895837323468923,7.808378917998075
1776223437321880800,13.025880859375,-0.6000099296649918,6.360986983799934,7.4396385445863
1776223437341730800,13.045730712890625,-0.5231503426725045,6.780207836648821,7.065796464121341
1776223437361580800,13.065580810546875,-0.4302934144726023,7.157507364091277,6.6899407057464115
1776223437381430800,13.0854306640625,-0.31961514450851825,7.498138664349913,6.312378143453597
1776223437401281800,13.10528173828125,-0.1883136088357307,7.805125469160079,5.934215861701965
1776223437421131800,13.1251318359375,-0.044688835624698546,8.077501563838124,5.560786453691125
1776223437440981800,13.144981689453125,0.08394535313551314,8.310533490121363,5.2056122488170855
1776223437460832000,13.16483203125,0.18080467624403534,8.495687812942267,4.894998193420469
1776223437480682000,13.184681884765626,0.259816235372331,8.624955997890234,4.659723456646502
1776223437500532000,13.204531982421875,0.3344910439379513,8.701590324759483,4.510081176711618
1776223437520382000,13.2243818359375,0.39922512618768957,8.741240198102593,4.427381850714982
1776223437540233000,13.24423291015625,0.45028724143765864,8.758899773433804,4.387401137982309
1776223437560083000,13.2640830078125,0.5030852040369064,8.758969916060567,4.3815243549034
1776223437579933000,13.283932861328125,0.5604865687783808,8.741428998672962,4.409496942195296
1776223437599783000,13.303782958984375,0.6081971816433593,8.705229558044671,4.4743122364550825
1776223437619633000,13.3236328125,0.6253074159961194,8.648270822504163,4.581132150490582
1776223437639483000,13.34348291015625,0.5827689450720325,8.57335615903437,4.725286062142253
1776223437659332900,13.363332763671876,0.46807413294296707,8.48152426303327,4.900515203276276
1776223437679183000,13.38318310546875,0.29987973101763055,8.363328091719746,5.112259426859021
1776223437699033900,13.403033935546874,0.12104875686620362,8.200695981830359,5.376275689470767
1776223437718884000,13.422884033203125,-0.0445838774128817,7.983117645266652,5.695457374465465
1776223437738734000,13.442734130859375,-0.1747177575457841,7.714630959242582,6.051804714772105
1776223437758584000,13.462583984375,-0.2544125496978871,7.405706464368104,6.423486402332783
1776223437778434000,13.48243408203125,-0.301756576006487,7.066261159023642,6.793179546424746
1776223437798283800,13.50228369140625,-0.3375983257709071,6.688442576143145,7.16387982173264
1776223437818133800,13.5221337890625,-0.38213988014571365,6.261157659304142,7.538053910630941
1776223437837985000,13.541985107421874,-0.45037020701337604,5.786574984717369,7.904625707831978
1776223437857834800,13.561834716796875,-0.5505190092545003,5.269109446215629,8.25250332595706
1776223437877684700,13.581684814453125,-0.6695172907311469,4.715330485317111,8.572501003509759
1776223437897534700,13.60153466796875,-0.7931644939921796,4.138631252080202,8.855111491954325
1776223437917385000,13.621385009765625,-0.9175067668452859,3.5586209945991634,9.09201762932241
1776223437937235000,13.64123486328125,-1.0426837369568644,2.9967022741258145,9.27916867891848
1776223437957085000,13.6610849609375,-1.1518785634301603,2.4686983904749153,9.420673829627036
1776223437976935000,13.680934814453124,-1.2245840994831174,1.9882139444984495,9.524588962131737
1776223437996786000,13.700785888671875,-1.259947746874392,1.5636938161976635,9.598841946822404
1776223438016636000,13.720635986328125,-1.2660850805856287,1.1967583002507687,9.65065864329934
1776223438036486000,13.74048583984375,-1.2537404166668653,0.8879881922204047,9.6855563536793
1776223438056336000,13.7603359375,-1.2381658309161663,0.6490920500788837,9.706493927767871
1776223438076185900,13.780185791015626,-1.2336736340634524,0.4992687875539064,9.715922850370406
1776223438096035800,13.800035888671875,-1.2470746751673518,0.4557239525988698,9.716353058481216
1776223438115885300,13.81988525390625,-1.27465694796741,0.5235961867438629,9.709350486242771
1776223438135735300,13.8397353515625,-1.3000240289360283,0.688767277058959,9.69566390619576
1776223438155586300,13.85958642578125,-1.309154260852933,0.9241118641987442,9.674838560310006
1776223438175436300,13.879436279296876,-1.3009738770067691,1.2107198978468776,9.644273910698294
1776223438195286300,13.899286376953125,-1.2806852683462202,1.5509847028806805,9.598160394299029
1776223438215136300,13.91913623046875,-1.250913376547396,1.9606766798838973,9.526875027242303
1776223438234986000,13.938986083984375,-1.2103525989044457,2.4444848634555933,9.419655592495202
1776223438254836000,13.9588359375,-1.1560669550307094,2.9815277936086058,9.270619461759924
1776223438274686200,13.978686279296875,-1.0918564217310398,3.5291108224764463,9.084251671496034
1776223438294536200,13.9985361328125,-1.0312971044152974,4.042318411272764,8.875047195523976
1776223438314387200,14.01838720703125,-0.9835981454554945,4.489844736629724,8.662805543813109
1776223438334237200,14.0382373046875,-0.9445405389171093,4.867103639800846,8.461059567153454
1776223438354087200,14.058087158203126,-0.9140774499837309,5.200359150594473,8.263843050616979
1776223438373937200,14.077937255859375,-0.8966458381894975,5.521093910250068,8.05505533875227
1776223438393787100,14.097787109375,-0.8986458529002964,5.848958667916059,7.8200062274277204
1776223438413637000,14.11763720703125,-0.9153877288646995,6.1769794929265975,7.561570979818701
1776223438433487000,14.137487060546874,-0.9419105557397007,6.484743711850046,7.2959776771485805
1776223438453337000,14.157337158203125,-0.9673970983695238,6.75866937405765,7.039525712311267
1776223438473188000,14.17718798828125,-0.9802765998173505,6.999651382562518,6.798112911173701
1776223438493038000,14.1970380859375,-0.9637265931632369,7.220107320389151,6.5659472463309765
1776223438512888300,14.216888427734375,-0.9064053809858859,7.430846750843524,6.334930751523375
1776223438532738300,14.23673828125,-0.8136137000419199,7.632576945412159,6.103458914163708
1776223438552588300,14.25658837890625,-0.6982391620203853,7.8173039827316995,5.879848311698437
1776223438572438300,14.276438232421874,-0.5744816667852923,7.980923350092768,5.66967294486761
1776223438592288300,14.296288330078125,-0.45369306782577185,8.124417044270038,5.473427319189906
1776223438612138200,14.31613818359375,-0.34070012771114705,8.24685216832757,5.2956356340914965
1776223438631988200,14.33598828125,-0.2378555470474064,8.34371796684265,5.1474447220087045
1776223438651839200,14.355839111328125,-0.14475041624009607,8.408290684518217,5.044806769832968
1776223438671689200,14.375689208984374,-0.06461381687093526,8.435728142020105,5.000467861890793
1776223438691539200,14.395539306640625,-0.00640039767352573,8.428698097252845,5.012722947829961
1776223438711389200,14.41538916015625,0.02534467734056525,8.398353812393546,5.063336698257923
1776223438731239200,14.4352392578125,0.03065683282363461,8.352961596006155,5.137846288058161
1776223438751089200,14.455089111328125,0.006719483834857237,8.293187218523025,5.233871544095874
1776223438770939100,14.474939208984376,-0.056552173166768624,8.216006363686919,5.353917142668366
1776223438790789000,14.4947890625,-0.16767010405659674,8.118941827729344,5.4977346619725225
1776223438810640100,14.51464013671875,-0.3212830046555027,7.996419025388359,5.667843391352892
1776223438830490000,14.534489990234375,-0.49838404060862956,7.830287382945418,5.882906530225276
1776223438850340000,14.554340087890624,-0.6851765590906143,7.604539183929562,6.15401538144648
1776223438870190000,14.574190185546875,-0.8517610598675907,7.319619249498844,6.470554442977905
1776223438890040000,14.5940400390625,-0.9665971070982515,6.985581940677761,6.814521609660983
1776223438909890000,14.61389013671875,-1.0294032534927129,6.629746057024597,7.152426699826121
1776223438929740300,14.633740234375,-1.0657373533513397,6.283768135040998,7.453110605099797
1776223438949590300,14.65359033203125,-1.0734254236359149,5.957493861436843,7.715337061685323
1776223438969441300,14.673441162109375,-1.0434166543412953,5.643202286571264,7.9521023292779915
1776223438989291300,14.693291259765624,-0.9872639744866639,5.330266802489757,8.172145594650507
1776223439009141200,14.713141357421875,-0.9340107424005866,5.012209737610816,8.377098258396982
1776223439028991200,14.7329912109375,-0.8910885693885385,4.683461767369509,8.569803434988856
1776223439048841200,14.75284130859375,-0.8447570993896574,4.349471804821491,8.74865018209815
1776223439068691200,14.772691162109375,-0.7765953442461788,4.028245754517615,8.907329754969478
1776223439088541200,14.792541259765626,-0.6890802154656499,3.7342557939246293,9.041621321037411
1776223439108393000,14.81239306640625,-0.5881040590222925,3.4764573829144236,9.150890089529753
1776223439128242700,14.83224267578125,-0.48089383049495515,3.2581779123440384,9.237066736248135
1776223439148092700,14.8520927734375,-0.37607608659472314,3.074661127597093,9.304590120422839
1776223439167942700,14.871942626953125,-0.2739953481766395,2.917600388099253,9.358575977632404
1776223439187793000,14.89179296875,-0.17673408407056704,2.77770238032639,9.403378411433101
1776223439207643000,14.911642822265625,-0.09991447289544157,2.6489620186448097,9.441577501446009
1776223439227492900,14.931492919921874,-0.06067732223880011,2.531526894831657,9.474073995903133
1776223439247343900,14.95134375,-0.06813914145287125,2.42546320599094,9.501730064591765
1776223439267193900,14.97119384765625,-0.11929039629101752,2.3334360796786844,9.524243509694934
1776223439287043800,14.9910439453125,-0.20313543999036773,2.257884433479607,9.541022210538387
1776223439306893800,15.010893798828125,-0.3171945662980899,2.202230643057823,9.550913489955663
1776223439326743800,15.030743896484376,-0.4657052483871579,2.1794921570271253,9.550044305905699
1776223439346593800,15.05059375,-0.6557842411939054,2.2153325550846756,9.530616551858186
1776223439366443800,15.07044384765625,-0.8551582280252128,2.333502130652219,9.486510283628105
1776223439386294800,15.090294677734375,-1.0254210519887506,2.548163849116862,9.414125430896878
1776223439406144800,15.110144775390625,-1.1445801500502972,2.8604335627660156,9.310116190367937
1776223439425994800,15.129994873046876,-1.2214539847638457,3.249701760421693,9.171580995380879
1776223439445845000,15.149844970703125,-1.275579177378863,3.6765035699188706,9.001478111219406
1776223439465695000,15.169695068359376,-1.3360253166437148,4.097005402489006,8.809086238360404
1776223439485545000,15.189544921875,-1.4155879520498216,4.486282660233974,8.604636847960949
1776223439505395000,15.20939501953125,-1.4950415741235017,4.837048108755051,8.398702187439799
1776223439525246000,15.229245849609375,-1.542819662734121,5.148880307769775,8.202384665569662
1776223439545096000,15.249095947265625,-1.5418278752177952,5.431966597032547,8.017910726228356
1776223439564946000,15.26894580078125,-1.4983343320585787,5.698802008718252,7.838944152131676
1776223439584796000,15.2887958984375,-1.4291945987284183,5.960429914888739,7.655132476091384
1776223439604645600,15.308645751953126,-1.357958477640897,6.217226747640967,7.461397371929883
1776223439624495900,15.328495849609375,-1.293971012507379,6.462986053550243,7.2612564923793075
1776223439644347000,15.348346923828124,-1.2255774944346398,6.69233140027523,7.0626505673110485
1776223439664196600,15.368196533203125,-1.1341007685467601,6.9070023249596355,6.868589299935102
1776223439684046800,15.388046875,-1.0104321571715176,7.110793543711305,6.6772764544844625
1776223439703896800,15.407896728515626,-0.8643509307190775,7.306563368570804,6.483627859562635
1776223439723746800,15.427746826171875,-0.7152549595553428,7.49693279569149,6.281303790754079
1776223439743596800,15.4475966796875,-0.5774945118004455,7.681452327740192,6.0689510798841715
1776223439763446800,15.46744677734375,-0.451852481460385,7.856092270809412,5.852181721615791
1776223439783297800,15.4872978515625,-0.3399388244824484,8.017229758226872,5.637272896522283
1776223439803147800,15.507147705078125,-0.24730856291158124,8.159350995007157,5.434540246912837
1776223439822997800,15.526997802734375,-0.18209184824405236,8.275673773664236,5.258369441014528
1776223439842847700,15.54684765625,-0.1528824400330428,8.360594282841681,5.1232279801189895
1776223439862697700,15.56669775390625,-0.1572974525968544,8.416482758802175,5.0307531100392335
1776223439882548000,15.5865478515625,-0.18832011164175344,8.451082947540282,4.971329445689916
1776223439902398700,15.606398681640625,-0.2346405305236578,8.463739600017666,4.9477702909260985
1776223439922249000,15.6262490234375,-0.2872568346793763,8.450199734964967,4.968097624161839
1776223439942099000,15.646098876953126,-0.3433833389131352,8.40895879303813,5.034070856285095
1776223439961949000,15.665948974609375,-0.4109553845351562,8.341076512423157,5.1408139056921005
1776223439981799000,15.685798828125,-0.5009400817669928,8.24690886695087,5.282798948872089
1776223440001649000,15.70564892578125,-0.6079603406801819,8.115415991690755,5.471816961383819
1776223440021500000,15.7255,-0.7132337559260428,7.933626761388778,5.720076851937175
1776223440041350000,15.745349853515625,-0.8198055404193699,7.69907975436747,6.018510932457446
1776223440061200000,15.765199951171875,-0.9354067268036306,7.410661456426977,6.354329279476404
1776223440081049900,15.7850498046875,-1.062087014150247,7.071242454567551,6.7111763859987255
1776223440100899800,15.80489990234375,-1.1974222440522164,6.678604488217831,7.080452765983343
1776223440120750600,15.82475048828125,-1.3276929571062326,6.229708043551445,7.456431273955106
1776223440140600600,15.8446005859375,-1.435260182377696,5.729912017253041,7.828059770023822
1776223440160450800,15.864450927734374,-1.5221296336658299,5.201497799235582,8.173000165653228
1776223440180300800,15.88430078125,-1.6040554910719393,4.664351993229985,8.475919282633066
1776223440200150800,15.90415087890625,-1.688611843112111,4.121363014154136,8.736894862374664
1776223440220000800,15.924000732421876,-1.7707311772637069,3.5691014720812437,8.960827536401153
1776223440239851800,15.943851806640625,-1.8531877805456518,3.009160773682594,9.147734255847334
1776223440259701800,15.96370166015625,-1.9361022105976937,2.4555472324788568,9.29474034205973
1776223440279551700,15.9835517578125,-2.017217628403753,1.9303284495018422,9.400800669899583
1776223440299401700,16.003401611328126,-2.0966959465272725,1.454416279876977,9.46883960238099
1776223440319251700,16.023251708984375,-2.1765986275427043,1.0434996564496308,9.504940258809924
1776223440339101400,16.043101318359376,-2.2585490348681807,0.7058690723769366,9.516884379103779
1776223440358952700,16.06295263671875,-2.3477101042248307,0.44542339826095845,9.511058449429273
1776223440378802700,16.082802734375,-2.4412695546709,0.26480688326647506,9.494232986834644
1776223440398652700,16.102652587890624,-2.5329256557136772,0.16555689302859827,9.472447271484135
1776223440418502700,16.122502685546873,-2.61591315100193,0.14824699878473765,9.45015477565527
1776223440438352600,16.1423525390625,-2.6808409657254813,0.22487461278541013,9.430425408312678
1776223440458203600,16.16220361328125,-2.7145374836221334,0.4141278770914301,9.414360408696531
1776223440478053600,16.1820537109375,-2.706817995285988,0.7274100922513753,9.397572940024734
1776223440497903600,16.201903564453126,-2.652978560809791,1.158640824106708,9.369611750909685
1776223440517753600,16.221753662109375,-2.5552067533656952,1.6845071842722594,9.316852220624686
1776223440537603600,16.241603515625,-2.4098772220633924,2.2947788706347345,9.224797037261723
1776223440557453600,16.26145361328125,-2.2034046552732587,2.9896482639610764,9.0761998824656
1776223440577304600,16.2813046875,-1.9231658643960952,3.7620354889929293,8.849797018933296
1776223440597154600,16.301154541015624,-1.566657196047902,4.570004607276618,8.534109605795145
1776223440617004500,16.321004638671877,-1.1581553786773233,5.33999733838737,8.143309376266599
1776223440636854500,16.3408544921875,-0.7585769455399364,5.994299451264738,7.724203674229979
1776223440656704800,16.360704833984375,-0.4364084998194128,6.483048013848066,7.3450669944882385
1776223440676555500,16.380555419921876,-0.22366746548535302,6.794989226195216,7.06742143497467
1776223440696405800,16.40040576171875,-0.11781999494489281,6.960579016846418,6.907015184441208
1776223440716255700,16.420255859375,-0.09788050111611374,7.0370414942801,6.829410551235079
1776223440736105700,16.440105712890624,-0.14146348525760694,7.077335510745644,6.786876646888255
1776223440755955700,16.459955810546877,-0.22152643486866727,7.116078206115961,6.744090813606977
1776223440775805700,16.4798056640625,-0.2986543174085207,7.165442248743772,6.68861910175383
1776223440795656700,16.49965673828125,-0.3133325571076944,7.220808746656775,6.628130438521504
1776223440815506700,16.519506591796876,-0.22232827103715389,7.280178634992241,6.566577945449948
1776223440835356700,16.539356689453125,-0.03578939167280914,7.348671156460046,6.493546611508727
1776223440855206700,16.55920654296875,0.2177648355791345,7.422945768460631,6.404909127634763
1776223440875056600,16.579056640625,0.5226305931147187,7.495637495183944,6.3017994662940495
1776223440894907000,16.598906982421877,0.8510624100789427,7.5622063551127905,6.185395439094305
1776223440914757600,16.618757568359374,1.1501461866796017,7.6313494494438165,6.0506239805549376
1776223440934608000,16.63860791015625,1.3626688472889363,7.714073325359821,5.899711534553766
1776223440954457900,16.658457763671876,1.4582367149479687,7.80924634848237,5.749747767579555
1776223440974307800,16.678307861328125,1.4412288815237582,7.903360217940807,5.6240673779904835
1776223440994157600,16.698157470703126,1.3418281577035784,7.985818136397004,5.531420073953271
1776223441014007600,16.718007568359376,1.1912006661236285,8.05630387750864,5.463276512053609
1776223441033858800,16.73785888671875,1.0108015019405632,8.117543651369214,5.408709055563807
1776223441053708500,16.75770849609375,0.8186356929223984,8.16413939832747,5.370944849836826
1776223441073558500,16.77755859375,0.6334519248113035,8.182367128935455,5.368238513487577
1776223441093408500,16.797408447265624,0.4591122067976743,8.169958313739299,5.404754764980077
1776223441113258500,16.817258544921874,0.28473661375306547,8.136894248527287,5.466285046219825
1776223441133109500,16.837109619140627,0.1005074703525286,8.096106895586848,5.53293106303811
1776223441152959500,16.85695947265625,-0.09568542962409556,8.048772312960029,5.601652717086672
1776223441172809700,16.876809814453125,-0.300916143126972,7.977829475730657,5.695090879240632
1776223441192659700,16.89665966796875,-0.5083378638681024,7.8615733325690025,5.84017330391407
1776223441212509700,16.916509765625,-0.7100212966855615,7.693101849001645,6.040068684270977
1776223441232359700,16.936359619140624,-0.8913025044001638,7.472518485403061,6.287878492969274
1776223441252210700,16.956210693359374,-1.0338964001934974,7.2094152459830045,6.56702101304233
1776223441272060700,16.976060791015627,-1.1302891013041139,6.914791663661599,6.861376884338259
1776223441291910700,16.99591064453125,-1.194055178771913,6.591574439540505,7.1621063823193305
1776223441311760600,17.0157607421875,-1.2438995522625744,6.24168898872435,7.460860196313262
1776223441331610400,17.0356103515625,-1.2889477775178848,5.870437509274482,7.748996754702925
1776223441351460400,17.05546044921875,-1.3203317806884645,5.4880514723479745,8.019253373008967
1776223441371311600,17.0753115234375,-1.3405332955874503,5.104230434182286,8.265603630548716
1776223441391161300,17.095161376953126,-1.3529915028832853,4.70892500218898,8.495047761473058
1776223441411011600,17.115011474609375,-1.36461092126742,4.285361443960666,8.714580739235878
1776223441430861600,17.134861572265624,-1.3847596830658613,3.836274152897298,8.918286033269762
1776223441450711600,17.154711669921873,-1.4181789914563296,3.376312416598201,9.097233902665971
1776223441470561500,17.1745615234375,-1.463564339711517,2.9267832269862293,9.244581934183836
1776223441490412500,17.19441259765625,-1.5152983263410627,2.505948509199917,9.359192063704132
1776223441510262500,17.214262451171876,-1.5707399353168905,2.1304082465149463,9.442698029908538
1776223441530112500,17.234112548828126,-1.6297107413321732,1.8132405316911637,9.498768292176724
1776223441549962500,17.25396240234375,-1.6905476334802805,1.5575712416641414,9.533436869975924
1776223441569812500,17.2738125,-1.7563652366504072,1.3579292515464125,9.552047462421655
1776223441589662500,17.293662353515625,-1.8238981193058192,1.2127235658194868,9.558927869585157
1776223441609513500,17.313513427734375,-1.8898897638686,1.1250506891939789,9.556828266957401
1776223441629363500,17.333363525390624,-1.9547538657061754,1.110157509836182,9.545514845782519
1776223441649213400,17.35321337890625,-2.0155710302405057,1.185513633463159,9.52378232192397
1776223441669063700,17.373063720703126,-2.0646128551766276,1.3564081794589757,9.490412551763653
1776223441688913700,17.39291357421875,-2.090129281488061,1.6151123071372508,9.444212526124716
1776223441708763600,17.412763671875,-2.077207402203232,1.9552897261485456,9.382561248853802
1776223441728614700,17.43261474609375,-2.0183361110396683,2.368564091683179,9.299818668237329
1776223441748464600,17.452464599609375,-1.9162365035243332,2.8472406114548443,9.186492733308672
1776223441768314600,17.472314697265624,-1.7790050846122205,3.3629031921878454,9.038605772608518
1776223441788164600,17.49216455078125,-1.6230167966514826,3.8668502006858585,8.864743243652581
1776223441808014600,17.5120146484375,-1.4716365870080887,4.315581517918408,8.682191212284565
1776223441827864600,17.531864501953127,-1.3404945710122584,4.6934559226393695,8.50558201496899
1776223441847714600,17.551714599609376,-1.2251407104525713,5.009240950933099,8.3412781724751
1776223441867565600,17.571565673828125,-1.1178203726142644,5.286743887105584,8.183594624903797
1776223441887415600,17.59141552734375,-1.0082948528818785,5.551313691946864,8.021012783896923
1776223441907265500,17.611265625,-0.8961399344939738,5.821759695345163,7.840562693244219
1776223441927115500,17.631115478515625,-0.782911322459951,6.10132950091958,7.637486344763636
1776223441946965500,17.650965576171874,-0.6641895198371262,6.377516678318381,7.4200079614430665
1776223441966815500,17.6708154296875,-0.5262004144255071,6.6295256922721855,7.207140871310234
1776223441986666500,17.69066650390625,-0.35991033001784234,6.839806857565045,7.018396999564766
1776223442006516500,17.7105166015625,-0.17064621552424505,7.008064406120777,6.857716608265042
1776223442026366500,17.730366455078126,0.02653622292940272,7.143019404533505,6.7191492645740505
1776223442046216400,17.750216552734376,0.21141643466679377,7.253537880825996,6.5963540750324725
1776223442066066400,17.77006640625,0.35205947038698937,7.34996996409893,6.482621312868595
1776223442085916400,17.78991650390625,0.43137817750200624,7.44243665087223,6.371376860389113
1776223442105766700,17.8097666015625,0.45983876750655467,7.533451969793439,6.261471547558903
1776223442125618000,17.829617919921876,0.4485871229888871,7.619768317243456,6.156971893164515
1776223442145468000,17.849468017578126,0.4119189323376864,7.69503427836895,6.06524170397222
1776223442165318000,17.86931787109375,0.38638683353308584,7.752640079641342,5.993134499138593
1776223442185168100,17.889168212890624,0.4100670939259231,7.795729279783368,5.935387243568897
1776223442205017900,17.909017822265625,0.4960979024328291,7.831041416183114,5.88209813645184
1776223442224867800,17.928867919921874,0.6231679928146302,7.857057316449284,5.835124203830957
1776223442244717800,17.9487177734375,0.7618056252628564,7.866997111183404,5.805201943776011
1776223442264568800,17.96856884765625,0.8867254788082093,7.8560759041965005,5.8022577070176595
1776223442284418800,17.988418701171874,0.9638578913927077,7.824601738524437,5.832406761565804
1776223442304268800,18.008268798828126,0.9489525832056999,7.773723199680447,5.902468139785528
1776223442324118800,18.028118896484376,0.8151422978486865,7.696414334550499,6.022552901324629
1776223442343968800,18.04796875,0.5891261320790275,7.574052860251069,6.201372760426998
1776223442363819000,18.067819091796874,0.33649423698652536,7.39519559174776,6.431815839260816
1776223442383669800,18.087669677734375,0.10726653442499227,7.164370820119976,6.6955731586754315
1776223442403519700,18.107519775390625,-0.06204434540884103,6.899010157161951,6.969231109857559
1776223442423370000,18.127369873046874,-0.16656619793530553,6.624037616249918,7.229438627836108
1776223442443220000,18.147219970703127,-0.22664688315493986,6.351693085753917,7.46826608865559
1776223442463070000,18.167070068359376,-0.26939527050266043,6.076538758534193,7.692430233350396
1776223442482920000,18.186919921875,-0.31128574411310256,5.786594858461618,7.911310884684323
1776223442502770000,18.20677001953125,-0.3598050064798444,5.475418200746178,8.127776291570067
1776223442522621000,18.226620849609375,-0.4189479907242581,5.139748906809091,8.34133370205462
1776223442542471000,18.246470947265625,-0.48740774243362245,4.778846387416124,8.549587160912155
1776223442562321000,18.26632080078125,-0.5645682851340621,4.393196087996661,8.749369144022465
1776223442582171000,18.2861708984375,-0.6470099831078201,3.9865015392437573,8.93641907133162
1776223442602020900,18.306020751953124,-0.7340098558425903,3.563907118308544,9.1066008659482
1776223442621871000,18.32587109375,-0.8176117567021399,3.136334032177925,9.255555163618922
1776223442641721000,18.34572119140625,-0.888280818491429,2.719618147887289,9.380034360724688
1776223442661571000,18.365571044921875,-0.9443246311441064,2.3300116581879555,9.478906822887062
1776223442681422000,18.385422119140625,-0.9920471901752054,1.983428025396168,9.552602758216857
1776223442701272000,18.40527197265625,-1.0337005122952163,1.6835535368092358,9.605597266301512
1776223442721122000,18.4251220703125,-1.070037388632819,1.4237956622943282,9.643558455905318
1776223442740971800,18.4449716796875,-1.1046158769957721,1.2045724811330436,9.66949836832583
1776223442760821800,18.46482177734375,-1.1416048605665563,1.0340824242848903,9.684925654560328
1776223442780671700,18.484671630859374,-1.195442906803265,0.929603885743767,9.68902256848514
1776223442800521700,18.504521728515623,-1.274837565231323,0.9087309743892401,9.680877255952357
1776223442820372700,18.524372802734376,-1.384080614760518,0.9800557966735214,9.658891634115577
1776223442840222700,18.54422265625,-1.5032621438495815,1.1433541153866797,9.623062780365347
1776223442860073000,18.564072998046875,-1.6081227405108511,1.3968449653960764,9.572520926129817
1776223442879923000,18.5839228515625,-1.6773304245106875,1.748622075177729,9.502592234379053
1776223442899773000,18.60377294921875,-1.691818384068459,2.1867766149468717,9.408832000663876
1776223442919623000,18.623622802734374,-1.6440119461461902,2.6694641239255663,9.29201705457568
1776223442939473000,18.643472900390623,-1.5394044474631547,3.1447745282649993,9.1602956312567
1776223442959324000,18.663323974609376,-1.3927614954747258,3.5764191016182303,9.024401306167244
1776223442979174000,18.683173828125,-1.2234238965973256,3.9545948273733256,8.890151825675368
1776223442999023900,18.70302392578125,-1.0517403191156685,4.290104254573583,8.755525328564643
1776223443018873900,18.722873779296876,-0.8959794101700186,4.605528632861375,8.611428992319107
1776223443038723800,18.742723876953125,-0.7708437219168991,4.917374568140507,8.449593585765362
1776223443058574000,18.762573974609374,-0.6882954948287456,5.2329667042106385,8.265149457040428
1776223443078424000,18.782424072265623,-0.6512867836441845,5.554114720842242,8.05593095254302
1776223443098274000,18.802274169921876,-0.6494323148839175,5.871401385870575,7.827851680231094
1776223443118125000,18.822125,-0.6632773734282702,6.1679281714648,7.595202615785598
1776223443137975000,18.84197509765625,-0.667829191513732,6.44038668372929,7.3651757165372365
1776223443157825000,18.861824951171876,-0.6399480088323354,6.695842623266578,7.136283958798646
1776223443177675000,18.881675048828125,-0.5615623082511126,6.9413938393831245,6.9044988177061075
1776223443197525000,18.90152490234375,-0.4264992463540286,7.181209726718068,6.664734952819347
1776223443217375000,18.921375,-0.2438238808672875,7.412965057194232,6.4155187844544646
1776223443237225000,18.941224853515624,-0.03303202838922152,7.631001074397563,6.159311734288931
1776223443257076000,18.961075927734374,0.19403039731364696,7.8274021828979246,5.904617426773905
1776223443276926000,18.980926025390627,0.41997601859774436,7.996041424247622,5.661918092957139
1776223443296776000,19.00077587890625,0.6186455469541251,8.129104325303436,5.450258625048399
1776223443316626200,19.020626220703125,0.7579480730518698,8.216680317425727,5.299253240066767
1776223443336476200,19.04047607421875,0.8291717730492353,8.25317260352075,5.231445778253674
1776223443356326100,19.060326171875,0.8544234840098768,8.247509170931577,5.236309000375867
1776223443376176000,19.080176025390625,0.8542131291948258,8.222021093931794,5.276278022670746
1776223443396026000,19.100026123046874,0.8410026422269642,8.193163832759856,5.323077767768502
1776223443415877000,19.119877197265627,0.8278386247493326,8.16441879979074,5.36910886658132
1776223443435727000,19.13972705078125,0.8060407805696129,8.132256651854515,5.420988106900453
1776223443455577000,19.1595771484375,0.7550007675535977,8.098624431365728,5.478378219595551
1776223443475427000,19.179427001953126,0.6514621402110904,8.062537218940257,5.544501089322567
1776223443495276800,19.19927685546875,0.491721367849037,8.008930716437101,5.63787553859055
1776223443515127000,19.219126953125,0.3073542864156887,7.913472446632385,5.783845852014422
1776223443534977000,19.23897705078125,0.13020437895269132,7.770451630663871,5.981098024386167
1776223443554827000,19.258826904296875,-0.02013349344736198,7.584221787565946,6.216878957116603
1776223443574678000,19.278677978515624,-0.13857842220743186,7.367854580357671,6.470384931629896
1776223443594528000,19.298528076171873,-0.23222901240251956,7.132673951607942,6.7261734641224145
1776223443614378000,19.3183779296875,-0.31711649609319864,6.880519391703605,6.9805655738204715
1776223443634228000,19.33822802734375,-0.4053321012932807,6.603804975560307,7.23849871712625
1776223443654078000,19.358077880859376,-0.498790027593635,6.285916837507486,7.510582550859451
1776223443673928000,19.377927978515626,-0.5846292225185782,5.909433887144923,7.804305969470739
1776223443693778000,19.39777783203125,-0.6475625754892825,5.464893884122372,8.117018166190386
1776223443713628200,19.417628173828124,-0.6832480021808296,4.951747962385416,8.437045654359459
1776223443733478100,19.43747802734375,-0.6781699682641774,4.372980106180906,8.751430752727389
1776223443753329200,19.4573291015625,-0.6138811090312898,3.7465363065659996,9.04195800564587
1776223443773179100,19.47717919921875,-0.4999216619720682,3.102126057627797,9.28963337430954
1776223443793029000,19.497029052734376,-0.3753330862076953,2.4797154590517283,9.48053471634984
1776223443812879000,19.516879150390626,-0.28219509431039913,1.905682960806042,9.615566287130116
1776223443832729000,19.53672900390625,-0.25141267376216125,1.395370216668397,9.703613403895497
1776223443852579000,19.5565791015625,-0.28316892604492605,0.9459519400849938,9.756811325597763
1776223443872429000,19.576428955078125,-0.3602016045819968,0.5457082479719072,9.784826875248552
1776223443892279000,19.596279052734374,-0.46672443536706265,0.18896989905368536,9.793715115103126
1776223443912130000,19.616130126953124,-0.5963207928234711,-0.11389727767636068,9.787838916546105
1776223443931980000,19.63597998046875,-0.7445484932526946,-0.34359223242346193,9.772307585415243
1776223443951830300,19.655830322265626,-0.9111857471302152,-0.478271263439022,9.752505737358332
1776223443971680300,19.67568017578125,-1.0890916331928222,-0.5065867824170738,9.732813779416679
1776223443991530000,19.695530029296876,-1.269629913585633,-0.4216458149734884,9.714969495168328
1776223444011380000,19.7153798828125,-1.4422348436959087,-0.20979345484115183,9.69774948029816
1776223444031230000,19.73522998046875,-1.5848606689974665,0.14297493100017308,9.676681557828188
1776223444051080000,19.755079833984375,-1.6713905130676925,0.6273553615018725,9.642782795357704
1776223444070931000,19.774930908203125,-1.6825629183366895,1.199196194922179,9.586516718256473
1776223444090781000,19.794781005859374,-1.616675464800745,1.8009515434823928,9.503332823613285
1776223444110631000,19.814630859375,-1.4985546968109904,2.388839840862155,9.392453112792968
1776223444130481200,19.834481201171876,-1.353330379448831,2.9443083622828126,9.255805923509596
1776223444150331100,19.8543310546875,-1.1960987403634935,3.4705104572087526,9.093695791667699
1776223444170181400,19.874181396484374,-1.0389408241014928,3.9813203372135755,8.901687949690222
1776223444190031400,19.89403125,-0.8889017999339848,4.482960237812995,8.676593830668926
1776223444209881000,19.913881103515624,-0.7505357509687542,4.9742958942800755,8.418044016769528
1776223444229731000,19.93373095703125,-0.6209436678286642,5.449489394241571,8.129446270608902
1776223444249581000,19.9535810546875,-0.5000954476363957,5.899988597929477,7.817315088647604
1776223444269432000,19.97343212890625,-0.3780625111715868,6.316326004296541,7.492094708010554
1776223444289282000,19.993281982421873,-0.23937972440738228,6.69550184700489,7.161238367313146
1776223444309132000,20.013132080078126,-0.06474802401012275,7.0395455860555165,6.827224439367652
1776223444328982000,20.03298193359375,0.1641782433528453,7.347875037646293,6.4924693376660345
1776223444348832300,20.052832275390625,0.45270683326739813,7.615051225593685,6.16250088571906
1776223444368682200,20.07268212890625,0.7787310411006212,7.833961103022098,5.847479827535152
1776223444388532200,20.0925322265625,1.0861490038696675,7.999222392371297,5.568046215561032
1776223444408382200,20.11238232421875,1.3340313663475214,8.103845965406299,5.358956305879354
1776223444428233200,20.132233154296873,1.5194875947244464,8.147951064592599,5.241418306213617
1776223444448083200,20.152083251953126,1.647681136178225,8.147362451049686,5.203463546350598
1776223444467933200,20.17193310546875,1.724035915453732,8.125296749714016,5.213216878601909
1776223444487783200,20.191783203125,1.7695460591323673,8.09498402903676,5.245026559838652
1776223444507633200,20.211633056640625,1.8047145492777228,8.065339416879414,5.2786050043135875
1776223444527483100,20.231483154296875,1.8376894749015569,8.04134479330778,5.303776854971051
1776223444547333000,20.2513330078125,1.8737458537973462,8.021032073119283,5.3218900192886585
1776223444567183400,20.271183349609377,1.9050325340732932,8.005772544667124,5.333745876777172
1776223444587033300,20.291033447265626,1.9134372281946241,7.999059310764074,5.340805147638917
1776223444606884400,20.31088427734375,1.8640292002946137,7.996998871102929,5.361324204054474
1776223444626734300,20.330734375,1.719334021373093,7.9873788098424665,5.423657618370652
1776223444646584300,20.350584228515626,1.4731708108380437,7.948797442513704,5.551285634896159
1776223444666434300,20.370434326171875,1.1497847329560666,7.864294866487383,5.744670025923848
1776223444686284000,20.390283935546876,0.7845078709363937,7.721991843399405,5.99381196000874
1776223444706134000,20.410134033203125,0.41898127193935214,7.51748400081098,6.283490487143397
1776223444725984000,20.42998388671875,0.09359276819378137,7.256938044658303,6.595335837900638
1776223444745834200,20.449834228515623,-0.1648194273332134,6.954650795841217,6.9120221989482635
1776223444765684200,20.469684326171876,-0.3525365133142099,6.630950172117352,7.216412557524443
1776223444785534200,20.4895341796875,-0.48449331629164516,6.296997034448385,7.502231486621499
1776223444805385200,20.50938525390625,-0.5794528062613681,5.936932719445228,7.783795680883526
1776223444825235200,20.529235107421876,-0.6463255810402333,5.523347242134809,8.077456555652619
1776223444845085200,20.549085205078125,-0.6804660433121025,5.047664497351646,8.380241232597827
1776223444864935200,20.56893505859375,-0.6822177092850208,4.519871041581035,8.676160115426779
1776223444884785200,20.58878515625,-0.6651526657808572,3.960407605305314,8.946682691192626
1776223444904635100,20.60863525390625,-0.6465435346398503,3.398586792248487,9.1761648160398
1776223444924485000,20.628485107421874,-0.6358647581066936,2.86518104955405,9.357180139359832
1776223444944335000,20.648335205078126,-0.6402584630209952,2.380541237463802,9.491757536631821
1776223444964185300,20.668185302734376,-0.661926031884551,1.9535814609259365,9.58726958245039
1776223444984036000,20.6880361328125,-0.6977343543034047,1.5825105987399815,9.65293710962534
1776223445003886300,20.70788623046875,-0.7456778626088053,1.2570007336370645,9.697128718051314
1776223445023736300,20.727736328125,-0.8047756560046225,0.9670112408570944,9.725617145910858
1776223445043586300,20.74758642578125,-0.8745027607686817,0.7150174975376575,9.74137468701303
1776223445063436300,20.767436279296874,-0.9545891277879476,0.5139081382811069,9.74654127599597
1776223445083286300,20.787286376953126,-1.049241707232967,0.3782644634844735,9.74301660900116
1776223445103136000,20.807135986328124,-1.1667317030385136,0.32042456119526175,9.731724230614304
1776223445122985700,20.82698583984375,-1.3046074112035333,0.3511347932901233,9.713140526175499
1776223445142835700,20.846835693359374,-1.4550832193531096,0.4790377177668735,9.686259533512592
1776223445162686500,20.8666865234375,-1.5986116925828158,0.7192012860283256,9.648708678275346
1776223445182536700,20.88653662109375,-1.7074460151806472,1.0830300681315361,9.59593979564011
1776223445202386700,20.90638671875,-1.7631481747888027,1.548758112872392,9.52171369895637
1776223445222236700,20.926236572265626,-1.7751994087189436,2.0735914036631584,9.419090359827875
1776223445242086700,20.946086669921876,-1.7571631090298294,2.6078087550014257,9.288815628185867
1776223445261936600,20.9659365234375,-1.7362062457188963,3.112722854965925,9.136023359787464
1776223445281786400,20.985786376953126,-1.720179970677942,3.5636616191148756,8.972830693405866
1776223445301636400,21.00563623046875,-1.7062157427333295,3.9590371937349436,8.808247449448704
1776223445321486600,21.025486572265624,-1.680942915919423,4.33161612239629,8.636082372060418
1776223445341336600,21.045336669921873,-1.6339081930220125,4.720245729887485,8.439193187782168
1776223445361187600,21.0651875,-1.5595068859018384,5.154758844414353,8.195534069022536
1776223445381037600,21.08503759765625,-1.4508587335258722,5.627002262398601,7.899508803209662
1776223445400887600,21.104887451171876,-1.301445878432691,6.10526450228095,7.5632263458102935
1776223445420737500,21.124737548828126,-1.114302135360241,6.5590440428137775,7.204697569811343
1776223445440587500,21.14458740234375,-0.9032304042115807,6.972913013240695,6.8361594409734
1776223445460437500,21.1644375,-0.677198054492101,7.342272979855537,6.46550885002613
1776223445480287500,21.18428759765625,-0.4174772240519523,7.66851393571198,6.098360714241862
1776223445500137500,21.204137451171874,-0.12130111505892127,7.957592743387818,5.7299552718728775
1776223445519987500,21.223987548828124,0.18295670317877083,8.210567387503385,5.359428015044331
1776223445539837700,21.243837646484376,0.4572844799138605,8.421980187174677,5.003152570930123
1776223445559688400,21.2636884765625,0.6832884803216904,8.585204417738318,4.69018172327429
1776223445579538700,21.28353857421875,0.8456297175057231,8.699463249602914,4.446866303385794
1776223445599388700,21.303388671875,0.9268396086622029,8.772194139292836,4.28485174087286
1776223445619238700,21.32323876953125,0.9391343690246343,8.815067066335677,4.193210983529687
1776223445639088600,21.343088623046874,0.9237048177678138,8.839171580022573,4.145624179707467
1776223445658938600,21.362938720703124,0.907354717599973,8.852149135017395,4.1214746578350665
1776223445678788600,21.38278857421875,0.8979717530310154,8.855094540819525,4.117200049255788
1776223445698638300,21.402638427734374,0.889982142516598,8.844052922323346,4.142591387882828
1776223445718488600,21.422488525390627,0.8710467020306736,8.815664447706938,4.2066280989855525
1776223445738338600,21.442338623046876,0.8264899866193532,8.767198815223574,4.315499977114796
1776223445758189300,21.462189208984373,0.7369208479184657,8.69766233766079,4.469676977869868
1776223445778039600,21.48203955078125,0.5955266102384775,8.600454009318351,4.674178682978451
1776223445797889500,21.5018896484375,0.41964302378371354,8.465175770300625,4.933060213050246
1776223445817739500,21.521739501953125,0.24393572547761722,8.28422649795413,5.242372830459475
1776223445837589500,21.541589599609374,0.10020952858556993,8.056113323372601,5.591010911563038
1776223445857439500,21.561439453125,0.0036435812375653766,7.783875175860524,5.965037700945139
1776223445877289500,21.58128955078125,-0.05169303813122678,7.4741323503404855,6.348625514876842
1776223445897139500,21.601139404296877,-0.08040169831244275,7.1307023592740295,6.731790134960413
1776223445916989400,21.620989501953126,-0.09520843236264773,6.7517123945266,7.11165863610804
1776223445936839700,21.640839599609375,-0.10108747133072465,6.327284620684385,7.491703078344464
1776223445956689700,21.660689697265624,-0.09859062214684672,5.845255721744895,7.873605131146311
1776223445976540700,21.680540771484374,-0.08669167443527839,5.300908021536469,8.250045411410927
1776223445996390700,21.700390625,-0.06428342043936718,4.69772585504353,8.607998433348536
1776223446016240600,21.72024072265625,-0.037271807683713264,4.0467444110214705,8.932684560978412
1776223446036090600,21.740090576171873,-0.015058556811738526,3.3766409179002044,9.206977302932739
1776223446055940600,21.759940673828126,-0.00672629602648958,2.706255685228109,9.425842172175646
1776223446075790600,21.77979052734375,-0.023506867454154416,2.050887696684897,9.589768998050689
1776223446095640600,21.799640625,-0.06866723414731678,1.4225066453970967,9.702687521222233
1776223446115490600,21.819490478515625,-0.13835850497959182,0.8319389727402478,9.77031845742464
1776223446135340800,21.8393408203125,-0.2194440756366588,0.2828620703191496,9.800112122663855
1776223446155190800,21.859190673828124,-0.30852128436844795,-0.22084150307811795,9.799307820543646
1776223446175041800,21.879041748046873,-0.40696547464877364,-0.6770543351724744,9.774782451096177
1776223446194891800,21.898891845703126,-0.5232247596155851,-1.066551519278437,9.734428813397884
1776223446214741800,21.91874169921875,-0.6637506169632077,-1.3599569579817354,9.689185650092362
1776223446234591700,21.938591796875,-0.8325372308943421,-1.5285820246756077,9.650942720937728
1776223446254441700,21.958441650390625,-1.0269440968375652,-1.561631184579432,9.626893736830354
1776223446274291700,21.978291748046875,-1.2367075949318707,-1.471436680521816,9.616434302136302
1776223446294141700,21.9981416015625,-1.440117413150519,-1.2614742257893086,9.617958150702714
1776223446313991700,22.01799169921875,-1.614673623459041,-0.9251658302310853,9.628463178104163
1776223446333841700,22.037841552734374,-1.7414267568461597,-0.4690835291812196,9.639386138656734
1776223446353691600,22.057691650390623,-1.8063669926598667,0.06172424204242415,9.638652563685179
1776223446373543000,22.07754296875,-1.8091696289904415,0.6074880104606971,9.61915992770791
1776223446393392600,22.097392578125,-1.7663649448782204,1.1355225449781865,9.579193828022479
1776223446413242600,22.11724267578125,-1.6942226687312125,1.6648656413435936,9.514632216262816
1776223446433092600,22.137092529296876,-1.6043781471550465,2.232652230937034,9.41337432026863
1776223446452942600,22.156942626953125,-1.4940486175633967,2.869207236330211,9.257745367139577
1776223446472792600,22.17679248046875,-1.3404456173039971,3.5678660850673913,9.035701867860555
1776223446492642600,22.196642578125,-1.1307787845171988,4.296717827494442,8.742421516841649
1776223446512492500,22.216492431640624,-0.8728526554740965,5.017495569059252,8.380526479279995
1776223446532342800,22.2363427734375,-0.5859602884592489,5.687240165740251,7.967579299873113
1776223446552192800,22.25619287109375,-0.282476815594919,6.277744636967777,7.528646615338325
1776223446572042800,22.276042724609376,0.031906415042909794,6.785349875712394,7.080142384859919
1776223446591893800,22.295893798828125,0.35600484701190144,7.2138926836580035,6.633503363731503
1776223446611743700,22.31574365234375,0.6719192373063415,7.562261884692311,6.2073430670082566
1776223446631593700,22.33559375,0.9412782491855323,7.825253480431437,5.835219480898976
1776223446651443700,22.355443603515624,1.1218145568169653,8.003622088634968,5.554632607236504
1776223446671293700,22.375293701171874,1.2035077745109797,8.112212227213382,5.377171177005767
1776223446691143700,22.395143798828126,1.2198548790041357,8.175591935712099,5.276553917002677
1776223446710993700,22.41499365234375,1.2098903151549398,8.21447550085783,5.2181350457817315
1776223446730844000,22.434843994140625,1.2046787910517305,8.240629932811856,5.177948581343889
1776223446750693600,22.454693603515626,1.2329537953563035,8.259919155171513,5.14042402959168
1776223446770543600,22.474543701171875,1.3147097030229866,8.274413544470072,5.096663213798403
1776223446790393600,22.4943935546875,1.4471183779537677,8.282821307331323,5.0468900058478114
1776223446810244600,22.51424462890625,1.6060523639775812,8.284727433213591,4.995425776070356
1776223446830094600,22.534094482421875,1.7647532718978822,8.28152074612677,4.946962481674552
1776223446849944600,22.553944580078124,1.88151590327695,8.26928787201941,4.92434382263124
1776223446869794600,22.573794677734377,1.9107688857682048,8.240193879482149,4.961709384429454
1776223446889644500,22.59364453125,1.8108628427743911,8.18935041195154,5.081900528952479
1776223446909494500,22.61349462890625,1.5805761235460638,8.113031142380834,5.277395628523826
1776223446929344800,22.6333447265625,1.2664295101091265,7.994252787265181,5.537007518696785
1776223446949194800,22.65319482421875,0.9188413033846765,7.816921120893955,5.849943587300181
1776223446969044700,22.673044677734374,0.5820686147829517,7.580567941233515,6.194074420112371
1776223446988894700,22.692894775390624,0.29286950519569216,7.301300333476066,6.540307193639874
1776223447008744700,22.71274462890625,0.06776311121471226,7.003731929874419,6.8639306604743
1776223447028594700,22.7325947265625,-0.10377943209474906,6.702189361944794,7.158230417668819
1776223447048445700,22.75244580078125,-0.2437119449254125,6.392033863970637,7.433229262065887
1776223447068295700,22.772295654296876,-0.3729550319647416,6.059657181838155,7.701419010969996
1776223447088145700,22.792145751953125,-0.49802507110312577,5.691286226260662,7.970670836147666
1776223447107995600,22.81199560546875,-0.6147965433757752,5.282486229661107,8.239402436843514
1776223447127846000,22.831845947265624,-0.7177850625548511,4.838956864985823,8.4993925126791
1776223447147695900,22.85169580078125,-0.8055676831651478,4.368421419963241,8.742901409313083
1776223447167545900,22.8715458984375,-0.8783136242937296,3.8739562332987783,8.966126811853051
1776223447187395800,22.891395751953127,-0.936637218446657,3.3557857613980766,9.166886115562916
1776223447207245800,22.911245849609376,-0.9844298470392823,2.813139896671474,9.342779273563623
1776223447227095600,22.931095458984377,-1.0155650630805642,2.2513382267065345,9.49054816084206
1776223447246945500,22.950945556640626,-1.0293308458436279,1.6876014970257878,9.605357027804851
1776223447266796800,22.970796875,-1.0390751180056481,1.1485685620993376,9.683567810210585
1776223447286646500,22.990646484375,-1.0468800926681607,0.6651178136631846,9.727900872933864
1776223447306496500,23.01049658203125,-1.025971598543599,0.25670970245804636,9.749454533094168
1776223447326346800,23.0303466796875,-0.9734200119208544,-0.07665036468859761,9.757918994578718
1776223447346196700,23.05019677734375,-0.9149164580911398,-0.3349459115659818,9.758131760546565
1776223447366046700,23.070046630859373,-0.872532264413312,-0.5192960053319111,9.75394249216318
1776223447385896700,23.089896728515626,-0.8651831437595188,-0.627389848293364,9.748242234694958
1776223447405746700,23.10974658203125,-0.9024540130116044,-0.6580932487886398,9.742837745302914
1776223447425596700,23.1295966796875,-0.9791699537497013,-0.6226713684041053,9.73775591199398
1776223447445446700,23.14944677734375,-1.0824648354642092,-0.510771666886285,9.733333419376612
1776223447465296600,23.169296630859375,-1.2018535044979304,-0.2976725398295559,9.728172675612567
1776223447485147000,23.18914697265625,-1.3293372171819209,0.015753847882809348,9.71612041876912
1776223447504997600,23.20899755859375,-1.446050018069893,0.40199064537826923,9.691115741372109
1776223447524847900,23.228847900390626,-1.542807241643965,0.8235565635159611,9.64944926750958
1776223447544697900,23.24869775390625,-1.6095177020005882,1.2650418551430105,9.590593758437038
1776223447564547800,23.2685478515625,-1.6288905109904706,1.7324821106292307,9.513968783918022
1776223447584397800,23.288397705078125,-1.5907209393329917,2.2352929547041653,9.415064757573605
1776223447604247800,23.308247802734375,-1.5077256991297006,2.779038305105269,9.282999050861596
1776223447624097800,23.328097900390624,-1.3943617702782154,3.3565734046444295,9.108213561841845
1776223447643947500,23.347947509765625,-1.2628782473683358,3.9586479021564123,8.882827181875705
1776223447663797500,23.367797607421874,-1.127447228941694,4.576673125255108,8.599611128753423
1776223447683647700,23.387647705078123,-0.9945753934785723,5.187211499729752,8.262811369481682
1776223447703497700,23.407497802734376,-0.8731677858378738,5.765706384211779,7.884450934809446
1776223447723347700,23.42734765625,-0.7605765949245542,6.298965119650959,7.4776283757627
1776223447743198700,23.44719873046875,-0.6393206707142293,6.7856818841457365,7.050970066389441
1776223447763048700,23.467048583984376,-0.4868524466384202,7.229014849466085,6.608683979773521
1776223447782898700,23.486898681640625,-0.29513167797401546,7.630032521626353,6.153526721146703
1776223447802748700,23.506748779296874,-0.07894890568824485,7.985141260048747,5.692244842159748
1776223447822598700,23.5265986328125,0.13319962437907232,8.285172254371643,5.244860555621981
1776223447842448600,23.54644873046875,0.2992481551158242,8.523424545651674,4.840666591513156
1776223447862298600,23.566298583984373,0.37984121128190307,8.702978564247488,4.503809256835281
1776223447882148900,23.58614892578125,0.3976887104006484,8.833921988931298,4.2395796437338
1776223447901998800,23.605998779296876,0.4086516011048108,8.930874881207943,4.030244819380343
1776223447921848800,23.625848876953125,0.45294908105805515,9.008601679489017,3.848419348721206
1776223447941698800,23.64569873046875,0.5514926400596276,9.073460228368639,3.6794805399030444
1776223447961548800,23.665548828125,0.7048832762099803,9.122705028530955,3.5284219634294507
1776223447981399800,23.68539990234375,0.8911117310684173,9.15121099204719,3.4105151304513215
1776223448001249800,23.705249755859374,1.0797324878908694,9.159313634482025,3.3333971117183565
1776223448021099800,23.725099853515626,1.2299664501085876,9.151101686453819,3.3037735423490404
1776223448040949800,23.74494970703125,1.29580611898005,9.131093502169847,3.3338273198291657
1776223448060799500,23.764799560546876,1.235787557477504,9.10238646312356,3.4336209884896873
1776223448080649700,23.784649658203126,1.0543490403093396,9.054223612979055,3.616597090488672
1776223448100499700,23.804499755859375,0.8061336464848369,8.9684023555696,3.8843689062416553
1776223448120349400,23.824349365234376,0.5425687078371644,8.831665149915217,4.228200171585381
1776223448140199400,23.844199462890625,0.2987011522249318,8.641066005691885,4.627430668067932
1776223448160049400,23.86404931640625,0.09290606457125394,8.404067513865233,5.053059049871564
1776223448179899400,23.8838994140625,-0.07171453398792073,8.128678208845853,5.4854193702787155
1776223448199749400,23.903749267578124,-0.20049210414104163,7.8125658482939,5.924019461858272
1776223448219600400,23.923600341796874,-0.2959506662067026,7.44131670693159,6.38040947715044
1776223448239450400,23.943450439453127,-0.36173882408663627,6.998752972418069,6.8598103656739
1776223448259300400,23.96330029296875,-0.40677294775135814,6.476118506845832,7.352877375978231
1776223448279150600,23.983150634765625,-0.433876862449944,5.874293015658855,7.840588412207365
1776223448299000600,24.00300048828125,-0.44817638676352795,5.203164271143079,8.300399049597978
1776223448318850600,24.0228505859375,-0.456540895004943,4.4746623650670045,8.714319457951188
1776223448338700500,24.042700439453125,-0.4739895675318315,3.7134485682174563,9.063995649930835
1776223448358550300,24.06255029296875,-0.5140726446604356,2.950452856387198,9.338142845934629
1776223448378400300,24.082400146484375,-0.5703545403853059,2.2057225768268105,9.538336916977167
1776223448398250200,24.102250244140624,-0.6369049148093908,1.4914793515972793,9.671618429219722
1776223448418100500,24.1221005859375,-0.7053262707371264,0.8215278341673314,9.74669032907784
1776223448437950500,24.141950439453126,-0.7763450227469205,0.2115577063010074,9.77358184313476
1776223448457800400,24.161800537109375,-0.8435999652437866,-0.3318123627806082,9.764663208141922
1776223448477651500,24.1816513671875,-0.901631444582343,-0.8047554169341922,9.731897833615541
1776223448497501400,24.20150146484375,-0.9495918309573084,-1.194656797926873,9.687180155488848
1776223448517351400,24.221351318359375,-0.9958600995268672,-1.4832126046419143,9.642548402079939
1776223448537201400,24.241201416015624,-1.0532884253405035,-1.65064188567996,9.609181554529071
1776223448557051400,24.261051513671877,-1.1248757710184902,-1.6914944128111005,9.593950083127618
1776223448576901400,24.2809013671875,-1.2118176299557089,-1.6162250906847417,9.596337270525098
1776223448596751400,24.30075146484375,-1.2945457436554133,-1.4362844108588992,9.614138300153613
1776223448616601300,24.320601318359376,-1.3564917660892009,-1.1572331492658703,9.643190791636705
1776223448636451600,24.34045166015625,-1.3917068718552588,-0.7626798508141189,9.677388829314708
1776223448656301600,24.360301513671875,-1.3978810304455458,-0.2578957156385295,9.703081488975881
1776223448676151600,24.380151611328124,-1.380479083137214,0.3171950046895072,9.703816232991217
1776223448696001500,24.40000146484375,-1.3495442850388586,0.920942367317155,9.66959013826251
1776223448715851300,24.419851318359374,-1.3126204756587743,1.5270210589691995,9.597687516090273
1776223448735702500,24.43970263671875,-1.2688735422603785,2.139582317573577,9.485912317734956
1776223448755552500,24.459552490234376,-1.2200840115848928,2.7722011525616046,9.327201765203476
1776223448775402200,24.47940234375,-1.1737556103259323,3.4257015936672683,9.113574796614051
1776223448795252200,24.499252197265626,-1.1291158928062766,4.0769545481070875,8.847254933235048
1776223448815102500,24.5191025390625,-1.074298845469579,4.706878298792243,8.535898242777586
1776223448834952400,24.538952392578125,-1.000847532550618,5.297535914754867,8.191751627874375
1776223448854802400,24.558802490234374,-0.906913184377551,5.834686981457471,7.829707537230849
1776223448874652400,24.57865234375,-0.7920378280498087,6.320846696591377,7.455868379375338
1776223448894502400,24.59850244140625,-0.6464436544619501,6.770038324812054,7.065344044178724
1776223448914352400,24.618352294921873,-0.44055195629969235,7.184186112180352,6.660613488975167
1776223448934202400,24.638202392578126,-0.1432666804883629,7.546451736620068,6.2610664738893504
1776223448954052400,24.65805224609375,0.23315628331527113,7.8440318306595085,5.8810851600170135
1776223448973902300,24.67790234375,0.6339811363171786,8.081710705965756,5.5185500709861515
1776223448993753300,24.69775341796875,1.0100848050385713,8.266983102208375,5.177558705243468
1776223449013603300,24.717603271484375,1.3530166373245418,8.402366555166244,4.872367259417474
1776223449033453600,24.73745361328125,1.669915764340013,8.494026017209887,4.607958198095858
1776223449053303600,24.757303466796873,1.9725529956385492,8.55288094176054,4.373516112753749
1776223449073153500,24.777153564453126,2.263565547855943,8.591607855039834,4.151012887008488
1776223449093003500,24.79700341796875,2.559258659105003,8.610817582422495,3.9337531148746607
1776223449112853500,24.816853515625,2.8568375841006635,8.609376735964418,3.7265962190821766
1776223449132703500,24.836703369140626,3.109189127881825,8.59381968587041,3.5566295285210012
1776223449152553500,24.856553466796875,3.2604467340588568,8.571566353008151,3.473922019217908
1776223449172403500,24.876403564453124,3.2697558296740055,8.550939744564891,3.5157565431237217
1776223449192253700,24.896253662109373,3.115091337662935,8.53939835985303,3.6803921017900105
1776223449212103700,24.916103759765626,2.803674733711779,8.537919519472121,3.9260309961900113
1776223449231953700,24.93595361328125,2.3839364328600463,8.526753982335329,4.21683502022326
1776223449251803600,24.9558037109375,1.9160650924801825,8.477465927553176,4.542211175943911
1776223449271654700,24.975654541015626,1.4407535190969705,8.37205032735765,4.899323070882261
1776223449291504600,24.995504638671875,0.9885754224114119,8.208345035278796,5.27410652385056
1776223449311354600,25.015354736328124,0.5901006031343713,8.001532422879338,5.63893936842978
1776223449331204600,25.03520458984375,0.25002375842072067,7.7764435645550485,5.969488250613212
1776223449351054300,25.055054443359374,-0.04290996655102353,7.52904876639843,6.283468859833478
1776223449370904300,25.074904296875,-0.30776648394577205,7.21999801479578,6.6292761014252894
1776223449390754600,25.094754638671876,-0.5518278998959809,6.814065682587027,7.030959544017911
1776223449410604500,25.1146044921875,-0.7673498153865337,6.3049792653739445,7.471869081583619
1776223449430454500,25.13445458984375,-0.9334123381160199,5.712058965176343,7.916533587768673
1776223449450304500,25.154304443359376,-1.0325074300531298,5.0628357629984615,8.334986378854513
1776223449470154500,25.174154541015625,-1.064081914294511,4.381005007204413,8.708898017424344
1776223449490004500,25.19400439453125,-1.0379217832520604,3.6879368180811403,9.027305210915207
1776223449509854500,25.2138544921875,-0.9669247316174209,2.99825768687427,9.286866247683763
1776223449529704400,25.233704345703124,-0.87059632791467,2.3212850386358794,9.488103690299392
1776223449549555500,25.253555419921874,-0.7778815115991979,1.6698222408376633,9.632080199557542
1776223449569405400,25.273405517578126,-0.709696375580132,1.0534111749373376,9.724045366549491
1776223449589255700,25.293255615234376,-0.6639847910452634,0.4701501720320433,9.772844761031866
1776223449609105700,25.313105712890625,-0.604787482797727,-0.08828491670978256,9.787584065002202
1776223449628955600,25.33295556640625,-0.49686914253365244,-0.615398820117861,9.77470120255351
1776223449648805600,25.3528056640625,-0.3450966091044247,-1.0836914546497165,9.74047803043425
1776223449668655600,25.372655517578124,-0.17245268042432144,-1.4438751582488416,9.698240478685499
1776223449688505600,25.392505615234374,-0.008893948646975331,-1.6504449018031357,9.666764559447765
1776223449708355600,25.41235546875,0.11292576576308347,-1.682441483914107,9.660591423770784
1776223449728205600,25.43220556640625,0.1623334374700673,-1.541635129124671,9.683356213286519
1776223449748055600,25.4520556640625,0.12976072683841922,-1.2298396088585257,9.728362060704827
