time,seconds_elapsed,z,y,x
1776223424399319600,0.103319580078125,-0.8945527672767639,-0.6356373429298401,0.8929979801177979
1776223424419170600,0.123170654296875,-1.1301573514938354,-0.8296650648117065,0.9737947583198547
1776223424439020500,0.1430205078125,-1.1483707427978516,-0.443035751581192,1.0501713752746582
1776223424458871600,0.16287158203125,-1.049346685409546,0.14362195134162903,0.9914461374282837
1776223424478721500,0.182721435546875,-1.3625119924545288,0.3943616449832916,0.9603103995323181
1776223424498572500,0.202572509765625,-1.7645399570465088,0.6754241585731506,0.8353976011276245
1776223424518422500,0.222422607421875,-1.6488721370697021,0.7620978951454163,0.7294241786003113
1776223424538273500,0.2422734375,-0.7105932235717773,0.9624192118644714,0.6353192925453186
1776223424558123500,0.26212353515625,0.5051411390304565,1.6992647647857666,0.4649263024330139
1776223424577974500,0.281974609375,1.1301137208938599,1.5961339473724365,0.3395673632621765
1776223424597824500,0.301824462890625,1.0384807586669922,0.8831872344017029,0.17091628909111023
1776223424617674500,0.321674560546875,0.45291632413864136,0.43919670581817627,-0.17335540056228638
1776223424637525500,0.341525390625,-0.2706376910209656,-0.032879941165447235,-0.3864924907684326
1776223424657375500,0.36137548828125,-0.919958233833313,-0.4891272783279419,-0.5130653977394104
1776223424677226500,0.3812265625,-1.0522239208221436,-0.32570040225982666,-0.6707229018211365
1776223424697076500,0.401076416015625,-0.9683155417442322,0.11852174997329712,-0.8044191002845764
1776223424716927500,0.420927490234375,-0.8555220365524292,0.23054787516593933,-0.6640150547027588
1776223424736777500,0.440777587890625,-0.5215932726860046,0.07505092024803162,-0.3438345789909363
1776223424756628500,0.46062841796875,-0.10390587896108627,0.44735389947891235,-0.30856645107269287
1776223424776478500,0.480478515625,0.21058505773544312,0.5328282713890076,-0.6612737774848938
1776223424796329500,0.50032958984375,0.22864308953285217,0.14366528391838074,-0.9006515741348267
1776223424816179500,0.520179443359375,0.07469204068183899,-0.502489447593689,-0.9143965244293213
1776223424836030500,0.540030517578125,0.0688231885433197,-1.1162736415863037,-0.7889060378074646
1776223424855880400,0.55988037109375,0.1787155270576477,-1.3108495473861694,-0.6181524395942688
1776223424875730400,0.57973046875,0.28177332878112793,-0.9858121275901794,-0.5113611221313477
1776223424895581400,0.59958154296875,0.35882073640823364,-0.5122947692871094,-0.400710791349411
1776223424915431400,0.619431396484375,0.40934649109840393,-0.10003722459077835,-0.3096889853477478
1776223424935282400,0.639282470703125,0.4906635880470276,0.10128292441368103,-0.13016225397586823
1776223424955132400,0.65913232421875,0.5830937623977661,-0.2700467109680176,0.09287949651479721
1776223424974983400,0.6789833984375,0.6434215307235718,-0.42089658975601196,0.2965371608734131
1776223424994833400,0.69883349609375,0.6780892014503479,-0.44174128770828247,0.38979601860046387
1776223425014684400,0.718684326171875,0.6578878164291382,-0.3358992338180542,0.3466901481151581
1776223425034534400,0.738534423828125,0.6219959855079651,-0.17756666243076324,0.2711896300315857
1776223425054385700,0.7583857421875,0.6204226016998291,0.010263005271553993,0.2312864363193512
1776223425074235400,0.7782353515625,0.6596826314926147,0.18734273314476013,0.17648304998874664
1776223425094085400,0.79808544921875,0.7102106809616089,0.3689633309841156,0.09226744621992111
1776223425113936400,0.817936279296875,0.7771710753440857,0.5642303228378296,-0.010720721445977688
1776223425133786400,0.837786376953125,0.8507828712463379,0.6909778118133545,-0.07818532735109329
1776223425153637400,0.857637451171875,0.8636252880096436,0.7548441886901855,-0.04840977489948273
1776223425173487400,0.8774873046875,0.8962383270263672,0.8749158978462219,-0.04440467432141304
1776223425193338400,0.89733837890625,0.9742717742919922,1.053347110748291,-0.22656314074993134
1776223425213188400,0.917188232421875,1.041553258895874,1.2234349250793457,-0.5716619491577148
1776223425233039400,0.937039306640625,1.0802196264266968,1.4202353954315186,-0.9097110629081726
1776223425252889300,0.956889404296875,1.1017632484436035,1.4618628025054932,-1.0558061599731445
1776223425272739300,0.9767392578125,1.2556945085525513,1.0387903451919556,-1.008413314819336
1776223425292590300,0.99659033203125,1.0210105180740356,0.9382988214492798,-0.9152456521987915
1776223425312440300,1.0164404296875,0.7044540643692017,1.1296333074569702,-0.8019524812698364
1776223425332291300,1.036291259765625,0.7454204559326172,0.8416315913200378,-0.6149471998214722
1776223425352141300,1.056141357421875,0.6277194023132324,0.9977558851242065,-0.49161961674690247
1776223425371992300,1.075992431640625,0.5374237895011902,0.6024365425109863,-0.6164987683296204
1776223425391842300,1.09584228515625,0.2554362714290619,0.3592534363269806,-0.8623508810997009
1776223425411692300,1.1156923828125,-0.01902063563466072,0.2931259870529175,-0.9440764784812927
1776223425431543300,1.135543212890625,-0.12049143761396408,0.11549342423677444,-0.914814293384552
1776223425451393300,1.155393310546875,-0.21432900428771973,0.11854899674654007,-0.7705024480819702
1776223425471244300,1.175244384765625,-0.2969099283218384,0.12721873819828033,-0.5549360513687134
1776223425491094300,1.19509423828125,-0.3935765027999878,0.1295221447944641,-0.29020848870277405
1776223425510945300,1.2149453125,-0.5481336116790771,-0.2506754994392395,0.1731586456298828
1776223425530795300,1.234795166015625,-0.7863284945487976,-0.7480899095535278,0.552620530128479
1776223425550646300,1.254646240234375,-0.9861848950386047,-0.964836835861206,0.7483751773834229
1776223425570496300,1.274496337890625,-1.005813479423523,-0.9383613467216492,0.8421470522880554
1776223425590346200,1.29434619140625,-0.9778614044189453,-0.6948391795158386,0.9848082065582275
1776223425610197200,1.314197265625,-0.9587408900260925,-0.6325436234474182,1.20523202419281
1776223425630047200,1.334047119140625,-0.9769949913024902,-0.6916797757148743,1.3245823383331299
1776223425649898200,1.353898193359375,-0.980901837348938,-0.8810506463050842,1.3803303241729736
1776223425669748200,1.373748291015625,-0.8961118459701538,-1.1061060428619385,1.4345914125442505
1776223425689598200,1.39359814453125,-0.8042713403701782,-1.303031086921692,1.4948678016662598
1776223425709449200,1.41344921875,-0.7311768531799316,-1.440255880355835,1.4892910718917847
1776223425729299200,1.43329931640625,-0.6803343892097473,-1.4336613416671753,1.434125304222107
1776223425749150200,1.453150146484375,-0.6554062962532043,-1.2635682821273804,1.3886412382125854
1776223425769000200,1.473000244140625,-0.6164790391921997,-1.0472784042358398,1.4001959562301636
1776223425788851200,1.492851318359375,-0.5828989744186401,-0.7997469305992126,1.4533225297927856
1776223425808701200,1.512701171875,-0.5352216362953186,-0.5073269009590149,1.5493751764297485
1776223425828551200,1.53255126953125,-0.4743042290210724,-0.22033390402793884,1.6780539751052856
1776223425848402200,1.552402099609375,-0.4707564413547516,0.06844532489776611,1.750105857849121
1776223425868252200,1.572252197265625,-0.5989657044410706,0.441351979970932,1.7457938194274902
1776223425888103200,1.592103271484375,-0.6319826245307922,0.8039857745170593,1.6046087741851807
1776223425907953200,1.611953125,-0.7798445224761963,1.1845781803131104,1.3764954805374146
1776223425927803400,1.631803466796875,-0.9564226865768433,1.6800072193145752,1.1480011940002441
1776223425947654100,1.651654052734375,-1.1709094047546387,2.1085188388824463,0.9359789490699768
1776223425967504400,1.67150439453125,-1.4907675981521606,2.4472384452819824,0.514136791229248
1776223425987355100,1.691355224609375,-1.8619425296783447,2.721569299697876,-0.043678391724824905
1776223426007205000,1.711205078125,-2.210798501968384,2.942476511001587,-0.4972097873687744
1776223426027056400,1.731056396484375,-2.5053458213806152,3.1558916568756104,-0.7837735414505005
1776223426046906000,1.750906005859375,-2.930579662322998,3.4273219108581543,-1.040321707725525
1776223426066756400,1.77075634765625,-3.5760602951049805,3.9860498905181885,-1.1564288139343262
1776223426086607400,1.790607421875,-4.294480800628662,4.653556823730469,-0.6575294137001038
1776223426106457900,1.810457763671875,-4.687693119049072,4.701145172119141,-0.049882564693689346
1776223426126308900,1.830308837890625,-4.945496559143066,4.157688140869141,0.24535143375396729
1776223426146158800,1.850158935546875,-5.27602481842041,3.3920273780822754,0.21009565889835358
1776223426166008800,1.8700087890625,-5.52985143661499,2.7413673400878906,-0.012062203139066696
1776223426185859800,1.88985986328125,-5.548191070556641,2.1022963523864746,-0.40364983677864075
1776223426205709800,1.909709716796875,-5.379861831665039,1.4177719354629517,-0.950981616973877
1776223426225560800,1.929560791015625,-5.1217451095581055,0.6265957355499268,-1.707768201828003
1776223426245410800,1.949410888671875,-4.921422958374023,-0.13290536403656006,-2.5247371196746826
1776223426265261000,1.969260986328125,-4.779716491699219,-0.7012591361999512,-3.1165871620178223
1776223426285111800,1.98911181640625,-4.765888214111328,-1.0059006214141846,-3.3426034450531006
1776223426304961800,2.0089619140625,-4.836269378662109,-1.0369892120361328,-3.2400386333465576
1776223426324812800,2.028812744140625,-4.69235372543335,-0.9188674688339233,-2.9373953342437744
1776223426344662800,2.048662841796875,-4.3119730949401855,-0.8245748281478882,-2.6328632831573486
1776223426364513000,2.068512939453125,-3.7495975494384766,-0.9908726811408997,-2.3782365322113037
1776223426384363800,2.08836376953125,-2.9473655223846436,-1.402529239654541,-2.0690128803253174
1776223426404214000,2.108214111328125,-2.012983560562134,-1.9275931119918823,-1.6263306140899658
1776223426424064000,2.12806396484375,-1.309457540512085,-2.375338315963745,-1.4113870859146118
1776223426443915000,2.1479150390625,-0.9488857388496399,-2.6372225284576416,-1.5458964109420776
1776223426463765000,2.167764892578125,-0.7341461777687073,-2.7039103507995605,-1.786180019378662
1776223426483616000,2.187615966796875,-0.46381068229675293,-2.570422649383545,-1.828318476676941
1776223426503466000,2.207466064453125,-0.12274017930030823,-2.27182674407959,-1.7223713397979736
1776223426523316000,2.22731591796875,0.17947469651699066,-1.9159668684005737,-1.6467031240463257
1776223426543167000,2.2471669921875,0.3574492335319519,-1.5914843082427979,-1.5031299591064453
1776223426563017000,2.267016845703125,0.4450998902320862,-1.1918469667434692,-1.175903081893921
1776223426582868000,2.286867919921875,0.6369052529335022,-0.6298738121986389,-0.712110698223114
1776223426602718000,2.306718017578125,0.9226446747779846,-0.008439430966973305,-0.2230549156665802
1776223426622568000,2.32656787109375,1.2406963109970093,0.40410634875297546,0.3924151062965393
1776223426642419000,2.3464189453125,1.5658893585205078,0.492961049079895,1.1584947109222412
1776223426662269000,2.36626904296875,1.884970784187317,0.29961320757865906,1.957640290260315
1776223426682120000,2.386119873046875,2.1944618225097656,0.18519575893878937,2.5739262104034424
1776223426701970000,2.405969970703125,2.401148796081543,0.32789337635040283,2.918422222137451
1776223426721820000,2.42581982421875,2.486112356185913,0.6597222685813904,3.0609488487243652
1776223426741671000,2.4456708984375,2.7036890983581543,0.8077652454376221,3.0866756439208984
1776223426761521000,2.46552099609375,2.9924216270446777,0.6951367259025574,3.0619616508483887
1776223426781371000,2.485370849609375,3.1204922199249268,0.22438514232635498,2.7743256092071533
1776223426801222000,2.505221923828125,3.130460262298584,-0.7543268203735352,2.0684211254119873
1776223426821072000,2.52507177734375,3.1942312717437744,-1.9257017374038696,1.4162263870239258
1776223426840923000,2.5449228515625,3.2422573566436768,-2.730149745941162,1.3090577125549316
1776223426860772900,2.56477294921875,3.296673059463501,-3.1283695697784424,1.4894611835479736
1776223426880622800,2.584622802734375,3.2604949474334717,-3.101548194885254,1.7593551874160767
1776223426900473900,2.604473876953125,3.143582344055176,-2.7969112396240234,2.0516557693481445
1776223426920323800,2.62432373046875,2.952150583267212,-2.4032626152038574,2.3136653900146484
1776223426940174800,2.6441748046875,2.6804020404815674,-1.9926471710205078,2.5174548625946045
1776223426960024800,2.66402490234375,2.39218807220459,-1.68520987033844,2.5634050369262695
1776223426979874800,2.683874755859375,2.1209897994995117,-1.4006165266036987,2.5343995094299316
1776223426999725800,2.703725830078125,1.871923804283142,-1.0971486568450928,2.4878547191619873
1776223427019575800,2.723575927734375,1.6101804971694946,-0.7799817323684692,2.4284162521362305
1776223427039425800,2.74342578125,1.312056541442871,-0.5519248247146606,2.2791054248809814
1776223427059276800,2.76327685546875,0.9678938388824463,-0.3522774577140808,2.0010879039764404
1776223427079126800,2.783126708984375,0.6270286440849304,-0.18206897377967834,1.6640135049819946
1776223427098977800,2.802977783203125,0.2589338421821594,-0.10547763854265213,1.3551374673843384
1776223427118827800,2.822827880859375,-0.17763391137123108,-0.08715441823005676,1.069758653640747
1776223427138677800,2.842677734375,-0.6256749033927917,-0.12955404818058014,0.7899674773216248
1776223427158528800,2.86252880859375,-1.105963945388794,-0.036305464804172516,0.48337721824645996
1776223427178378800,2.882378662109375,-1.6634002923965454,0.3217329978942871,0.018397139385342598
1776223427198229800,2.902229736328125,-2.222684621810913,0.8128641247749329,-0.587604284286499
1776223427218079700,2.922079833984375,-2.6200132369995117,1.3912043571472168,-1.0178049802780151
1776223427237929700,2.9419296875,-2.8845677375793457,1.8318620920181274,-1.2305700778961182
1776223427257780700,2.96178076171875,-3.145782232284546,2.0613090991973877,-1.3081599473953247
1776223427277630700,2.981630615234375,-3.5008327960968018,2.192283868789673,-1.2411783933639526
1776223427297481700,3.001481689453125,-3.846954107284546,2.271090507507324,-1.0703468322753906
1776223427317331700,3.021331787109375,-4.108644485473633,2.3281617164611816,-0.9013140201568604
1776223427337181700,3.041181640625,-4.261560916900635,2.2930145263671875,-0.8658931255340576
1776223427357032700,3.06103271484375,-4.413994312286377,2.078927516937256,-1.036908507347107
1776223427376882700,3.080882568359375,-4.611751079559326,1.7549885511398315,-1.1372939348220825
1776223427396733000,3.10073291015625,-4.725899696350098,1.420881986618042,-1.0674163103103638
1776223427416583700,3.120583740234375,-4.64410400390625,1.1029280424118042,-0.9164600372314453
1776223427436434000,3.140433837890625,-4.325419902801514,0.8278886675834656,-0.8712954521179199
1776223427456284700,3.16028466796875,-3.985414743423462,0.5865534543991089,-1.0136433839797974
1776223427476134700,3.180134765625,-3.6468610763549805,0.3000648021697998,-1.2564356327056885
1776223427495985000,3.19998486328125,-3.280150890350342,-0.08472102135419846,-1.4545248746871948
1776223427515835600,3.219835693359375,-2.8874692916870117,-0.5669304728507996,-1.6447532176971436
1776223427535686000,3.239685791015625,-2.4866387844085693,-1.2040314674377441,-1.8402531147003174
1776223427555536600,3.25953662109375,-2.164198398590088,-1.9100488424301147,-1.9371229410171509
1776223427575387000,3.279386962890625,-1.8784469366073608,-2.681649684906006,-1.9283896684646606
1776223427595236900,3.29923681640625,-1.57900071144104,-3.473817825317383,-2.13252329826355
1776223427615087900,3.319087890625,-1.3075875043869019,-3.997231960296631,-2.633263111114502
1776223427634937900,3.338937744140625,-1.1587899923324585,-3.668466806411743,-2.971381902694702
1776223427654788600,3.35878857421875,-1.1054775714874268,-2.479417562484741,-2.5391359329223633
1776223427674638800,3.378638916015625,-0.724559485912323,-0.916633665561676,-1.6253880262374878
1776223427694488800,3.39848876953125,-0.042671088129282,0.48286545276641846,-0.6647878885269165
1776223427714339800,3.41833984375,0.5401102304458618,1.3567726612091064,0.12018255144357681
1776223427734189800,3.43818994140625,0.9626315236091614,1.54250967502594,0.7627855539321899
1776223427754040800,3.458040771484375,1.3190028667449951,1.187851905822754,1.3942729234695435
1776223427773890800,3.477890869140625,1.6541012525558472,0.8458626866340637,1.9907861948013306
1776223427793740800,3.49774072265625,2.0575931072235107,0.8628907203674316,2.3761329650878906
1776223427813591800,3.517591796875,2.442615270614624,1.2484700679779053,2.5217645168304443
1776223427833441800,3.53744189453125,2.7151596546173096,1.7834601402282715,2.433823347091675
1776223427853292800,3.557292724609375,2.866248607635498,2.1453354358673096,2.16762638092041
1776223427873142800,3.577142822265625,2.955730676651001,2.061692953109741,1.8097277879714966
1776223427892992800,3.59699267578125,3.052682638168335,1.5106948614120483,1.4496008157730103
1776223427912843800,3.61684375,3.1796932220458984,0.8623768091201782,1.2453891038894653
1776223427932693800,3.63669384765625,3.3309261798858643,0.3667566180229187,1.2119735479354858
1776223427952544800,3.656544677734375,3.501619815826416,0.030093517154455185,1.2867861986160278
1776223427972394800,3.676394775390625,3.620091199874878,-0.17829428613185883,1.3876196146011353
1776223427992246000,3.69624609375,3.6720364093780518,-0.2690558135509491,1.4528539180755615
1776223428012095700,3.716095703125,3.6441423892974854,-0.29316022992134094,1.4919577836990356
1776223428031945700,3.73594580078125,3.550962448120117,-0.33446118235588074,1.5156821012496948
1776223428051797000,3.755796875,3.4785027503967285,-0.44626864790916443,1.4778130054473877
1776223428071646700,3.775646728515625,3.436312198638916,-0.6052139401435852,1.4217585325241089
1776223428091498000,3.795498046875,3.3914856910705566,-0.7862798571586609,1.4009032249450684
1776223428111347500,3.815347412109375,3.304441452026367,-0.974041759967804,1.435903787612915
1776223428131197400,3.835197509765625,3.15478515625,-1.0900427103042603,1.5405128002166748
1776223428151048400,3.85504833984375,2.9696178436279297,-1.092788815498352,1.7274413108825684
1776223428170898400,3.8748984375,2.7253003120422363,-1.0370937585830688,1.990981101989746
1776223428190749400,3.89474951171875,2.489377498626709,-1.1988825798034668,2.309072971343994
1776223428210599400,3.914599365234375,2.172355890274048,-1.5247865915298462,2.6229453086853027
1776223428230450400,3.934450439453125,1.517378330230713,-1.651186466217041,2.5194849967956543
1776223428250300400,3.954300537109375,0.5073438882827759,-1.571616768836975,1.8285930156707764
1776223428270150400,3.974150390625,-0.4839008152484894,-1.2973417043685913,0.8835027813911438
1776223428290001400,3.99400146484375,-1.1600807905197144,-0.8458564281463623,0.04144378751516342
1776223428309851400,4.013851318359375,-1.5998797416687012,-0.37526053190231323,-0.6063423752784729
1776223428329702400,4.033702392578125,-1.95259690284729,0.0099329873919487,-1.0656195878982544
1776223428349552400,4.053552490234375,-2.281430721282959,0.31270843744277954,-1.3019039630889893
1776223428369403400,4.0734033203125,-2.668757200241089,0.5839214324951172,-1.3872333765029907
1776223428389253400,4.09325341796875,-3.1333560943603516,0.8536868095397949,-1.2667351961135864
1776223428409103400,4.113103271484375,-3.5535314083099365,1.1666951179504395,-0.9982078671455383
1776223428428954400,4.132954345703125,-3.8384671211242676,1.5038279294967651,-0.7962779402732849
1776223428448804400,4.152804443359375,-4.06269645690918,1.6417052745819092,-0.7975932955741882
1776223428468655400,4.1726552734375,-4.295989036560059,1.5638996362686157,-0.9138471484184265
1776223428488505300,4.19250537109375,-4.485993385314941,1.3879224061965942,-0.9615248441696167
1776223428508356400,4.2123564453125,-4.322694301605225,1.1694018840789795,-0.7343481183052063
1776223428528206300,4.232206298828125,-3.934394121170044,0.8143590092658997,-0.3551335632801056
1776223428548056300,4.252056396484375,-3.612959146499634,0.3944164514541626,-0.2532913386821747
1776223428567907300,4.2719072265625,-3.2761237621307373,0.006283525377511978,-0.551901638507843
1776223428587757300,4.29175732421875,-2.9390883445739746,-0.33555683493614197,-0.9394258856773376
1776223428607608300,4.3116083984375,-2.62711763381958,-0.6887497901916504,-1.1022080183029175
1776223428627458300,4.331458251953125,-2.214451313018799,-1.0658973455429077,-1.1574627161026
1776223428647309300,4.351309326171875,-1.8660517930984497,-1.423591136932373,-1.4394772052764893
1776223428667159300,4.3711591796875,-1.6925963163375854,-1.7096978425979614,-1.8207050561904907
1776223428687009300,4.39100927734375,-1.543169617652893,-1.8177907466888428,-2.045342206954956
1776223428706860300,4.4108603515625,-1.3133082389831543,-1.677983283996582,-2.0377309322357178
1776223428726710300,4.430710205078125,-1.0769685506820679,-1.4051326513290405,-1.9283345937728882
1776223428746561500,4.4505615234375,-0.9518409967422485,-1.10175621509552,-1.8309974670410156
1776223428766411300,4.470411376953125,-0.9182395339012146,-0.782069206237793,-1.6154494285583496
1776223428786262500,4.490262451171875,-0.7723574042320251,-0.4231741428375244,-1.2193777561187744
1776223428806112500,4.510112548828125,-0.4737440049648285,0.11040537804365158,-0.7574060559272766
1776223428825962200,4.529962158203125,-0.14480240643024445,0.6575180888175964,-0.2935534417629242
1776223428845813500,4.5498134765625,0.24227692186832428,1.0353590250015259,0.18047299981117249
1776223428865663500,4.56966357421875,0.8151065111160278,0.967957079410553,0.7306516170501709
1776223428885514500,4.589514404296875,1.477684497833252,0.5846185684204102,1.2770859003067017
1776223428905364500,4.609364501953125,1.9468156099319458,0.3347640931606293,1.6048208475112915
1776223428925215500,4.629215576171875,2.1669247150421143,0.4092966616153717,1.7707595825195312
1776223428945065500,4.6490654296875,2.264126777648926,0.7783700227737427,1.8844280242919922
1776223428964915500,4.66891552734375,2.2824480533599854,1.253357172012329,2.0418787002563477
1776223428984766500,4.688766357421875,2.3303704261779785,1.6227827072143555,2.217698335647583
1776223429004616400,4.708616455078125,2.546391248703003,1.8688228130340576,2.179497718811035
1776223429024467500,4.728467529296875,2.7526378631591797,1.8677970170974731,1.9454514980316162
1776223429044317400,4.7483173828125,2.85435152053833,1.582736849784851,1.7268974781036377
1776223429064167400,4.76816748046875,2.886303663253784,1.2083779573440552,1.6764274835586548
1776223429084018400,4.788018310546875,2.9581117630004883,0.9713817834854126,1.8187798261642456
1776223429103869000,4.807868896484375,3.0972018241882324,0.9084241390228271,1.906375527381897
1776223429123720000,4.827719970703125,3.2010536193847656,0.8875377774238586,1.8225289583206177
1776223429143570000,4.84756982421875,3.203024387359619,0.8068071007728577,1.6236069202423096
1776223429163421000,4.8674208984375,3.126124620437622,0.6777929663658142,1.4913779497146606
1776223429183271000,4.88727099609375,3.062991142272949,0.5765230655670166,1.434970736503601
1776223429203121000,4.907120849609375,3.049699544906616,0.497472882270813,1.3157330751419067
1776223429222972000,4.926971923828125,3.0087857246398926,0.34332677721977234,1.165617823600769
1776223429242822000,4.94682177734375,2.9207520484924316,0.14759661257266998,1.1125727891921997
1776223429262673000,4.9666728515625,2.79439377784729,0.02950114756822586,1.0989999771118164
1776223429282523000,4.98652294921875,2.5414459705352783,0.015455935150384903,1.0238536596298218
1776223429302374000,5.006373779296875,2.176189422607422,0.02323875203728676,0.9072431325912476
1776223429322223900,5.026223876953125,1.7076984643936157,0.06840641796588898,0.8322550058364868
1776223429342073900,5.046073974609375,1.2081767320632935,0.1844349354505539,0.8388737440109253
1776223429361924900,5.0659248046875,0.778931200504303,0.26742544770240784,0.8967905044555664
1776223429381774800,5.08577490234375,0.3027765452861786,0.22733762860298157,0.9547344446182251
1776223429401625900,5.1056259765625,-0.4010795056819916,0.11569523811340332,0.8283613920211792
1776223429421475800,5.125475830078125,-1.231917381286621,0.016310542821884155,0.47505679726600647
1776223429441325800,5.145325927734375,-1.9045202732086182,-0.029325252398848534,0.1775822639465332
1776223429461176800,5.1651767578125,-2.3635001182556152,-0.0789165124297142,0.1683940887451172
1776223429481026800,5.18502685546875,-2.6187102794647217,-0.1241048127412796,0.33271023631095886
1776223429500877800,5.2048779296875,-2.74394154548645,-0.1346769779920578,0.5010244250297546
1776223429520727800,5.224727783203125,-2.844477415084839,-0.08269321173429489,0.5385518670082092
1776223429540577800,5.244577880859375,-2.9573965072631836,-0.014186030253767967,0.3691566586494446
1776223429560428800,5.2644287109375,-3.080538511276245,-0.09363595396280289,0.2718728184700012
1776223429580278800,5.28427880859375,-3.0625007152557373,-0.22575362026691437,0.19675569236278534
1776223429600129800,5.3041298828125,-2.937678337097168,-0.33761242032051086,-0.08870624005794525
1776223429619979800,5.323979736328125,-2.875911235809326,-0.4974414110183716,-0.5376021265983582
1776223429639830800,5.343830810546875,-2.9157233238220215,-0.7259305119514465,-0.8807122707366943
1776223429659680800,5.3636806640625,-2.9578633308410645,-1.069583773612976,-1.042992115020752
1776223429679530800,5.38353076171875,-2.889163017272949,-1.4975309371948242,-1.3522995710372925
1776223429699381800,5.4033818359375,-2.601562023162842,-1.9110652208328247,-1.587884783744812
1776223429719231700,5.423231689453125,-2.218719959259033,-2.0432019233703613,-1.6056511402130127
1776223429739082800,5.443082763671875,-1.8049235343933105,-1.917313575744629,-1.4835917949676514
1776223429758932700,5.4629326171875,-1.4451955556869507,-1.709623098373413,-1.417097568511963
1776223429778782700,5.48278271484375,-1.1832916736602783,-1.3981729745864868,-1.4661260843276978
1776223429798633700,5.5026337890625,-0.9307919144630432,-0.9166300892829895,-1.3963876962661743
1776223429818483700,5.522483642578125,-0.5091288089752197,-0.6239631175994873,-1.1720482110977173
1776223429838335000,5.5423349609375,-0.1570844054222107,-0.5571727752685547,-1.0752840042114258
1776223429858184700,5.562184814453125,-0.0064463429152965546,-0.52140212059021,-1.1707382202148438
1776223429878035000,5.582034912109375,0.07723818719387054,-0.6066675782203674,-1.1838295459747314
1776223429897886000,5.601885986328125,0.3571537137031555,-0.7527000308036804,-0.9142071008682251
1776223429917736000,5.62173583984375,0.7938129305839539,-0.8187808394432068,-0.22544299066066742
1776223429937587000,5.6415869140625,0.5961606502532959,0.19549357891082764,0.02342577837407589
1776223429957437000,5.66143701171875,0.5767340660095215,0.728952169418335,0.2158898562192917
1776223429977287000,5.681286865234375,0.8988980650901794,-0.1685621291399002,0.7138643860816956
1776223429997138000,5.701137939453125,1.09443199634552,-0.3074851632118225,1.018862247467041
1776223430016988200,5.72098828125,1.3972333669662476,0.10890304297208786,1.1699516773223877
1776223430036838000,5.740837890625,1.57472825050354,0.3874019384384155,1.2887117862701416
1776223430056689000,5.76068896484375,1.5312144756317139,0.7051597237586975,1.4046401977539062
1776223430076539100,5.7805390625,1.3723623752593994,0.7435603141784668,1.6808276176452637
1776223430096390000,5.800389892578125,1.231855034828186,0.6103931665420532,1.8886321783065796
1776223430116240100,5.820240234375,1.139642357826233,0.6793941259384155,2.0129199028015137
1776223430136090000,5.840090087890625,1.1357910633087158,0.8679645657539368,2.146561861038208
1776223430155941000,5.859941162109375,1.1996701955795288,1.1164417266845703,2.3579063415527344
1776223430175791000,5.879791015625,1.4243485927581787,1.304656982421875,2.6252355575561523
1776223430195642000,5.89964208984375,1.6925265789031982,1.4018020629882812,2.8214402198791504
1776223430215492000,5.9194921875,1.885720133781433,1.506722092628479,2.795362710952759
1776223430235342000,5.939342041015625,1.974549651145935,1.5933839082717896,2.5219178199768066
1776223430255193000,5.959193115234375,2.0158276557922363,1.6298255920410156,2.1161115169525146
1776223430275043000,5.97904296875,2.040658473968506,1.5651100873947144,1.7220572233200073
1776223430294893000,5.99889306640625,2.0529744625091553,1.4243351221084595,1.3941960334777832
1776223430314744000,6.018744140625,2.090893268585205,1.303958773612976,1.1030890941619873
1776223430334594000,6.038593994140625,2.107790470123291,1.2464189529418945,0.9057835936546326
1776223430354445000,6.058445068359375,2.07255220413208,1.232582449913025,0.7922579050064087
1776223430374295000,6.078294921875,2.1357922554016113,1.192076325416565,0.7091203331947327
1776223430394145000,6.09814501953125,2.249239683151245,1.0262317657470703,0.6892010569572449
1776223430413996000,6.11799609375,2.159640312194824,0.7646776437759399,0.7517953515052795
1776223430433846000,6.137845947265625,1.8071781396865845,0.517350971698761,0.7932460308074951
1776223430453696000,6.157696044921875,1.3477435111999512,0.3103417158126831,0.6978525519371033
1776223430473547000,6.177547119140625,0.9139641523361206,0.1910642832517624,0.4396551251411438
1776223430493397000,6.19739697265625,0.40330931544303894,-0.04251309856772423,0.12391248345375061
1776223430513248300,6.217248291015625,-0.21734444797039032,-0.42066383361816406,-0.16690181195735931
1776223430533098000,6.237097900390625,-0.8408145904541016,-0.7860565185546875,-0.3705931603908539
1776223430552948000,6.256947998046875,-1.3030668497085571,-1.059557557106018,-0.5054921507835388
1776223430572799200,6.27679931640625,-1.562127709388733,-1.1159440279006958,-0.5905101895332336
1776223430592649000,6.29664892578125,-1.7579023838043213,-1.007652997970581,-0.6204705834388733
1776223430612499000,6.3164990234375,-1.9504592418670654,-0.8406199812889099,-0.5546128153800964
1776223430632350200,6.33635009765625,-2.167205810546875,-0.7197071313858032,-0.42746368050575256
1776223430652200000,6.356199951171875,-2.312023401260376,-0.5651929974555969,-0.4228268563747406
1776223430672051200,6.37605126953125,-2.383105993270874,-0.4149433672428131,-0.7080699801445007
1776223430691901200,6.395901123046875,-2.5167784690856934,-0.4154484272003174,-1.1638596057891846
1776223430711751000,6.4157509765625,-2.753894090652466,-0.6613122820854187,-1.556958794593811
1776223430731602200,6.435602294921875,-3.0103588104248047,-0.9961735010147095,-1.8145729303359985
1776223430751452000,6.455451904296875,-3.1828269958496094,-1.1566500663757324,-2.049703359603882
1776223430771302000,6.475302001953125,-3.269334077835083,-1.1221139430999756,-2.307283878326416
1776223430791153200,6.495153076171875,-3.351292610168457,-0.9735767245292664,-2.548956871032715
1776223430811003000,6.5150029296875,-3.4639382362365723,-0.7726168036460876,-2.7186222076416016
1776223430830852900,6.534852783203125,-3.52241849899292,-0.5247379541397095,-2.778651714324951
1776223430850704100,6.5547041015625,-3.5041086673736572,-0.1872635930776596,-2.590388774871826
1776223430870553900,6.574553955078125,-3.4445083141326904,0.21674677729606628,-2.0572361946105957
1776223430890404000,6.594404052734375,-3.372692108154297,0.575545072555542,-1.4390382766723633
1776223430910255000,6.614255126953125,-3.279254198074341,0.7544670701026917,-0.987795889377594
1776223430930105000,6.63410498046875,-3.063323497772217,0.7057781219482422,-0.6942806839942932
1776223430949955000,6.653955078125,-2.510725498199463,0.36732539534568787,-0.5459641218185425
1776223430969806000,6.67380615234375,-1.8478494882583618,-0.12731344997882843,-0.5941595435142517
1776223430989656000,6.693656005859375,-1.42257559299469,-0.6633270978927612,-0.7691137790679932
1776223431009507000,6.713507080078125,-1.2315815687179565,-0.9218934178352356,-0.8756449222564697
1776223431029357300,6.733357421875,-1.0423849821090698,-0.7744982242584229,-0.7669322490692139
1776223431049207000,6.75320703125,-0.7480101585388184,-0.422993540763855,-0.4872668385505676
1776223431069058300,6.773058349609375,-0.2851250469684601,-0.05672817677259445,-0.1096511110663414
1776223431088908300,6.792908203125,0.2685423791408539,0.21042969822883606,0.36272040009498596
1776223431108757200,6.81275732421875,0.7943199276924133,0.38098132610321045,0.8565091490745544
1776223431128608300,6.832608154296875,1.2270653247833252,0.620414674282074,1.2290118932724
1776223431148458200,6.852458251953125,1.4935044050216675,0.9319499135017395,1.4552613496780396
1776223431168308200,6.87230810546875,1.66061532497406,1.2054344415664673,1.6373999118804932
1776223431188159200,6.8921591796875,1.8284399509429932,1.3914977312088013,1.7534077167510986
1776223431208009200,6.91200927734375,2.04105544090271,1.494845986366272,1.7386200428009033
1776223431227859200,6.931859130859375,2.3589606285095215,1.5383800268173218,1.629942774772644
1776223431247710200,6.951710205078125,2.670504570007324,1.5787103176116943,1.5659399032592773
1776223431267560200,6.971560302734375,2.8624634742736816,1.6022231578826904,1.6134754419326782
1776223431287410200,6.99141015625,2.950183391571045,1.5795058012008667,1.6879243850708008
1776223431307261200,7.01126123046875,3.021832227706909,1.508941650390625,1.7314339876174927
1776223431327111200,7.031111083984375,3.1435792446136475,1.384527564048767,1.714853048324585
1776223431346961200,7.050961181640625,3.2626261711120605,1.264490008354187,1.637925386428833
1776223431366812200,7.070812255859375,3.300715684890747,1.1467654705047607,1.4943032264709473
1776223431386662100,7.090662109375,3.241703510284424,1.0219240188598633,1.3303048610687256
1776223431406512400,7.110512451171875,3.116628408432007,0.885633647441864,1.1849586963653564
1776223431426363100,7.130363037109375,3.0085222721099854,0.7596458792686462,1.012223482131958
1776223431446213000,7.150213134765625,2.943657159805298,0.6559246182441711,0.8103265762329102
1776223431466063400,7.1700634765625,2.890288829803467,0.520468533039093,0.6795698404312134
1776223431485914000,7.1899140625,2.8292267322540283,0.40417584776878357,0.6708649396896362
1776223431505764400,7.209764404296875,2.718745470046997,0.27997756004333496,0.7009881734848022
1776223431525614300,7.2296142578125,2.4414093494415283,0.14693650603294373,0.6984524130821228
1776223431545465300,7.24946533203125,2.052372932434082,0.042212314903736115,0.6529729962348938
1776223431565315300,7.2693154296875,1.6237926483154297,-0.09545548260211945,0.6119412779808044
1776223431585165300,7.289165283203125,1.1923319101333618,-0.22319594025611877,0.5761768817901611
1776223431605016300,7.309016357421875,0.7313207983970642,-0.32968127727508545,0.4728533923625946
1776223431624866300,7.3288662109375,0.15605659782886505,-0.4476718306541443,0.24906758964061737
1776223431644716300,7.34871630859375,-0.5455456376075745,-0.5687913298606873,-0.08068495988845825
1776223431664567300,7.3685673828125,-1.3052868843078613,-0.6523638963699341,-0.3903128504753113
1776223431684417300,7.388417236328125,-1.8955506086349487,-0.6579123735427856,-0.5459012985229492
1776223431704267300,7.408267333984375,-2.204554557800293,-0.6118203997612,-0.5136075615882874
1776223431724118300,7.4281181640625,-2.3096206188201904,-0.6013082265853882,-0.40622299909591675
1776223431743968300,7.44796826171875,-2.3603498935699463,-0.6019348502159119,-0.3293367326259613
1776223431763818200,7.467818359375,-2.4854793548583984,-0.601693868637085,-0.3704566955566406
1776223431783669200,7.487669189453125,-2.6635589599609375,-0.5439246296882629,-0.5706131458282471
1776223431803519200,7.507519287109375,-2.851083755493164,-0.5194950103759766,-0.8171618580818176
1776223431823369200,7.527369140625,-3.0376007556915283,-0.5996389985084534,-1.0225539207458496
1776223431843220200,7.54722021484375,-3.219186305999756,-0.7686859369277954,-1.1676524877548218
1776223431863070200,7.5670703125,-3.3520874977111816,-0.9181914925575256,-1.3151322603225708
1776223431882920200,7.586920166015625,-3.4358723163604736,-1.0355721712112427,-1.4703176021575928
1776223431902770200,7.606770263671875,-3.511728286743164,-1.0998692512512207,-1.612825870513916
1776223431922621200,7.62662109375,-3.5638375282287598,-1.0892695188522339,-1.7121374607086182
1776223431942471200,7.64647119140625,-3.6055586338043213,-1.0267568826675415,-1.7885288000106812
1776223431962321400,7.6663212890625,-3.59181547164917,-0.8656260967254639,-1.8414654731750488
1776223431982172200,7.686172119140625,-3.5099148750305176,-0.5029546022415161,-1.719459891319275
1776223432002022100,7.706022216796875,-3.431685447692871,-0.010163823142647743,-1.3029201030731201
1776223432021872400,7.725872314453125,-3.2308647632598877,0.32029324769973755,-0.7875527739524841
1776223432041723100,7.74572314453125,-2.731999397277832,0.32884588837623596,-0.3946954607963562
1776223432061573400,7.765573486328125,-1.9863264560699463,0.052517082542181015,-0.07826151698827744
1776223432081423400,7.78542333984375,-1.2311915159225464,-0.4400694668292999,0.17860417068004608
1776223432101274600,7.805274658203125,-0.709183931350708,-0.9121991991996765,0.1478274166584015
1776223432121124900,7.825124755859375,-0.482699990272522,-1.1305906772613525,-0.06079211086034775
1776223432140974800,7.844974853515625,-0.39416393637657166,-1.041047215461731,-0.19626517593860626
1776223432160824800,7.864824951171875,-0.17115992307662964,-0.6714478731155396,-0.2472783625125885
1776223432180675800,7.88467578125,0.23228298127651215,-0.1995048075914383,-0.1541726142168045
1776223432200525800,7.90452587890625,0.6974398493766785,0.12604793906211853,0.1105276495218277
1776223432220375800,7.924375732421875,1.112751841545105,0.3252348303794861,0.46523886919021606
1776223432240226800,7.944226806640625,1.4663264751434326,0.544195830821991,0.7624735832214355
1776223432260076800,7.964076904296875,1.777722954750061,0.8795936703681946,0.9184170961380005
1776223432279926800,7.9839267578125,1.987728238105774,1.276687502861023,1.0084543228149414
1776223432299777800,8.00377783203125,2.0724711418151855,1.6322239637374878,1.0352834463119507
1776223432319627800,8.023627685546876,2.1179771423339844,1.8446649312973022,1.0128604173660278
1776223432339477800,8.043477783203125,2.2236506938934326,1.9069246053695679,1.0016534328460693
1776223432359327700,8.06332763671875,2.401740789413452,1.8318384885787964,1.0447611808776855
1776223432379178800,8.0831787109375,2.650756597518921,1.6624621152877808,1.0749746561050415
1776223432399028700,8.10302880859375,2.9213168621063232,1.4133975505828857,0.9960753917694092
1776223432418878700,8.122878662109375,3.160243272781372,1.1597099304199219,0.7589916586875916
1776223432438729700,8.142729736328125,3.3368277549743652,0.9532105326652527,0.48949000239372253
1776223432458579700,8.162579833984376,3.440763473510742,0.7676824927330017,0.28641775250434875
1776223432478429700,8.1824296875,3.4706192016601562,0.5258987545967102,0.24617253243923187
1776223432498280700,8.20228076171875,3.454493999481201,0.3626655042171478,0.35095155239105225
1776223432518130700,8.222130615234375,3.3628435134887695,0.2127985656261444,0.5000244975090027
1776223432537980700,8.241980712890625,3.1908633708953857,0.08397291600704193,0.6265153884887695
1776223432557831000,8.261830810546876,2.9424870014190674,-0.01852538250386715,0.7118127942085266
1776223432577681700,8.281681640625,2.670226812362671,-0.08493004739284515,0.7948144674301147
1776223432597532000,8.301531982421874,2.401764154434204,-0.09809423238039017,0.9142191410064697
1776223432617382000,8.3213818359375,2.1112496852874756,-0.0716291069984436,1.0237196683883667
1776223432637231900,8.34123193359375,1.7802374362945557,-0.050223466008901596,1.071537971496582
1776223432657083000,8.361082763671876,1.370749831199646,-0.03357185050845146,1.0376092195510864
1776223432676932900,8.380932861328125,0.8796512484550476,0.03140406683087349,0.8909800052642822
1776223432696782800,8.400782958984376,0.3405899107456207,0.0011181937297806144,0.7155466675758362
1776223432716633900,8.4206337890625,-0.15550993382930756,-0.08807124197483063,0.47812819480895996
1776223432736483800,8.44048388671875,-0.6515299081802368,-0.23997792601585388,0.20052975416183472
1776223432756333800,8.460333740234375,-1.2456061840057373,-0.4335883557796478,0.01897391304373741
1776223432776183800,8.480183837890625,-1.8662223815917969,-0.545948326587677,-0.09032095223665237
1776223432796034800,8.500034912109374,-2.3294408321380615,-0.5140022039413452,-0.15939033031463623
1776223432815884800,8.519884765625,-2.593784809112549,-0.40448513627052307,-0.1433050036430359
1776223432835734800,8.53973486328125,-2.6962008476257324,-0.28566107153892517,-0.08743195980787277
1776223432855585800,8.559585693359375,-2.7500455379486084,-0.17772597074508667,-0.07305608689785004
1776223432875435800,8.579435791015625,-2.8389580249786377,-0.13603396713733673,-0.18409904837608337
1776223432895285800,8.59928564453125,-2.910592555999756,-0.129913792014122,-0.4264364540576935
1776223432915135700,8.6191357421875,-2.9699184894561768,-0.21151189506053925,-0.7250251770019531
1776223432934986800,8.63898681640625,-3.0085251331329346,-0.36595842242240906,-0.9456215500831604
1776223432954836700,8.658836669921875,-2.9930317401885986,-0.5547519326210022,-1.0351051092147827
1776223432974687000,8.67868701171875,-2.9124908447265625,-0.6925265789031982,-1.0411949157714844
1776223432994537700,8.698537841796876,-2.780531883239746,-0.7782965302467346,-1.086720585823059
1776223433014388000,8.718387939453125,-2.68156099319458,-0.8125270009040833,-1.2156999111175537
1776223433034238000,8.738238037109374,-2.653829574584961,-0.8280507326126099,-1.330841064453125
1776223433054088000,8.758087890625,-2.650507926940918,-0.7615029811859131,-1.3627451658248901
1776223433073939000,8.77793896484375,-2.6393473148345947,-0.628281831741333,-1.307510495185852
1776223433093789000,8.797788818359376,-2.5920345783233643,-0.44971203804016113,-1.1889973878860474
1776223433113639200,8.81763916015625,-2.430602788925171,-0.2774575650691986,-1.0331172943115234
1776223433133489200,8.8374892578125,-2.1202399730682373,-0.07294300943613052,-0.8554913401603699
1776223433153340200,8.857340087890625,-1.6940879821777344,0.1136220395565033,-0.556137204170227
1776223433173190100,8.877190185546874,-1.2031272649765015,0.16972540318965912,-0.23371125757694244
1776223433193040100,8.8970400390625,-0.7333083152770996,0.11140473932027817,-0.020169058814644814
1776223433212890000,8.91689013671875,-0.4410313367843628,-0.02877490594983101,0.05223257094621658
1776223433232741000,8.9367412109375,-0.2568165361881256,-0.15791156888008118,-0.009669742546975613
1776223433252591000,8.956591064453125,0.00035694194957613945,-0.16580712795257568,-0.07384254038333893
1776223433272441000,8.976441162109374,0.3548052906990051,-0.025893468409776688,-0.05531635135412216
1776223433292291000,8.996291015625,0.6802464723587036,0.1273447573184967,0.07798630744218826
1776223433312142000,9.01614208984375,0.9634910821914673,0.23567400872707367,0.3009355664253235
1776223433331992000,9.035991943359376,1.286899447441101,0.3621082305908203,0.552573025226593
1776223433351842000,9.055842041015625,1.6058365106582642,0.509233295917511,0.7618311047554016
1776223433371692300,9.0756923828125,1.862269639968872,0.7177989482879639,0.9079965353012085
1776223433391543000,9.09554296875,1.9917932748794556,0.9383262395858765,1.0065433979034424
1776223433411393300,9.115393310546875,1.9959213733673096,1.1206785440444946,1.063493013381958
1776223433431243300,9.1352431640625,1.9956116676330566,1.2385064363479614,1.0678138732910156
1776223433451093200,9.15509326171875,2.087005853652954,1.246962070465088,0.9910184741020203
1776223433470944300,9.1749443359375,2.263204574584961,1.0917092561721802,0.8520436882972717
1776223433490794200,9.194794189453125,2.530266284942627,0.8166080713272095,0.6998765468597412
1776223433510644200,9.214644287109374,2.8662631511688232,0.4579472243785858,0.5939648151397705
1776223433530494000,9.234493896484375,3.1961724758148193,0.15252795815467834,0.5203545689582825
1776223433550345200,9.25434521484375,3.4502100944519043,-0.057704273611307144,0.5135008096694946
1776223433570195200,9.2741953125,3.58378267288208,-0.27408158779144287,0.49580276012420654
1776223433590045000,9.294044921875,3.65915584564209,-0.35276177525520325,0.34923869371414185
1776223433609895000,9.31389501953125,3.6516735553741455,-0.3858627676963806,0.20461413264274597
1776223433629746200,9.33374609375,3.5227787494659424,-0.40788695216178894,0.1758560836315155
1776223433649596000,9.353595947265624,3.2491235733032227,-0.4254422187805176,0.24694709479808807
1776223433669446000,9.37344580078125,2.829958200454712,-0.38410279154777527,0.39816585183143616
1776223433689296100,9.393296142578125,2.365300416946411,-0.30511853098869324,0.5541590452194214
1776223433709147000,9.41314697265625,1.9134403467178345,-0.19075846672058105,0.6571437120437622
1776223433728997000,9.4329970703125,1.463653802871704,-0.048205699771642685,0.6987164616584778
1776223433748847000,9.45284716796875,0.9461479783058167,0.07465538382530212,0.7199215292930603
1776223433768697000,9.472697021484375,0.3619289994239807,0.16905829310417175,0.7124610543251038
1776223433788548000,9.492548095703125,-0.20842638611793518,0.1892419010400772,0.6781250238418579
1776223433808398000,9.512398193359376,-0.7309985160827637,0.1344158947467804,0.6495215892791748
1776223433828248000,9.532248046875,-1.2617757320404053,0.08636368811130524,0.5391257405281067
1776223433848098000,9.55209814453125,-1.792313814163208,0.051017358899116516,0.3384552001953125
1776223433867949000,9.571948974609375,-2.206130266189575,0.048336211591959,0.13282299041748047
1776223433887799000,9.591799072265625,-2.4666454792022705,0.011291134171187878,0.029688792303204536
1776223433907649000,9.61164892578125,-2.577080726623535,-0.06956655532121658,-0.006319040432572365
1776223433927499000,9.6314990234375,-2.586381196975708,-0.15095214545726776,-0.061469145119190216
1776223433947350000,9.65135009765625,-2.568181276321411,-0.18821381032466888,-0.18988151848316193
1776223433967200000,9.671199951171875,-2.5809788703918457,-0.18771538138389587,-0.42811256647109985
1776223433987050000,9.691050048828124,-2.6016626358032227,-0.20708385109901428,-0.7498425245285034
1776223434006900000,9.71089990234375,-2.638493776321411,-0.3061184585094452,-1.065366506576538
1776223434026751000,9.7307509765625,-2.7181808948516846,-0.4598221480846405,-1.2943130731582642
1776223434046601000,9.75060107421875,-2.8536360263824463,-0.640722930431366,-1.338578701019287
1776223434066451200,9.770451171875,-2.9531965255737305,-0.7878466844558716,-1.2506005764007568
1776223434086301200,9.79030126953125,-2.9319441318511963,-0.8411121368408203,-1.1356377601623535
1776223434106150400,9.810150390625,-2.8186662197113037,-0.7926371693611145,-1.0889569520950317
1776223434126001400,9.83000146484375,-2.72332501411438,-0.6914190053939819,-1.1154118776321411
1776223434145851400,9.849851318359375,-2.7184395790100098,-0.6206355094909668,-1.1114273071289062
1776223434165701400,9.869701416015625,-2.787266731262207,-0.654052197933197,-0.9914863109588623
1776223434185551400,9.88955126953125,-2.8365085124969482,-0.7897762060165405,-0.8926454782485962
1776223434205402400,9.90940234375,-2.8041958808898926,-0.9719764590263367,-0.9207470417022705
1776223434225252400,9.92925244140625,-2.541781187057495,-1.1655163764953613,-0.9693366885185242
1776223434245102300,9.949102294921875,-1.972747564315796,-1.3416458368301392,-0.9260899424552917
1776223434264952300,9.968952392578124,-1.2628813982009888,-1.4060003757476807,-0.8106054663658142
1776223434284803300,9.98880322265625,-0.6504156589508057,-1.2677994966506958,-0.6524316668510437
1776223434304653300,10.0086533203125,-0.25492995977401733,-0.9678781628608704,-0.46489807963371277
1776223434324503300,10.02850341796875,0.03941556438803673,-0.5007638335227966,-0.28002581000328064
1776223434344353500,10.048353515625,0.3633400499820709,0.09740859270095825,-0.09017661213874817
1776223434364203500,10.06820361328125,0.6519773006439209,0.5630832314491272,0.19713205099105835
1776223434384054500,10.088054443359376,0.8734855651855469,0.6710547804832458,0.5963106751441956
1776223434403904500,10.107904541015625,1.1197673082351685,0.6434604525566101,1.005043864250183
1776223434423754500,10.12775439453125,1.4833531379699707,0.6828193664550781,1.306897759437561
1776223434443604500,10.1476044921875,1.8947874307632446,0.7727751135826111,1.4378244876861572
1776223434463454500,10.167454345703124,2.20304536819458,0.9168121218681335,1.4621851444244385
1776223434483305500,10.187305419921875,2.272289752960205,1.053227186203003,1.3786593675613403
1776223434503155500,10.207155517578125,2.1849451065063477,1.0408426523208618,1.2201210260391235
1776223434523005400,10.22700537109375,2.144122362136841,1.0521225929260254,0.8581666350364685
1776223434542855400,10.24685546875,2.2153518199920654,1.0322349071502686,0.4852522015571594
1776223434562706400,10.26670654296875,2.371005058288574,0.928898274898529,0.33182471990585327
1776223434582556400,10.286556396484375,2.5852150917053223,0.8053199648857117,0.4119991958141327
1776223434602406400,10.306406494140624,2.8360416889190674,0.688083291053772,0.5995929837226868
1776223434622256600,10.326256591796875,3.08270001411438,0.5788310170173645,0.7977768778800964
1776223434642106600,10.346106689453125,3.2758805751800537,0.444498747587204,0.9047392010688782
1776223434661957400,10.365957275390626,3.3689205646514893,0.29784926772117615,0.9219219088554382
1776223434681807600,10.3858076171875,3.3595614433288574,0.14053697884082794,0.8832771182060242
1776223434701657600,10.40565771484375,3.275405168533325,-0.003275507129728794,0.8239706158638
1776223434721507600,10.425507568359375,3.128755807876587,-0.125554621219635,0.7883322238922119
1776223434741357600,10.445357666015624,2.9226255416870117,-0.1957271248102188,0.7967917323112488
1776223434761208600,10.46520849609375,2.693894386291504,-0.204756498336792,0.8874161839485168
1776223434781058600,10.48505859375,2.4509057998657227,-0.2116885930299759,1.073553442955017
1776223434800908500,10.504908447265626,2.1444900035858154,-0.21787218749523163,1.2462974786758423
1776223434820758500,10.524758544921875,1.7957332134246826,-0.19662320613861084,1.3586803674697876
1776223434840609500,10.544609619140624,1.3761935234069824,-0.24269835650920868,1.455842137336731
1776223434860459500,10.56445947265625,0.909506618976593,-0.35843050479888916,1.512027382850647
1776223434880309500,10.5843095703125,0.4850980043411255,-0.40385547280311584,1.440585970878601
1776223434900159200,10.6041591796875,0.020326944068074226,-0.4246337115764618,1.086745262145996
1776223434920009500,10.624009521484375,-0.623065173625946,-0.4592525362968445,0.3916385769844055
1776223434939860500,10.643860595703124,-1.4009722471237183,-0.48538076877593994,-0.478142112493515
1776223434959710500,10.66371044921875,-2.052046298980713,-0.3220515251159668,-1.153670072555542
1776223434979560400,10.683560546875,-2.47540545463562,-0.10473041981458664,-1.4094281196594238
1776223434999410400,10.703410400390625,-2.7103092670440674,0.08896857500076294,-1.3475079536437988
1776223435019260400,10.723260498046875,-2.870784044265747,0.2086460441350937,-1.113332748413086
1776223435039111400,10.743111328125,-2.9734935760498047,0.3681814670562744,-0.9033324718475342
1776223435058961400,10.76296142578125,-3.09128475189209,0.44227176904678345,-0.7945317029953003
1776223435078811400,10.782811279296874,-3.212857723236084,0.3681832551956177,-0.7835230827331543
1776223435098661400,10.802661376953125,-3.3061065673828125,0.20484395325183868,-0.8827584981918335
1776223435118511900,10.822511962890625,-3.370307445526123,-0.03664784133434296,-1.034044623374939
1776223435138363000,10.84236279296875,-3.3933498859405518,-0.31448930501937866,-1.1849435567855835
1776223435158212900,10.862212890625,-3.3187386989593506,-0.5777789354324341,-1.3330572843551636
1776223435178062800,10.882062744140624,-3.147122859954834,-0.7286918759346008,-1.4125537872314453
1776223435197912800,10.901912841796875,-2.9724647998809814,-0.8242051005363464,-1.454442024230957
1776223435217763000,10.92176318359375,-2.877362012863159,-0.8293458223342896,-1.5244468450546265
1776223435237613800,10.94161376953125,-2.913731575012207,-0.8136148452758789,-1.5206702947616577
1776223435257463800,10.9614638671875,-2.986478090286255,-0.7500098943710327,-1.3503494262695312
1776223435277314000,10.98131396484375,-2.894030809402466,-0.5818657875061035,-1.0483675003051758
1776223435297164000,11.0011640625,-2.5558409690856934,-0.4528306722640991,-0.6899276375770569
1776223435317014000,11.021013916015624,-2.048334836959839,-0.4242068827152252,-0.328123539686203
1776223435336865000,11.040864990234375,-1.4705023765563965,-0.47888338565826416,-0.09103204309940338
1776223435356715000,11.060715087890625,-0.9498686790466309,-0.5819829106330872,-0.094374880194664
1776223435376565000,11.08056494140625,-0.6253911256790161,-0.7012867331504822,-0.2810197174549103
1776223435396415000,11.1004150390625,-0.46127885580062866,-0.6757466197013855,-0.4820130467414856
1776223435416265000,11.120264892578126,-0.2811400890350342,-0.4122841954231262,-0.5969125628471375
1776223435436116000,11.140115966796875,-0.08845146745443344,-0.09935121238231659,-0.512040913105011
1776223435455966000,11.159966064453124,0.07837073504924774,0.13534756004810333,-0.25945329666137695
1776223435475816000,11.17981591796875,0.29813888669013977,0.3363531827926636,0.20303434133529663
1776223435495666000,11.199666015625,0.7901727557182312,0.7110598087310791,0.6930739879608154
1776223435515516000,11.219515869140626,1.3829888105392456,1.1628528833389282,1.0622764825820923
1776223435535366000,11.239365966796875,1.855206847190857,1.5724763870239258,1.1991491317749023
1776223435555217200,11.259217041015624,2.1448814868927,1.8175642490386963,1.131416916847229
1776223435575067000,11.27906689453125,2.2796053886413574,1.8740979433059692,0.9670343399047852
1776223435594916900,11.298916748046874,2.421581506729126,1.8229625225067139,0.891014039516449
1776223435614766800,11.318766845703125,2.6402931213378906,1.6772674322128296,0.9873069524765015
1776223435634616800,11.338616943359375,2.9649887084960938,1.4315043687820435,1.217358946800232
1776223435654467800,11.3584677734375,3.3362858295440674,1.1366281509399414,1.3370881080627441
1776223435674317800,11.37831787109375,3.6410036087036133,0.8775947093963623,1.290847897529602
1776223435694167800,11.398167724609374,3.8658549785614014,0.6589518189430237,1.1921093463897705
1776223435714017800,11.418017822265625,3.971789836883545,0.46049654483795166,1.1334677934646606
1776223435733867800,11.43786767578125,3.955197334289551,0.2861824035644531,1.085557222366333
1776223435753718000,11.457718017578125,3.7840702533721924,0.1670752912759781,0.992578387260437
1776223435773568800,11.47756884765625,3.4656412601470947,0.061033379286527634,0.8647059202194214
1776223435793419000,11.4974189453125,3.0535175800323486,-0.02268832176923752,0.7681370973587036
1776223435813269000,11.51726904296875,2.6312413215637207,-0.05602271482348442,0.7439021468162537
1776223435833119000,11.537118896484374,2.2947280406951904,-0.018368709832429886,0.7584078311920166
1776223435852969000,11.556968994140625,2.0368812084198,0.031291209161281586,0.7817484736442566
1776223435872820000,11.576820068359375,1.7662116289138794,0.07348780333995819,0.7485553026199341
1776223435892670000,11.596669921875,1.43271005153656,0.0709492638707161,0.6362767815589905
1776223435912520000,11.61652001953125,1.043946623802185,-0.053747378289699554,0.484557181596756
1776223435932370000,11.636369873046876,0.6196305751800537,-0.2074926495552063,0.2970924973487854
1776223435952220000,11.656219970703125,0.19267834722995758,-0.3410477936267853,0.06866061687469482
1776223435972070000,11.67606982421875,-0.2876170575618744,-0.4257003962993622,-0.19176794588565826
1776223435991921000,11.6959208984375,-0.8251937031745911,-0.39540961384773254,-0.48136836290359497
1776223436011771000,11.71577099609375,-1.3292635679244995,-0.3197251558303833,-0.6549296379089355
1776223436031620900,11.735620849609376,-1.7326797246932983,-0.2824982702732086,-0.6100624203681946
1776223436051471000,11.75547119140625,-2.0110652446746826,-0.2593388259410858,-0.45455223321914673
1776223436071321000,11.775321044921874,-2.1711626052856445,-0.2684302031993866,-0.2725774645805359
1776223436091171000,11.795171142578125,-2.258946657180786,-0.29631516337394714,-0.15693315863609314
1776223436111022000,11.81502197265625,-2.321533203125,-0.30592966079711914,-0.17261548340320587
1776223436130872000,11.8348720703125,-2.422966480255127,-0.3322753608226776,-0.33278602361679077
1776223436150722000,11.85472216796875,-2.5896902084350586,-0.45320531725883484,-0.5187981724739075
1776223436170572000,11.874572021484376,-2.7725980281829834,-0.611558735370636,-0.6972110867500305
1776223436190422000,11.894422119140625,-2.93182110786438,-0.7685667872428894,-0.9247673153877258
1776223436210272000,11.91427197265625,-3.0402016639709473,-0.9005002379417419,-1.1614654064178467
1776223436230123000,11.934123046875,-3.0820162296295166,-0.9838230609893799,-1.3370561599731445
1776223436249973000,11.953972900390625,-3.050603151321411,-1.0228922367095947,-1.4025648832321167
1776223436269823000,11.973822998046876,-2.9686055183410645,-1.058775544166565,-1.407301425933838
1776223436289673200,11.993673095703125,-2.8388993740081787,-1.0099068880081177,-1.4961901903152466
1776223436309523200,12.013523193359376,-2.73407244682312,-0.9470227956771851,-1.6557981967926025
1776223436329373200,12.033373291015625,-2.717156410217285,-0.9577361941337585,-1.752185583114624
1776223436349224200,12.05322412109375,-2.7343451976776123,-0.9965871572494507,-1.700103521347046
1776223436369074200,12.07307421875,-2.639643430709839,-0.9446062445640564,-1.5257856845855713
1776223436388924200,12.092924072265625,-2.342339277267456,-0.8306066393852234,-1.3181647062301636
1776223436408774100,12.112774169921876,-1.906351923942566,-0.637336015701294,-1.1081634759902954
1776223436428624100,12.1326240234375,-1.5158823728561401,-0.49357354640960693,-0.8795081973075867
1776223436448473900,12.152473876953126,-1.1540800333023071,-0.42601725459098816,-0.7139876484870911
1776223436468325000,12.1723251953125,-0.7760249376296997,-0.3509942293167114,-0.6133455634117126
1776223436488175000,12.192175048828124,-0.3239944279193878,-0.22985999286174774,-0.47784072160720825
1776223436508024800,12.21202490234375,0.21577857434749603,-0.14144647121429443,-0.25771069526672363
1776223436527875000,12.231875,0.7338652014732361,-0.08945854753255844,0.03573344275355339
1776223436547725000,12.25172509765625,1.1389875411987305,-0.01892523653805256,0.3350833058357239
1776223436567575000,12.271574951171875,1.5267188549041748,0.17386694252490997,0.5880458950996399
1776223436587426000,12.291426025390624,1.9240695238113403,0.4850495457649231,0.8468560576438904
1776223436607276000,12.311276123046875,2.2604026794433594,0.8305767774581909,1.0871334075927734
1776223436627126000,12.3311259765625,2.4847304821014404,1.134047031402588,1.2558186054229736
1776223436646976000,12.35097607421875,2.615906238555908,1.3810473680496216,1.3815864324569702
1776223436666826000,12.370825927734375,2.7909655570983887,1.5913548469543457,1.5002007484436035
1776223436686676000,12.390676025390626,3.062040090560913,1.7298849821090698,1.5740333795547485
1776223436706526000,12.41052587890625,3.3349015712738037,1.771205186843872,1.6052855253219604
1776223436726377000,12.430376953125,3.509465217590332,1.6955138444900513,1.615854024887085
1776223436746227000,12.45022705078125,3.579430341720581,1.5257998704910278,1.5908946990966797
1776223436766077000,12.470076904296874,3.5216400623321533,1.2806477546691895,1.6039164066314697
1776223436785927200,12.48992724609375,3.3968982696533203,1.012162208557129,1.6760989427566528
1776223436805777200,12.509777099609375,3.243410348892212,0.7730817198753357,1.734878659248352
1776223436825627100,12.529627197265626,3.078855514526367,0.6087168455123901,1.706067681312561
1776223436845478100,12.54947802734375,2.896632671356201,0.499544233083725,1.5656027793884277
1776223436865328000,12.569328125,2.6886394023895264,0.39537498354911804,1.339830994606018
1776223436885178000,12.58917822265625,2.4314897060394287,0.3101758658885956,1.070586919784546
1776223436905028000,12.609028076171874,2.1619231700897217,0.2698555290699005,0.7819600105285645
1776223436924878000,12.628878173828125,1.8715842962265015,0.24361291527748108,0.5264146327972412
1776223436944728000,12.64872802734375,1.5580806732177734,0.21339444816112518,0.33974966406822205
1776223436964578000,12.668578125,1.2397691011428833,0.17589758336544037,0.19437412917613983
1776223436984429000,12.688428955078125,0.9092194437980652,0.10831278562545776,0.05832228809595108
1776223437004279000,12.708279052734374,0.5118932723999023,-0.00833448488265276,-0.10268968343734741
1776223437024129300,12.72812939453125,0.03900548443198204,-0.1364428699016571,-0.2449381947517395
1776223437043979000,12.74797900390625,-0.46744710206985474,-0.24071316421031952,-0.37054941058158875
1776223437063829000,12.7678291015625,-0.9699119925498962,-0.36342892050743103,-0.5517326593399048
1776223437083679000,12.787678955078125,-1.5277811288833618,-0.4234372675418854,-0.7489330768585205
1776223437103529000,12.807529052734376,-2.065469980239868,-0.4188366234302521,-0.8873472809791565
1776223437123380000,12.8273798828125,-2.440810203552246,-0.33377742767333984,-0.8814494609832764
1776223437143230000,12.84722998046875,-2.610239267349243,-0.2578800916671753,-0.7785778641700745
1776223437163080000,12.867079833984375,-2.572753429412842,-0.2205352783203125,-0.6309394240379333
1776223437182930000,12.886929931640625,-2.4195480346679688,-0.24456726014614105,-0.5477897524833679
1776223437202780000,12.90677978515625,-2.336927652359009,-0.2789291441440582,-0.6189940571784973
1776223437222630100,12.926630126953125,-2.4181227684020996,-0.32613763213157654,-0.8666294813156128
1776223437242480000,12.946480224609376,-2.6404104232788086,-0.4424033761024475,-1.1468019485473633
1776223437262331100,12.9663310546875,-2.900020122528076,-0.5701473951339722,-1.347010612487793
1776223437282181000,12.98618115234375,-3.0415310859680176,-0.6621479988098145,-1.3987972736358643
1776223437302031000,13.006031005859375,-3.020737648010254,-0.7002246975898743,-1.395929217338562
1776223437321880800,13.025880859375,-2.87939453125,-0.7217778563499451,-1.3966875076293945
1776223437341730800,13.045730712890625,-2.7292838096618652,-0.7266162037849426,-1.3851964473724365
1776223437361580800,13.065580810546875,-2.609096050262451,-0.6887557506561279,-1.358555555343628
1776223437381430800,13.0854306640625,-2.5129330158233643,-0.6354554295539856,-1.3485065698623657
1776223437401281800,13.10528173828125,-2.418816566467285,-0.5925344824790955,-1.3572449684143066
1776223437421131800,13.1251318359375,-2.288999080657959,-0.628657341003418,-1.3156344890594482
1776223437440981800,13.144981689453125,-2.0560462474823,-0.7966589331626892,-1.183253526687622
1776223437460832000,13.16483203125,-1.665783405303955,-1.003627061843872,-1.0794029235839844
1776223437480682000,13.184681884765626,-1.1523056030273438,-1.189833641052246,-1.0856784582138062
1776223437500532000,13.204531982421875,-0.6923651099205017,-1.323055624961853,-1.1036244630813599
1776223437520382000,13.2243818359375,-0.3950645327568054,-1.3811897039413452,-1.0255296230316162
1776223437540233000,13.24423291015625,-0.19782985746860504,-1.2760586738586426,-0.9198707938194275
1776223437560083000,13.2640830078125,0.007843028753995895,-1.0094799995422363,-0.8328654170036316
1776223437579933000,13.283932861328125,0.212102472782135,-0.6911051869392395,-0.6667053699493408
1776223437599783000,13.303782958984375,0.4734222888946533,-0.3687922954559326,-0.408730149269104
1776223437619633000,13.3236328125,0.730370819568634,-0.12686362862586975,-0.01800633780658245
1776223437639483000,13.34348291015625,0.9424092173576355,0.021440310403704643,0.47444748878479004
1776223437659332900,13.363332763671876,1.1407196521759033,0.14495310187339783,0.9668923020362854
1776223437679183000,13.38318310546875,1.4347193241119385,0.40168315172195435,1.3330415487289429
1776223437699033900,13.403033935546874,1.8113281726837158,0.7489721179008484,1.5578017234802246
1776223437718884000,13.422884033203125,2.1488568782806396,1.0245510339736938,1.7012470960617065
1776223437738734000,13.442734130859375,2.373215436935425,1.2543805837631226,1.6648359298706055
1776223437758584000,13.462583984375,2.4842779636383057,1.357622742652893,1.5829702615737915
1776223437778434000,13.48243408203125,2.5703070163726807,1.3499897718429565,1.56992769241333
1776223437798283800,13.50228369140625,2.7485506534576416,1.2435088157653809,1.6121803522109985
1776223437818133800,13.5221337890625,2.933673858642578,1.0406125783920288,1.690805435180664
1776223437837985000,13.541985107421874,3.061680316925049,0.8006513118743896,1.8271527290344238
1776223437857834800,13.561834716796875,3.1479978561401367,0.5430044531822205,1.9341294765472412
1776223437877684700,13.581684814453125,3.184807538986206,0.34788256883621216,1.9380770921707153
1776223437897534700,13.60153466796875,3.1391594409942627,0.18830989301204681,1.9137457609176636
1776223437917385000,13.621385009765625,2.9799211025238037,0.06900596618652344,1.9391580820083618
1776223437937235000,13.64123486328125,2.747607469558716,-0.019631624221801758,1.98630690574646
1776223437957085000,13.6610849609375,2.472532033920288,0.005870471708476543,1.9018651247024536
1776223437976935000,13.680934814453124,2.178447723388672,0.07297223061323166,1.6925857067108154
1776223437996786000,13.700785888671875,1.8872181177139282,0.1351257562637329,1.4300740957260132
1776223438016636000,13.720635986328125,1.6181942224502563,0.17386764287948608,1.1553980112075806
1776223438036486000,13.74048583984375,1.3283755779266357,0.1662542223930359,0.8674089312553406
1776223438056336000,13.7603359375,0.9522091746330261,0.10393567383289337,0.59389728307724
1776223438076185900,13.780185791015626,0.4648324251174927,-0.001094316365197301,0.37613725662231445
1776223438096035800,13.800035888671875,-0.09567984938621521,-0.10365793108940125,0.2294837236404419
1776223438115885300,13.81988525390625,-0.6441605091094971,-0.15079914033412933,0.11676786094903946
1776223438135735300,13.8397353515625,-1.0653502941131592,-0.09518855065107346,0.0034609725698828697
1776223438155586300,13.85958642578125,-1.35904061794281,-0.008396925404667854,-0.07203444093465805
1776223438175436300,13.879436279296876,-1.5971975326538086,0.05799856781959534,-0.17703616619110107
1776223438195286300,13.899286376953125,-1.9081518650054932,0.07263176888227463,-0.36990252137184143
1776223438215136300,13.91913623046875,-2.2881317138671875,0.05887836217880249,-0.5927562713623047
1776223438234986000,13.938986083984375,-2.669583559036255,0.06762276589870453,-0.7056146860122681
1776223438254836000,13.9588359375,-2.901719808578491,0.10095559805631638,-0.7133451700210571
1776223438274686200,13.978686279296875,-2.901765823364258,0.10606695711612701,-0.6586158275604248
1776223438294536200,13.9985361328125,-2.67799711227417,0.04792695492506027,-0.5710225701332092
1776223438314387200,14.01838720703125,-2.3273844718933105,-0.022886985912919044,-0.5230603218078613
1776223438334237200,14.0382373046875,-2.0129716396331787,-0.12070222198963165,-0.5692598819732666
1776223438354087200,14.058087158203126,-1.885241985321045,-0.2935956120491028,-0.7153102159500122
1776223438373937200,14.077937255859375,-1.9211277961730957,-0.5527892708778381,-0.8753442168235779
1776223438393787100,14.097787109375,-2.025092840194702,-0.772476315498352,-0.9468100666999817
1776223438413637000,14.11763720703125,-2.0305633544921875,-0.8823997378349304,-0.8913166522979736
1776223438433487000,14.137487060546874,-1.9141894578933716,-0.8897169828414917,-0.7878144383430481
1776223438453337000,14.157337158203125,-1.731500506401062,-0.85865718126297,-0.7302447557449341
1776223438473188000,14.17718798828125,-1.5823651552200317,-0.77772057056427,-0.7473645806312561
1776223438493038000,14.1970380859375,-1.519608736038208,-0.6513092517852783,-0.8464797735214233
1776223438512888300,14.216888427734375,-1.509765625,-0.5210639834403992,-0.9651520252227783
1776223438532738300,14.23673828125,-1.4670525789260864,-0.3930005431175232,-1.0189226865768433
1776223438552588300,14.25658837890625,-1.3696783781051636,-0.30582675337791443,-1.0146650075912476
1776223438572438300,14.276438232421874,-1.264543890953064,-0.28293442726135254,-0.9815765023231506
1776223438592288300,14.296288330078125,-1.1487385034561157,-0.2927856147289276,-0.9246341586112976
1776223438612138200,14.31613818359375,-0.9970297813415527,-0.30850133299827576,-0.859610915184021
1776223438631988200,14.33598828125,-0.7639808058738708,-0.34664151072502136,-0.8017246127128601
1776223438651839200,14.355839111328125,-0.4412411153316498,-0.37101951241493225,-0.7546183466911316
1776223438671689200,14.375689208984374,-0.08021007478237152,-0.4351189434528351,-0.6785545945167542
1776223438691539200,14.395539306640625,0.21147693693637848,-0.5135810375213623,-0.5769557952880859
1776223438711389200,14.41538916015625,0.38100069761276245,-0.5847019553184509,-0.4624616205692291
1776223438731239200,14.4352392578125,0.5077614784240723,-0.6055471301078796,-0.3235550820827484
1776223438751089200,14.455089111328125,0.6527654528617859,-0.5592265725135803,-0.10093323886394501
1776223438770939100,14.474939208984376,0.8145366907119751,-0.4738796055316925,0.22302868962287903
1776223438790789000,14.4947890625,0.9708309769630432,-0.32626834511756897,0.616202712059021
1776223438810640100,14.51464013671875,1.1839886903762817,0.09322035312652588,1.122437596321106
1776223438830490000,14.534489990234375,1.514870047569275,0.8439689874649048,1.8261929750442505
1776223438850340000,14.554340087890624,1.8229621648788452,1.5572259426116943,2.474597454071045
1776223438870190000,14.574190185546875,2.069416046142578,1.9791486263275146,2.7417197227478027
1776223438890040000,14.5940400390625,2.234027147293091,1.9966388940811157,2.5609116554260254
1776223438909890000,14.61389013671875,2.19999623298645,1.5970008373260498,2.0776450634002686
1776223438929740300,14.633740234375,2.0515854358673096,1.1321674585342407,1.5431228876113892
1776223438949590300,14.65359033203125,1.9203007221221924,0.9225481152534485,1.101601481437683
1776223438969441300,14.673441162109375,1.8673789501190186,0.9102327227592468,0.8528665900230408
1776223438989291300,14.693291259765624,1.8304734230041504,0.9310333132743835,0.8776923418045044
1776223439009141200,14.713141357421875,1.8171758651733398,0.9452964663505554,1.1042215824127197
1776223439028991200,14.7329912109375,1.8211274147033691,0.9883573055267334,1.3660706281661987
1776223439048841200,14.75284130859375,1.7649526596069336,1.0420538187026978,1.4503639936447144
1776223439068691200,14.772691162109375,1.6366873979568481,1.043601155281067,1.3087533712387085
1776223439088541200,14.792541259765626,1.465384602546692,0.955219566822052,1.041483759880066
1776223439108393000,14.81239306640625,1.2656596899032593,0.8423451781272888,0.681648850440979
1776223439128242700,14.83224267578125,1.0759285688400269,0.679176926612854,0.27301308512687683
1776223439148092700,14.8520927734375,0.9225180149078369,0.49497082829475403,-0.18428410589694977
1776223439167942700,14.871942626953125,0.8106523156166077,0.34060999751091003,-0.6716169118881226
1776223439187793000,14.89179296875,0.7380481362342834,0.14853304624557495,-1.1221582889556885
1776223439207643000,14.911642822265625,0.6736562252044678,-0.08503608405590057,-1.4607148170471191
1776223439227492900,14.931492919921874,0.602779746055603,-0.36419379711151123,-1.6872583627700806
1776223439247343900,14.95134375,0.543526291847229,-0.6466814279556274,-1.8842474222183228
1776223439267193900,14.97119384765625,0.47219908237457275,-0.8985470533370972,-2.1803946495056152
1776223439287043800,14.9910439453125,0.40812087059020996,-1.1296411752700806,-2.56550669670105
1776223439306893800,15.010893798828125,0.3241479992866516,-1.3691133260726929,-2.975839376449585
1776223439326743800,15.030743896484376,0.1552792340517044,-1.6488990783691406,-3.287816286087036
1776223439346593800,15.05059375,-0.15395373106002808,-1.8888989686965942,-3.4967753887176514
1776223439366443800,15.07044384765625,-0.5379074215888977,-1.9249061346054077,-3.7225306034088135
1776223439386294800,15.090294677734375,-0.9865999221801758,-1.8490407466888428,-3.9312784671783447
1776223439406144800,15.110144775390625,-1.4361828565597534,-1.7282018661499023,-3.9758076667785645
1776223439425994800,15.129994873046876,-1.798037052154541,-1.6456338167190552,-3.6674904823303223
1776223439445845000,15.149844970703125,-1.9816263914108276,-1.5042805671691895,-2.9808499813079834
1776223439465695000,15.169695068359376,-2.0184662342071533,-1.3643124103546143,-2.044167995452881
1776223439485545000,15.189544921875,-1.9835991859436035,-1.0866481065750122,-1.13714599609375
1776223439505395000,15.20939501953125,-1.8886955976486206,-0.7026112079620361,-0.5046120882034302
1776223439525246000,15.229245849609375,-1.7735317945480347,-0.2836061418056488,-0.2129984200000763
1776223439545096000,15.249095947265625,-1.6732330322265625,0.016626745462417603,-0.2079639732837677
1776223439564946000,15.26894580078125,-1.616457223892212,0.107045017182827,-0.3820423483848572
1776223439584796000,15.2887958984375,-1.6001321077346802,0.02045486494898796,-0.5996120572090149
1776223439604645600,15.308645751953126,-1.5602041482925415,-0.20140065252780914,-0.7853417992591858
1776223439624495900,15.328495849609375,-1.4741485118865967,-0.4517190456390381,-0.9962801337242126
1776223439644347000,15.348346923828124,-1.3532716035842896,-0.6678643226623535,-1.2864990234375
1776223439664196600,15.368196533203125,-1.262701392173767,-0.8404488563537598,-1.6162657737731934
1776223439684046800,15.388046875,-1.2191472053527832,-0.9419764876365662,-1.8645561933517456
1776223439703896800,15.407896728515626,-1.2392429113388062,-1.0093939304351807,-1.9354232549667358
1776223439723746800,15.427746826171875,-1.299076795578003,-1.0158895254135132,-1.8223198652267456
1776223439743596800,15.4475966796875,-1.341723918914795,-0.9838177561759949,-1.6350231170654297
1776223439763446800,15.46744677734375,-1.337090253829956,-0.9195531606674194,-1.452061653137207
1776223439783297800,15.4872978515625,-1.2906396389007568,-0.8329697847366333,-1.2362160682678223
1776223439803147800,15.507147705078125,-1.1629527807235718,-0.7244248986244202,-0.9820193648338318
1776223439822997800,15.526997802734375,-0.9430872797966003,-0.6377495527267456,-0.6951475143432617
1776223439842847700,15.54684765625,-0.6691297888755798,-0.5734909176826477,-0.41636645793914795
1776223439862697700,15.56669775390625,-0.4362533688545227,-0.5169270038604736,-0.19565299153327942
1776223439882548000,15.5865478515625,-0.24648672342300415,-0.44500526785850525,-0.016751214861869812
1776223439902398700,15.606398681640625,-0.006468530278652906,-0.3466793894767761,0.0985298752784729
1776223439922249000,15.6262490234375,0.2677660584449768,-0.2935120761394501,0.15129704773426056
1776223439942099000,15.646098876953126,0.541578471660614,-0.29730671644210815,0.1806677281856537
1776223439961949000,15.665948974609375,0.7659648060798645,-0.36226657032966614,0.24882689118385315
1776223439981799000,15.685798828125,1.019768476486206,-0.4482557773590088,0.33215823769569397
1776223440001649000,15.70564892578125,1.388008952140808,-0.44499722123146057,0.3711284101009369
1776223440021500000,15.7255,1.781615972518921,-0.3669760823249817,0.39183318614959717
1776223440041350000,15.745349853515625,2.126824140548706,-0.3113008439540863,0.4806351065635681
1776223440061200000,15.765199951171875,2.399245500564575,-0.23170152306556702,0.623667299747467
1776223440081049900,15.7850498046875,2.619133234024048,-0.16471520066261292,0.7854399085044861
1776223440100899800,15.80489990234375,2.839496374130249,-0.130154088139534,0.8941278457641602
1776223440120750600,15.82475048828125,3.0719053745269775,-0.10945156216621399,0.8420342206954956
1776223440140600600,15.8446005859375,3.2190046310424805,-0.13908745348453522,0.6517177820205688
1776223440160450800,15.864450927734374,3.2102108001708984,-0.21099865436553955,0.45530202984809875
1776223440180300800,15.88430078125,3.141545534133911,-0.31254610419273376,0.34601956605911255
1776223440200150800,15.90415087890625,3.1048812866210938,-0.3639393746852875,0.24966579675674438
1776223440220000800,15.924000732421876,3.0956406593322754,-0.38447487354278564,0.19591087102890015
1776223440239851800,15.943851806640625,3.0435235500335693,-0.39185482263565063,0.19906236231327057
1776223440259701800,15.96370166015625,2.900517463684082,-0.3985539972782135,0.20987457036972046
1776223440279551700,15.9835517578125,2.659895181655884,-0.3912661075592041,0.17964549362659454
1776223440299401700,16.003401611328126,2.3474223613739014,-0.4135587811470032,0.09626395255327225
1776223440319251700,16.023251708984375,1.9911950826644897,-0.42278262972831726,-0.015581357292830944
1776223440339101400,16.043101318359376,1.6234779357910156,-0.46458899974823,-0.16282230615615845
1776223440358952700,16.06295263671875,1.253970742225647,-0.5054022073745728,-0.3364148736000061
1776223440378802700,16.082802734375,0.8690952658653259,-0.508086085319519,-0.4948950409889221
1776223440398652700,16.102652587890624,0.4817754030227661,-0.48210665583610535,-0.6272422671318054
1776223440418502700,16.122502685546873,0.07256998866796494,-0.41753727197647095,-0.765773594379425
1776223440438352600,16.1423525390625,-0.4152791202068329,-0.30110177397727966,-0.9752995371818542
1776223440458203600,16.16220361328125,-0.9706714749336243,-0.13048215210437775,-1.2772163152694702
1776223440478053600,16.1820537109375,-1.5501327514648438,0.041048161685466766,-1.6048635244369507
1776223440497903600,16.201903564453126,-2.0586929321289062,0.1778307855129242,-1.8794901371002197
1776223440517753600,16.221753662109375,-2.4918534755706787,0.25862202048301697,-2.1254003047943115
1776223440537603600,16.241603515625,-2.9249908924102783,0.34618234634399414,-2.431701183319092
1776223440557453600,16.26145361328125,-3.4148612022399902,0.42778894305229187,-2.773007392883301
1776223440577304600,16.2813046875,-3.895775318145752,0.521460235118866,-3.053647994995117
1776223440597154600,16.301154541015624,-4.1575093269348145,0.5998657941818237,-3.1701102256774902
1776223440617004500,16.321004638671877,-4.035854816436768,0.5470969676971436,-3.104732036590576
1776223440636854500,16.3408544921875,-3.4891245365142822,0.2190345674753189,-2.82527232170105
1776223440656704800,16.360704833984375,-2.5896921157836914,-0.26882103085517883,-2.3931210041046143
1776223440676555500,16.380555419921876,-1.5791443586349487,-0.8320934772491455,-2.029341459274292
1776223440696405800,16.40040576171875,-0.7724674344062805,-1.4365522861480713,-1.8488186597824097
1776223440716255700,16.420255859375,-0.34560930728912354,-1.9697965383529663,-1.795467495918274
1776223440736105700,16.440105712890624,-0.22698663175106049,-2.36893630027771,-1.7937588691711426
1776223440755955700,16.459955810546877,-0.2644160985946655,-2.625509023666382,-1.865889072418213
1776223440775805700,16.4798056640625,-0.3118458092212677,-2.6619505882263184,-2.093679189682007
1776223440795656700,16.49965673828125,-0.3105887472629547,-2.4963784217834473,-2.529395341873169
1776223440815506700,16.519506591796876,-0.378903865814209,-2.244889259338379,-3.0306880474090576
1776223440835356700,16.539356689453125,-0.5504062175750732,-2.0349769592285156,-3.3252556324005127
1776223440855206700,16.55920654296875,-0.700333297252655,-1.8038914203643799,-3.469015121459961
1776223440875056600,16.579056640625,-0.8469564914703369,-1.572322964668274,-3.496273994445801
1776223440894907000,16.598906982421877,-0.9809852242469788,-1.3623559474945068,-3.2730278968811035
1776223440914757600,16.618757568359374,-1.1312053203582764,-1.1594806909561157,-2.6660783290863037
1776223440934608000,16.63860791015625,-1.182505488395691,-0.9767137765884399,-1.7636233568191528
1776223440954457900,16.658457763671876,-1.0526762008666992,-0.7622038125991821,-0.7902512550354004
1776223440974307800,16.678307861328125,-0.7889224886894226,-0.5305091142654419,0.028147680684924126
1776223440994157600,16.698157470703126,-0.5426393747329712,-0.3040156364440918,0.6133933663368225
1776223441014007600,16.718007568359376,-0.38462191820144653,-0.07547686249017715,0.9994866251945496
1776223441033858800,16.73785888671875,-0.29283711314201355,0.11385247111320496,1.2568837404251099
1776223441053708500,16.75770849609375,-0.11311765015125275,0.2411319464445114,1.3399134874343872
1776223441073558500,16.77755859375,0.13059696555137634,0.26227453351020813,1.2722172737121582
1776223441093408500,16.797408447265624,0.3357391357421875,0.18235120177268982,1.1830037832260132
1776223441113258500,16.817258544921874,0.4178302586078644,0.08665717393159866,1.1601430177688599
1776223441133109500,16.837109619140627,0.4094383120536804,0.022545665502548218,1.2000056505203247
1776223441152959500,16.85695947265625,0.46973007917404175,0.05010297894477844,1.2936556339263916
1776223441172809700,16.876809814453125,0.7266771197319031,0.1974116861820221,1.4529411792755127
1776223441192659700,16.89665966796875,1.080003023147583,0.470486581325531,1.6703448295593262
1776223441212509700,16.916509765625,1.4003976583480835,0.808299720287323,1.9098740816116333
1776223441232359700,16.936359619140624,1.6651585102081299,1.1585749387741089,2.0841636657714844
1776223441252210700,16.956210693359374,1.816394329071045,1.397100806236267,2.102139949798584
1776223441272060700,16.976060791015627,1.9347432851791382,1.4825408458709717,2.0329654216766357
1776223441291910700,16.99591064453125,2.045164108276367,1.4158506393432617,1.9507322311401367
1776223441311760600,17.0157607421875,2.127490520477295,1.2475709915161133,1.8778128623962402
1776223441331610400,17.0356103515625,2.170311689376831,1.0696672201156616,1.76047682762146
1776223441351460400,17.05546044921875,2.1492488384246826,0.9383162260055542,1.5851603746414185
1776223441371311600,17.0753115234375,2.1141443252563477,0.7863600254058838,1.4442764520645142
1776223441391161300,17.095161376953126,2.211557149887085,0.6631564497947693,1.3040724992752075
1776223441411011600,17.115011474609375,2.346414089202881,0.494696706533432,1.1868473291397095
1776223441430861600,17.134861572265624,2.4123592376708984,0.32410678267478943,1.1056960821151733
1776223441450711600,17.154711669921873,2.3732495307922363,0.1677584946155548,1.0534578561782837
1776223441470561500,17.1745615234375,2.2341909408569336,0.0338873565196991,0.966476559638977
1776223441490412500,17.19441259765625,2.0232622623443604,-0.07118995487689972,0.8115016222000122
1776223441510262500,17.214262451171876,1.7544474601745605,-0.16708283126354218,0.615423321723938
1776223441530112500,17.234112548828126,1.4401084184646606,-0.23333178460597992,0.4370100796222687
1776223441549962500,17.25396240234375,1.1445353031158447,-0.2825508117675781,0.29826685786247253
1776223441569812500,17.2738125,0.8760047554969788,-0.33383888006210327,0.18882688879966736
1776223441589662500,17.293662353515625,0.6085847020149231,-0.3421650528907776,0.07256652414798737
1776223441609513500,17.313513427734375,0.30412718653678894,-0.3563593626022339,-0.09343929588794708
1776223441629363500,17.333363525390624,-0.08033271133899689,-0.3725358545780182,-0.3228718340396881
1776223441649213400,17.35321337890625,-0.5216771364212036,-0.3804970681667328,-0.6293902397155762
1776223441669063700,17.373063720703126,-0.9364012479782104,-0.34852302074432373,-0.9676516056060791
1776223441688913700,17.39291357421875,-1.3077958822250366,-0.2765689790248871,-1.3397953510284424
1776223441708763600,17.412763671875,-1.644740343093872,-0.17383019626140594,-1.7436275482177734
1776223441728614700,17.43261474609375,-1.973616123199463,-0.08613403141498566,-2.075885772705078
1776223441748464600,17.452464599609375,-2.291829824447632,-0.03906671702861786,-2.283184766769409
1776223441768314600,17.472314697265624,-2.43247652053833,-0.034828606992959976,-2.333184242248535
1776223441788164600,17.49216455078125,-2.3239734172821045,-0.08112933486700058,-2.251673936843872
1776223441808014600,17.5120146484375,-2.041762113571167,-0.22968585789203644,-2.110065221786499
1776223441827864600,17.531864501953127,-1.7172362804412842,-0.4008595943450928,-2.030285358428955
1776223441847714600,17.551714599609376,-1.4484177827835083,-0.6136460900306702,-2.1253693103790283
1776223441867565600,17.571565673828125,-1.3207238912582397,-0.8742735385894775,-2.3761911392211914
1776223441887415600,17.59141552734375,-1.337096929550171,-1.1145812273025513,-2.621544122695923
1776223441907265500,17.611265625,-1.4612200260162354,-1.3352075815200806,-2.7682342529296875
1776223441927115500,17.631115478515625,-1.5598193407058716,-1.4814705848693848,-2.7958197593688965
1776223441946965500,17.650965576171874,-1.5783672332763672,-1.5170406103134155,-2.7582175731658936
1776223441966815500,17.6708154296875,-1.4268065690994263,-1.4701098203659058,-2.745410919189453
1776223441986666500,17.69066650390625,-1.2093244791030884,-1.3944140672683716,-2.7552242279052734
1776223442006516500,17.7105166015625,-1.0334234237670898,-1.3269929885864258,-2.7062954902648926
1776223442026366500,17.730366455078126,-0.9199707508087158,-1.2680968046188354,-2.5738003253936768
1776223442046216400,17.750216552734376,-0.8476191163063049,-1.258743166923523,-2.3135318756103516
1776223442066066400,17.77006640625,-0.8258945345878601,-1.3012771606445312,-1.8966312408447266
1776223442085916400,17.78991650390625,-0.826399564743042,-1.3164881467819214,-1.4770537614822388
1776223442105766700,17.8097666015625,-0.8097807168960571,-1.3881727457046509,-1.2017003297805786
1776223442125618000,17.829617919921876,-0.7489126324653625,-1.5245457887649536,-1.046040415763855
1776223442145468000,17.849468017578126,-0.6242378354072571,-1.5968379974365234,-1.004695177078247
1776223442165318000,17.86931787109375,-0.4847981333732605,-1.5175045728683472,-1.1376579999923706
1776223442185168100,17.889168212890624,-0.4198296070098877,-1.3005547523498535,-1.3464144468307495
1776223442205017900,17.909017822265625,-0.39001786708831787,-0.9278820157051086,-1.4223263263702393
1776223442224867800,17.928867919921874,-0.302785187959671,-0.5422414541244507,-1.2791439294815063
1776223442244717800,17.9487177734375,-0.13150452077388763,-0.1788552701473236,-1.006227970123291
1776223442264568800,17.96856884765625,0.08811040967702866,0.03527486324310303,-0.6705983877182007
1776223442284418800,17.988418701171874,0.3156038224697113,0.03924925625324249,-0.21857836842536926
1776223442304268800,18.008268798828126,0.5858147144317627,-0.14713947474956512,0.36679598689079285
1776223442324118800,18.028118896484376,0.9432363510131836,-0.29733332991600037,1.011521339416504
1776223442343968800,18.04796875,1.3606888055801392,-0.2515508830547333,1.4578431844711304
1776223442363819000,18.067819091796874,1.7033052444458008,0.01709698513150215,1.704974889755249
1776223442383669800,18.087669677734375,1.9297986030578613,0.4108327031135559,1.8138034343719482
1776223442403519700,18.107519775390625,1.959397315979004,0.832572877407074,1.8260139226913452
1776223442423370000,18.127369873046874,1.870115876197815,1.1423701047897339,1.8330978155136108
1776223442443220000,18.147219970703127,1.7720011472702026,1.3007049560546875,1.9051152467727661
1776223442463070000,18.167070068359376,1.7668858766555786,1.3438867330551147,2.0391790866851807
1776223442482920000,18.186919921875,1.8252354860305786,1.2789530754089355,2.135974168777466
1776223442502770000,18.20677001953125,1.9054826498031616,1.1272720098495483,2.1689579486846924
1776223442522621000,18.226620849609375,1.9944976568222046,0.9276711940765381,2.1318461894989014
1776223442542471000,18.246470947265625,2.0801217555999756,0.7135189175605774,2.051112174987793
1776223442562321000,18.26632080078125,2.1562864780426025,0.5204281210899353,1.9590438604354858
1776223442582171000,18.2861708984375,2.2047579288482666,0.361416220664978,1.8829182386398315
1776223442602020900,18.306020751953124,2.2169289588928223,0.23079805076122284,1.830611228942871
1776223442621871000,18.32587109375,2.1583547592163086,0.16058148443698883,1.734135627746582
1776223442641721000,18.34572119140625,2.03086256980896,0.12354040890932083,1.5827836990356445
1776223442661571000,18.365571044921875,1.8244972229003906,0.07349041849374771,1.4130635261535645
1776223442681422000,18.385422119140625,1.5662904977798462,0.02787369303405285,1.2746505737304688
1776223442701272000,18.40527197265625,1.33637273311615,-0.0015713984612375498,1.1654140949249268
1776223442721122000,18.4251220703125,1.1387901306152344,-0.025978470221161842,1.0493799448013306
1776223442740971800,18.4449716796875,0.9216461777687073,-0.0678984522819519,0.8956591486930847
1776223442760821800,18.46482177734375,0.653041422367096,-0.14920125901699066,0.6904522776603699
1776223442780671700,18.484671630859374,0.27578970789909363,-0.29486989974975586,0.4954603612422943
1776223442800521700,18.504521728515623,-0.16599009931087494,-0.4657284915447235,0.2900921106338501
1776223442820372700,18.524372802734376,-0.6239290833473206,-0.618495523929596,0.054069019854068756
1776223442840222700,18.54422265625,-1.0560396909713745,-0.6264646053314209,-0.1973288208246231
1776223442860073000,18.564072998046875,-1.511052131652832,-0.543773353099823,-0.45206812024116516
1776223442879923000,18.5839228515625,-1.9989392757415771,-0.3688961863517761,-0.7189950942993164
1776223442899773000,18.60377294921875,-2.349475383758545,-0.12217766046524048,-0.9087456464767456
1776223442919623000,18.623622802734374,-2.463365316390991,0.12892456352710724,-1.0224312543869019
1776223442939473000,18.643472900390623,-2.321321725845337,0.31487783789634705,-1.152624487876892
1776223442959324000,18.663323974609376,-2.051330804824829,0.3594485819339752,-1.360722541809082
1776223442979174000,18.683173828125,-1.7675808668136597,0.2297934591770172,-1.698954701423645
1776223442999023900,18.70302392578125,-1.58560049533844,-0.1136232540011406,-2.1932244300842285
1776223443018873900,18.722873779296876,-1.5370742082595825,-0.6415783762931824,-2.755277633666992
1776223443038723800,18.742723876953125,-1.5692329406738281,-1.2345484495162964,-3.20949649810791
1776223443058574000,18.762573974609374,-1.6619387865066528,-1.7941393852233887,-3.4017765522003174
1776223443078424000,18.782424072265623,-1.7412742376327515,-2.225226402282715,-3.3751518726348877
1776223443098274000,18.802274169921876,-1.724286437034607,-2.460798978805542,-3.1952226161956787
1776223443118125000,18.822125,-1.6212942600250244,-2.5118069648742676,-2.9827921390533447
1776223443137975000,18.84197509765625,-1.5468239784240723,-2.369030475616455,-2.7711565494537354
1776223443157825000,18.861824951171876,-1.5281040668487549,-2.0613927841186523,-2.5784988403320312
1776223443177675000,18.881675048828125,-1.5773147344589233,-1.624733805656433,-2.391157627105713
1776223443197525000,18.90152490234375,-1.6487196683883667,-1.1246353387832642,-2.175230026245117
1776223443217375000,18.921375,-1.703669786453247,-0.6464894413948059,-1.9214755296707153
1776223443237225000,18.941224853515624,-1.696114182472229,-0.3219010531902313,-1.7055282592773438
1776223443257076000,18.961075927734374,-1.617746353149414,-0.18260644376277924,-1.6210561990737915
1776223443276926000,18.980926025390627,-1.4707143306732178,-0.2408633679151535,-1.5405757427215576
1776223443296776000,19.00077587890625,-1.194915771484375,-0.45633330941200256,-1.380824089050293
1776223443316626200,19.020626220703125,-0.7533442974090576,-0.7951432466506958,-1.1469985246658325
1776223443336476200,19.04047607421875,-0.2746069133281708,-1.1329624652862549,-0.9805082678794861
1776223443356326100,19.060326171875,0.044324446469545364,-1.3053326606750488,-0.8913840651512146
1776223443376176000,19.080176025390625,0.14841648936271667,-1.3151147365570068,-0.7883753776550293
1776223443396026000,19.100026123046874,0.16434550285339355,-1.1414451599121094,-0.6535705924034119
1776223443415877000,19.119877197265627,0.21272900700569153,-0.8157267570495605,-0.4500581622123718
1776223443435727000,19.13972705078125,0.29622751474380493,-0.4485328197479248,-0.09484931826591492
1776223443455577000,19.1595771484375,0.3632432818412781,-0.11109518259763718,0.3786444365978241
1776223443475427000,19.179427001953126,0.47852492332458496,0.1284734457731247,0.9313881397247314
1776223443495276800,19.19927685546875,0.7614147663116455,0.3874604403972626,1.394428014755249
1776223443515127000,19.219126953125,1.1280964612960815,0.6573184728622437,1.6628830432891846
1776223443534977000,19.23897705078125,1.43483304977417,0.9250157475471497,1.7856247425079346
1776223443554827000,19.258826904296875,1.64444899559021,1.1791763305664062,1.8578530550003052
1776223443574678000,19.278677978515624,1.7217791080474854,1.4104524850845337,1.9474799633026123
1776223443594528000,19.298528076171873,1.7492644786834717,1.6160433292388916,2.1374738216400146
1776223443614378000,19.3183779296875,1.7810468673706055,1.773590326309204,2.4238743782043457
1776223443634228000,19.33822802734375,1.888563632965088,1.8817178010940552,2.761080503463745
1776223443654078000,19.358077880859376,2.1067991256713867,1.9429991245269775,3.068229913711548
1776223443673928000,19.377927978515626,2.4028124809265137,1.961539387702942,3.2379465103149414
1776223443693778000,19.39777783203125,2.704878807067871,1.9364490509033203,3.3282155990600586
1776223443713628200,19.417628173828124,2.985098361968994,1.8787298202514648,3.402881383895874
1776223443733478100,19.43747802734375,3.2373502254486084,1.8204283714294434,3.263648748397827
1776223443753329200,19.4573291015625,3.366220474243164,1.666683554649353,2.793135643005371
1776223443773179100,19.47717919921875,3.318917751312256,1.3733456134796143,2.1022746562957764
1776223443793029000,19.497029052734376,3.11616849899292,0.9540591835975647,1.3665412664413452
1776223443812879000,19.516879150390626,2.8059303760528564,0.4753212332725525,0.7537711262702942
1776223443832729000,19.53672900390625,2.4722204208374023,0.036304231733083725,0.35633742809295654
1776223443852579000,19.5565791015625,2.1758391857147217,-0.2814561724662781,0.19858543574810028
1776223443872429000,19.576428955078125,1.9465521574020386,-0.4761780798435211,0.16366460919380188
1776223443892279000,19.596279052734374,1.7061980962753296,-0.6108681559562683,0.09110580384731293
1776223443912130000,19.616130126953124,1.3907040357589722,-0.7173040509223938,-0.025244034826755524
1776223443931980000,19.63597998046875,0.971432089805603,-0.8065756559371948,-0.20695780217647552
1776223443951830300,19.655830322265626,0.4625144302845001,-0.8814135789871216,-0.41350728273391724
1776223443971680300,19.67568017578125,-0.0658860057592392,-0.9020649194717407,-0.6338247060775757
1776223443991530000,19.695530029296876,-0.6393987536430359,-0.890699565410614,-0.8860350847244263
1776223444011380000,19.7153798828125,-1.2858108282089233,-0.8175235390663147,-1.1687273979187012
1776223444031230000,19.73522998046875,-1.9772738218307495,-0.6389375925064087,-1.4055862426757812
1776223444051080000,19.755079833984375,-2.550124168395996,-0.3614099323749542,-1.4879121780395508
1776223444070931000,19.774930908203125,-2.894011974334717,-0.019204188138246536,-1.3772940635681152
1776223444090781000,19.794781005859374,-2.9704341888427734,0.2866032123565674,-1.2232258319854736
1776223444110631000,19.814630859375,-2.8938517570495605,0.43207332491874695,-1.1327837705612183
1776223444130481200,19.834481201171876,-2.755507707595825,0.4495511054992676,-1.2133439779281616
1776223444150331100,19.8543310546875,-2.666301965713501,0.31555670499801636,-1.4765903949737549
1776223444170181400,19.874181396484374,-2.639594316482544,0.019891103729605675,-1.9139976501464844
1776223444190031400,19.89403125,-2.6357784271240234,-0.4234347641468048,-2.4383373260498047
1776223444209881000,19.913881103515624,-2.6405932903289795,-0.9211130738258362,-2.9161767959594727
1776223444229731000,19.93373095703125,-2.6318552494049072,-1.380480170249939,-3.2064530849456787
1776223444249581000,19.9535810546875,-2.5873374938964844,-1.7664893865585327,-3.3632547855377197
1776223444269432000,19.97343212890625,-2.5008137226104736,-2.045600652694702,-3.4337217807769775
1776223444289282000,19.993281982421873,-2.4237232208251953,-2.157712936401367,-3.462116003036499
1776223444309132000,20.013132080078126,-2.381080150604248,-2.1017324924468994,-3.4633748531341553
1776223444328982000,20.03298193359375,-2.3278937339782715,-1.8968019485473633,-3.454132080078125
1776223444348832300,20.052832275390625,-2.2413196563720703,-1.5980784893035889,-3.37339448928833
1776223444368682200,20.07268212890625,-2.0768024921417236,-1.339485764503479,-3.1020302772521973
1776223444388532200,20.0925322265625,-1.7481878995895386,-1.2549412250518799,-2.640639305114746
1776223444408382200,20.11238232421875,-1.2486480474472046,-1.3768056631088257,-2.247447967529297
1776223444428233200,20.132233154296873,-0.7589468955993652,-1.6539798974990845,-2.0319671630859375
1776223444448083200,20.152083251953126,-0.4572514593601227,-1.997233271598816,-1.8928309679031372
1776223444467933200,20.17193310546875,-0.3270375430583954,-2.2665085792541504,-1.805862307548523
1776223444487783200,20.191783203125,-0.29781374335289,-2.3679730892181396,-1.7690461874008179
1776223444507633200,20.211633056640625,-0.310373991727829,-2.226072072982788,-1.6625769138336182
1776223444527483100,20.231483154296875,-0.27799302339553833,-1.793558120727539,-1.3960500955581665
1776223444547333000,20.2513330078125,-0.1700398325920105,-1.1423540115356445,-0.987104058265686
1776223444567183400,20.271183349609377,-0.05117971450090408,-0.4230886697769165,-0.43038877844810486
1776223444587033300,20.291033447265626,0.10783550143241882,0.19898658990859985,0.20874379575252533
1776223444606884400,20.31088427734375,0.34074991941452026,0.4746359586715698,0.9042812585830688
1776223444626734300,20.330734375,0.696060836315155,0.5299578905105591,1.602651596069336
1776223444646584300,20.350584228515626,1.129805564880371,0.5550383925437927,2.2302680015563965
1776223444666434300,20.370434326171875,1.5345627069473267,0.6939216256141663,2.7504982948303223
1776223444686284000,20.390283935546876,1.8724029064178467,0.9434383511543274,3.1659350395202637
1776223444706134000,20.410134033203125,2.105102300643921,1.2478026151657104,3.3982462882995605
1776223444725984000,20.42998388671875,2.2225873470306396,1.5444790124893188,3.44631290435791
1776223444745834200,20.449834228515623,2.226262092590332,1.7602757215499878,3.3557560443878174
1776223444765684200,20.469684326171876,2.1338396072387695,1.8843302726745605,3.23799991607666
1776223444785534200,20.4895341796875,2.088156223297119,1.9323537349700928,3.1863465309143066
1776223444805385200,20.50938525390625,2.2394325733184814,1.9026817083358765,3.177828311920166
1776223444825235200,20.529235107421876,2.5261852741241455,1.812469720840454,3.1171977519989014
1776223444845085200,20.549085205078125,2.791289806365967,1.6630064249038696,2.9271578788757324
1776223444864935200,20.56893505859375,2.96962308883667,1.4487682580947876,2.6542162895202637
1776223444884785200,20.58878515625,3.0046701431274414,1.174836277961731,2.3964548110961914
1776223444904635100,20.60863525390625,2.875493288040161,0.8674360513687134,2.116879940032959
1776223444924485000,20.628485107421874,2.6280808448791504,0.5751446485519409,1.8050509691238403
1776223444944335000,20.648335205078126,2.3226613998413086,0.2918417453765869,1.449065089225769
1776223444964185300,20.668185302734376,2.0146076679229736,0.0658271536231041,1.0767258405685425
1776223444984036000,20.6880361328125,1.7519112825393677,-0.09488432109355927,0.7657632827758789
1776223445003886300,20.70788623046875,1.548292875289917,-0.20342016220092773,0.5807089805603027
1776223445023736300,20.727736328125,1.3725007772445679,-0.2850058376789093,0.47893330454826355
1776223445043586300,20.74758642578125,1.150883436203003,-0.35988226532936096,0.3745252192020416
1776223445063436300,20.767436279296874,0.8585476279258728,-0.4305908679962158,0.22229506075382233
1776223445083286300,20.787286376953126,0.5129914283752441,-0.5473896265029907,-0.008912695571780205
1776223445103136000,20.807135986328124,0.10916692018508911,-0.6744022965431213,-0.26416856050491333
1776223445122985700,20.82698583984375,-0.33453169465065,-0.7782360315322876,-0.5129778385162354
1776223445142835700,20.846835693359374,-0.8198623657226562,-0.826006293296814,-0.7999449372291565
1776223445162686500,20.8666865234375,-1.3855605125427246,-0.7655386328697205,-1.1376606225967407
1776223445182536700,20.88653662109375,-1.9541548490524292,-0.6035032272338867,-1.450687050819397
1776223445202386700,20.90638671875,-2.3734285831451416,-0.4187968373298645,-1.5725778341293335
1776223445222236700,20.926236572265626,-2.579763174057007,-0.3155480921268463,-1.584433674812317
1776223445242086700,20.946086669921876,-2.5638444423675537,-0.2973288893699646,-1.5045132637023926
1776223445261936600,20.9659365234375,-2.386890411376953,-0.36486345529556274,-1.366005778312683
1776223445281786400,20.985786376953126,-2.116130828857422,-0.439914733171463,-1.3028655052185059
1776223445301636400,21.00563623046875,-1.871964931488037,-0.5563538670539856,-1.44841468334198
1776223445321486600,21.025486572265624,-1.8281641006469727,-0.7078313827514648,-1.8267529010772705
1776223445341336600,21.045336669921873,-1.999119758605957,-0.9153769016265869,-2.27078914642334
1776223445361187600,21.0651875,-2.319047212600708,-1.0938671827316284,-2.623012065887451
1776223445381037600,21.08503759765625,-2.553873300552368,-1.1793450117111206,-2.8011794090270996
1776223445400887600,21.104887451171876,-2.6394710540771484,-1.1583009958267212,-2.840977668762207
1776223445420737500,21.124737548828126,-2.617877960205078,-1.0806411504745483,-2.743372917175293
1776223445440587500,21.14458740234375,-2.556830644607544,-0.9606544971466064,-2.512268543243408
1776223445460437500,21.1644375,-2.4606831073760986,-0.7894699573516846,-2.3328659534454346
1776223445480287500,21.18428759765625,-2.373995780944824,-0.5726520419120789,-2.3055293560028076
1776223445500137500,21.204137451171874,-2.3424031734466553,-0.3837134838104248,-2.2106504440307617
1776223445519987500,21.223987548828124,-2.263857841491699,-0.2748894989490509,-1.9890451431274414
1776223445539837700,21.243837646484376,-2.052459716796875,-0.3644828200340271,-1.7181819677352905
1776223445559688400,21.2636884765625,-1.6961822509765625,-0.5254995822906494,-1.4485650062561035
1776223445579538700,21.28353857421875,-1.249198317527771,-0.7535543441772461,-1.0964932441711426
1776223445599388700,21.303388671875,-0.8065780401229858,-0.9685511589050293,-0.7071542739868164
1776223445619238700,21.32323876953125,-0.4837677478790283,-1.0321558713912964,-0.44158756732940674
1776223445639088600,21.343088623046874,-0.2871818542480469,-0.920985758304596,-0.32616785168647766
1776223445658938600,21.362938720703124,-0.14928258955478668,-0.6095351576805115,-0.20946502685546875
1776223445678788600,21.38278857421875,0.03537870943546295,-0.12489552050828934,-0.01940150558948517
1776223445698638300,21.402638427734374,0.2879596948623657,0.3954939544200897,0.24844896793365479
1776223445718488600,21.422488525390627,0.5690567493438721,0.826893150806427,0.5593818426132202
1776223445738338600,21.442338623046876,0.8522154092788696,1.0245323181152344,0.871845006942749
1776223445758189300,21.462189208984373,1.1258004903793335,1.102042317390442,1.2384302616119385
1776223445778039600,21.48203955078125,1.4376270771026611,1.2137377262115479,1.6197872161865234
1776223445797889500,21.5018896484375,1.768560528755188,1.401802659034729,1.8993693590164185
1776223445817739500,21.521739501953125,2.0629494190216064,1.6599847078323364,2.047912120819092
1776223445837589500,21.541589599609374,2.29634952545166,1.9379876852035522,2.1005125045776367
1776223445857439500,21.561439453125,2.4692916870117188,2.1266322135925293,2.10675048828125
1776223445877289500,21.58128955078125,2.574843168258667,2.227506637573242,2.15413498878479
1776223445897139500,21.601139404296877,2.6683757305145264,2.2437968254089355,2.2624316215515137
1776223445916989400,21.620989501953126,2.7974181175231934,2.202833414077759,2.392092704772949
1776223445936839700,21.640839599609375,3.003283739089966,2.0661356449127197,2.466798782348633
1776223445956689700,21.660689697265624,3.2487263679504395,1.8519636392593384,2.433419942855835
1776223445976540700,21.680540771484374,3.480769634246826,1.5807865858078003,2.297783374786377
1776223445996390700,21.700390625,3.653799533843994,1.2864794731140137,2.0801925659179688
1776223446016240600,21.72024072265625,3.724144220352173,0.9614734053611755,1.8126603364944458
1776223446036090600,21.740090576171873,3.6800644397735596,0.65705806016922,1.529312014579773
1776223446055940600,21.759940673828126,3.5487446784973145,0.34086841344833374,1.248360276222229
1776223446075790600,21.77979052734375,3.37770938873291,0.04985524341464043,0.9965607523918152
1776223446095640600,21.799640625,3.163841724395752,-0.19061890244483948,0.8125473260879517
1776223446115490600,21.819490478515625,2.920743227005005,-0.3408321440219879,0.7249621748924255
1776223446135340800,21.8393408203125,2.6842472553253174,-0.41862180829048157,0.7242253422737122
1776223446155190800,21.859190673828124,2.451561689376831,-0.49477362632751465,0.7513362169265747
1776223446175041800,21.879041748046873,2.173201322555542,-0.5939540266990662,0.7161224484443665
1776223446194891800,21.898891845703126,1.764082431793213,-0.7283656001091003,0.581015944480896
1776223446214741800,21.91874169921875,1.203285813331604,-0.8472781181335449,0.32312408089637756
1776223446234591700,21.938591796875,0.5190154314041138,-0.9579303860664368,0.026702692732214928
1776223446254441700,21.958441650390625,-0.13520778715610504,-1.0311211347579956,-0.26733821630477905
1776223446274291700,21.978291748046875,-0.7087693810462952,-1.0174229145050049,-0.5749602317810059
1776223446294141700,21.9981416015625,-1.2879643440246582,-0.8897664546966553,-0.911007285118103
1776223446313991700,22.01799169921875,-1.8999717235565186,-0.6900771260261536,-1.1740436553955078
1776223446333841700,22.037841552734374,-2.4072320461273193,-0.44946765899658203,-1.2384270429611206
1776223446353691600,22.057691650390623,-2.664132595062256,-0.1720203161239624,-1.0755231380462646
1776223446373543000,22.07754296875,-2.6349737644195557,0.059905506670475006,-0.929433286190033
1776223446393392600,22.097392578125,-2.564314842224121,0.20077623426914215,-1.0036057233810425
1776223446413242600,22.11724267578125,-2.6185007095336914,0.18735361099243164,-1.3999459743499756
1776223446433092600,22.137092529296876,-2.859483242034912,0.04355722665786743,-2.035766839981079
1776223446452942600,22.156942626953125,-3.2142720222473145,-0.1608966588973999,-2.7523374557495117
1776223446472792600,22.17679248046875,-3.521488904953003,-0.28252992033958435,-3.2921793460845947
1776223446492642600,22.196642578125,-3.7626051902770996,-0.3705379068851471,-3.533684015274048
1776223446512492500,22.216492431640624,-3.855976104736328,-0.44535714387893677,-3.499596357345581
1776223446532342800,22.2363427734375,-3.7549355030059814,-0.4998761713504791,-3.3329877853393555
1776223446552192800,22.25619287109375,-3.5496182441711426,-0.5736026167869568,-3.166227102279663
1776223446572042800,22.276042724609376,-3.3418636322021484,-0.6272756457328796,-3.0330774784088135
1776223446591893800,22.295893798828125,-3.1089260578155518,-0.6741747260093689,-2.8928306102752686
1776223446611743700,22.31574365234375,-2.7777013778686523,-0.7978776097297668,-2.6554360389709473
1776223446631593700,22.33559375,-2.261002540588379,-1.063480019569397,-2.2754502296447754
1776223446651443700,22.355443603515624,-1.6377620697021484,-1.462199330329895,-1.8289486169815063
1776223446671293700,22.375293701171874,-1.0961241722106934,-1.8608663082122803,-1.483893632888794
1776223446691143700,22.395143798828126,-0.7743011116981506,-2.1116771697998047,-1.3505305051803589
1776223446710993700,22.41499365234375,-0.6051387190818787,-2.1834964752197266,-1.3064463138580322
1776223446730844000,22.434843994140625,-0.5177426338195801,-2.0089921951293945,-1.3027012348175049
1776223446750693600,22.454693603515626,-0.4762258231639862,-1.566225528717041,-1.3000643253326416
1776223446770543600,22.474543701171875,-0.4364589750766754,-0.9427381157875061,-1.251752257347107
1776223446790393600,22.4943935546875,-0.35973504185676575,-0.27488192915916443,-1.0823668241500854
1776223446810244600,22.51424462890625,-0.24982762336730957,0.34759387373924255,-0.788490891456604
1776223446830094600,22.534094482421875,-0.07868192344903946,0.7973990440368652,-0.40746739506721497
1776223446849944600,22.553944580078124,0.20903006196022034,0.8911186456680298,0.033748168498277664
1776223446869794600,22.573794677734377,0.6233276128768921,0.6380912065505981,0.5680922865867615
1776223446889644500,22.59364453125,1.0343648195266724,0.19750440120697021,1.1655281782150269
1776223446909494500,22.61349462890625,1.3971318006515503,-0.0794421136379242,1.7038884162902832
1776223446929344800,22.6333447265625,1.8142013549804688,-0.08077933639287949,2.0766289234161377
1776223446949194800,22.65319482421875,2.158270835876465,0.1426042765378952,2.3598194122314453
1776223446969044700,22.673044677734374,2.367677927017212,0.49757564067840576,2.520491361618042
1776223446988894700,22.692894775390624,2.365624189376831,0.8386616706848145,2.5224127769470215
1776223447008744700,22.71274462890625,2.2260255813598633,1.0942968130111694,2.47867488861084
1776223447028594700,22.7325947265625,2.1032419204711914,1.2294842004776,2.44462251663208
1776223447048445700,22.75244580078125,2.0781919956207275,1.2379813194274902,2.4799468517303467
1776223447068295700,22.772295654296876,2.153395414352417,1.1811933517456055,2.559236764907837
1776223447088145700,22.792145751953125,2.295980930328369,1.0868425369262695,2.601736307144165
1776223447107995600,22.81199560546875,2.4202864170074463,0.9660650491714478,2.558889389038086
1776223447127846000,22.831845947265624,2.506354331970215,0.8372501730918884,2.465150833129883
1776223447147695900,22.85169580078125,2.557159185409546,0.7370932102203369,2.4061121940612793
1776223447167545900,22.8715458984375,2.609713554382324,0.6620469093322754,2.3778703212738037
1776223447187395800,22.891395751953127,2.6667253971099854,0.5833868384361267,2.3944215774536133
1776223447207245800,22.911245849609376,2.7285616397857666,0.4944152235984802,2.385176181793213
1776223447227095600,22.931095458984377,2.765014410018921,0.4199240803718567,2.2498867511749268
1776223447246945500,22.950945556640626,2.6973378658294678,0.31336522102355957,2.0562186241149902
1776223447266796800,22.970796875,2.468912363052368,0.17879481613636017,2.0161802768707275
1776223447286646500,22.990646484375,2.102370500564575,0.13925153017044067,1.975822925567627
1776223447306496500,23.01049658203125,1.748388648033142,0.24819566309452057,1.5689330101013184
1776223447326346800,23.0303466796875,1.4344292879104614,0.30138322710990906,0.9394142031669617
1776223447346196700,23.05019677734375,1.1070547103881836,0.26456135511398315,0.3598731756210327
1776223447366046700,23.070046630859373,0.7654740214347839,0.1436856985092163,-0.02259051240980625
1776223447385896700,23.089896728515626,0.3732765316963196,-0.06250590085983276,-0.2505919635295868
1776223447405746700,23.10974658203125,0.018533680588006973,-0.2734697759151459,-0.43467625975608826
1776223447425596700,23.1295966796875,-0.28628140687942505,-0.4349490702152252,-0.6855549216270447
1776223447445446700,23.14944677734375,-0.7169729471206665,-0.5271009206771851,-1.0195188522338867
1776223447465296600,23.169296630859375,-1.2160358428955078,-0.618984580039978,-1.2748044729232788
1776223447485147000,23.18914697265625,-1.6704097986221313,-0.6497822999954224,-1.3160942792892456
1776223447504997600,23.20899755859375,-1.9519520998001099,-0.6101527214050293,-1.1603171825408936
1776223447524847900,23.228847900390626,-2.102844476699829,-0.5223623514175415,-0.9578356146812439
1776223447544697900,23.24869775390625,-2.228595018386841,-0.35746511816978455,-0.8752851486206055
1776223447564547800,23.2685478515625,-2.3970611095428467,-0.12618491053581238,-0.9761557579040527
1776223447584397800,23.288397705078125,-2.5872864723205566,0.0525783970952034,-1.2252150774002075
1776223447604247800,23.308247802734375,-2.7947330474853516,0.06479654461145401,-1.6037744283676147
1776223447624097800,23.328097900390624,-2.961300849914551,-0.03603449463844299,-1.9807891845703125
1776223447643947500,23.347947509765625,-3.153684616088867,-0.2363446205854416,-2.252676248550415
1776223447663797500,23.367797607421874,-3.3169021606445312,-0.46705472469329834,-2.3638367652893066
1776223447683647700,23.387647705078123,-3.369138240814209,-0.6463571190834045,-2.273252010345459
1776223447703497700,23.407497802734376,-3.3278069496154785,-0.7984634637832642,-2.099015235900879
1776223447723347700,23.42734765625,-3.2310144901275635,-0.9002047181129456,-1.9666264057159424
1776223447743198700,23.44719873046875,-3.1421303749084473,-0.9138504862785339,-1.9402683973312378
1776223447763048700,23.467048583984376,-3.0728697776794434,-0.842138946056366,-1.9789565801620483
1776223447782898700,23.486898681640625,-3.0121965408325195,-0.7539745569229126,-1.9743685722351074
1776223447802748700,23.506748779296874,-2.885617256164551,-0.6761575937271118,-1.874650001525879
1776223447822598700,23.5265986328125,-2.6347873210906982,-0.7067375183105469,-1.6480352878570557
1776223447842448600,23.54644873046875,-2.2380940914154053,-0.9352774024009705,-1.278727650642395
1776223447862298600,23.566298583984373,-1.793035626411438,-1.4017174243927002,-0.9513252973556519
1776223447882148900,23.58614892578125,-1.4033304452896118,-1.8185405731201172,-0.9079611301422119
1776223447901998800,23.605998779296876,-1.1762398481369019,-2.117619514465332,-1.0801233053207397
1776223447921848800,23.625848876953125,-1.0895507335662842,-2.245549440383911,-1.3482338190078735
1776223447941698800,23.64569873046875,-1.0320013761520386,-2.161024332046509,-1.5877436399459839
1776223447961548800,23.665548828125,-0.8942241072654724,-1.805727481842041,-1.6619701385498047
1776223447981399800,23.68539990234375,-0.6589223742485046,-1.238473892211914,-1.5263867378234863
1776223448001249800,23.705249755859374,-0.3677530586719513,-0.5289376974105835,-1.1679716110229492
1776223448021099800,23.725099853515626,0.012770653702318668,0.1567533016204834,-0.5821319818496704
1776223448040949800,23.74494970703125,0.44322478771209717,0.6690286993980408,0.20060427486896515
1776223448060799500,23.764799560546876,0.8985788822174072,0.9699534773826599,1.0701513290405273
1776223448080649700,23.784649658203126,1.4069446325302124,1.2273441553115845,1.7429120540618896
1776223448100499700,23.804499755859375,1.8607375621795654,1.4765989780426025,2.118349075317383
1776223448120349400,23.824349365234376,2.255927085876465,1.7389566898345947,2.3061866760253906
1776223448140199400,23.844199462890625,2.5008583068847656,1.9600099325180054,2.3713133335113525
1776223448160049400,23.86404931640625,2.604156494140625,2.104168176651001,2.3686022758483887
1776223448179899400,23.8838994140625,2.672550916671753,2.160337448120117,2.3589165210723877
1776223448199749400,23.903749267578124,2.8157525062561035,2.165066719055176,2.3672430515289307
1776223448219600400,23.923600341796874,3.084564447402954,2.1280272006988525,2.3545308113098145
1776223448239450400,23.943450439453127,3.4171934127807617,1.9928407669067383,2.3509695529937744
1776223448259300400,23.96330029296875,3.7321698665618896,1.770984172821045,2.2852783203125
1776223448279150600,23.983150634765625,3.9805819988250732,1.467038631439209,2.133240222930908
1776223448299000600,24.00300048828125,4.154021263122559,1.1263902187347412,1.888571858406067
1776223448318850600,24.0228505859375,4.234748363494873,0.7712380886077881,1.6134310960769653
1776223448338700500,24.042700439453125,4.178806781768799,0.41173169016838074,1.4000043869018555
1776223448358550300,24.06255029296875,4.010035991668701,0.11292339116334915,1.201656460762024
1776223448378400300,24.082400146484375,3.8021273612976074,-0.10734796524047852,0.9861146211624146
1776223448398250200,24.102250244140624,3.5671133995056152,-0.23402553796768188,0.7692100405693054
1776223448418100500,24.1221005859375,3.2673635482788086,-0.3138086199760437,0.6153413653373718
1776223448437950500,24.141950439453126,2.924065589904785,-0.3533405065536499,0.5834534764289856
1776223448457800400,24.161800537109375,2.5795764923095703,-0.34652212262153625,0.5855324268341064
1776223448477651500,24.1816513671875,2.1977248191833496,-0.3194292485713959,0.5435535311698914
1776223448497501400,24.20150146484375,1.7408674955368042,-0.28440552949905396,0.4195871949195862
1776223448517351400,24.221351318359375,1.1808511018753052,-0.3038891553878784,0.2671011984348297
1776223448537201400,24.241201416015624,0.5284308791160583,-0.3534952998161316,0.10348611325025558
1776223448557051400,24.261051513671877,-0.0941428542137146,-0.4153418242931366,-0.044674523174762726
1776223448576901400,24.2809013671875,-0.6563864946365356,-0.43658095598220825,-0.1923324018716812
1776223448596751400,24.30075146484375,-1.1445131301879883,-0.32523882389068604,-0.40402135252952576
1776223448616601300,24.320601318359376,-1.6515096426010132,-0.18042972683906555,-0.6482008695602417
1776223448636451600,24.34045166015625,-2.2576444149017334,-0.0438358299434185,-0.7679843902587891
1776223448656301600,24.360301513671875,-2.746073007583618,0.05449347570538521,-0.6494163870811462
1776223448676151600,24.380151611328124,-3.0371012687683105,0.12311620265245438,-0.3926537036895752
1776223448696001500,24.40000146484375,-3.1416125297546387,0.16809646785259247,-0.16312037408351898
1776223448715851300,24.419851318359374,-3.1766676902770996,0.18750345706939697,-0.07353697717189789
1776223448735702500,24.43970263671875,-3.2692480087280273,0.2246796190738678,-0.17788274586200714
1776223448755552500,24.459552490234376,-3.4159095287323,0.11325082927942276,-0.5074670314788818
1776223448775402200,24.47940234375,-3.4889726638793945,-0.1802619993686676,-1.1211484670639038
1776223448795252200,24.499252197265626,-3.410479784011841,-0.6313983798027039,-1.9707297086715698
1776223448815102500,24.5191025390625,-3.266763210296631,-1.167777419090271,-2.8003127574920654
1776223448834952400,24.538952392578125,-3.0583114624023438,-1.701499104499817,-3.4229846000671387
1776223448854802400,24.558802490234374,-2.8385872840881348,-2.1459765434265137,-3.7839834690093994
1776223448874652400,24.57865234375,-2.7287118434906006,-2.4609835147857666,-3.912224531173706
1776223448894502400,24.59850244140625,-2.7286622524261475,-2.564889430999756,-3.9338228702545166
1776223448914352400,24.618352294921873,-2.6971447467803955,-2.431386947631836,-3.9951586723327637
1776223448934202400,24.638202392578126,-2.5641028881073,-2.133659839630127,-4.065209865570068
1776223448954052400,24.65805224609375,-2.431516647338867,-1.7819260358810425,-3.897120952606201
1776223448973902300,24.67790234375,-2.317713737487793,-1.4483627080917358,-3.4404678344726562
1776223448993753300,24.69775341796875,-2.1256277561187744,-1.1664226055145264,-2.9106805324554443
1776223449013603300,24.717603271484375,-1.8502486944198608,-0.920717716217041,-2.5016403198242188
1776223449033453600,24.73745361328125,-1.6009538173675537,-0.707619845867157,-2.208019733428955
1776223449053303600,24.757303466796873,-1.4277335405349731,-0.42863336205482483,-1.9615046977996826
1776223449073153500,24.777153564453126,-1.3086405992507935,-0.07148151844739914,-1.7327438592910767
1776223449093003500,24.79700341796875,-1.1463443040847778,0.35509538650512695,-1.6012465953826904
1776223449112853500,24.816853515625,-0.9221209287643433,0.6762768626213074,-1.3782196044921875
1776223449132703500,24.836703369140626,-0.5453419089317322,0.6843826770782471,-0.9500226378440857
1776223449152553500,24.856553466796875,-0.004209503531455994,0.35622069239616394,-0.3557746112346649
1776223449172403500,24.876403564453124,0.5798270106315613,-0.134952574968338,0.3590676784515381
