time,seconds_elapsed,z,y,x
1776223424367063600,0.0710634765625,-0.47528076171875,0.7307735085487366,0.49385204911231995
1776223424386914600,0.09091455078125,-0.6863266825675964,-0.058105114847421646,0.7442176938056946
1776223424406764500,0.1107646484375,-1.014051079750061,-0.838629424571991,0.9461175203323364
1776223424426615600,0.130615478515625,-1.1559245586395264,-0.7318212389945984,1.0009647607803345
1776223424446465500,0.150465576171875,-1.1101884841918945,-0.19786886870861053,1.038794755935669
1776223424466316500,0.170316650390625,-1.116424798965454,0.31947386264801025,0.9946123361587524
1776223424486166500,0.19016650390625,-1.5174369812011719,0.47984009981155396,0.9009838700294495
1776223424506017500,0.210017578125,-1.8116635084152222,0.7151412963867188,0.7985208630561829
1776223424525867500,0.229867431640625,-1.390581488609314,0.7595008015632629,0.6973106265068054
1776223424545718500,0.249718505859375,-0.22828643023967743,1.2348968982696533,0.5779962539672852
1776223424565568500,0.269568603515625,0.8321986794471741,1.8064475059509277,0.40809348225593567
1776223424585419800,0.289419677734375,1.1766284704208374,1.3349188566207886,0.2896358072757721
1776223424605269500,0.30926953125,0.8556845784187317,0.6063066720962524,0.07173117995262146
1776223424625120500,0.32912060546875,0.2260507047176361,0.575249969959259,-0.3168104290962219
1776223424644970800,0.348970703125,-0.5260616540908813,-0.24595783650875092,-0.4567747414112091
1776223424664821500,0.368821533203125,-1.0492879152297974,-0.5473459362983704,-0.555518627166748
1776223424684671700,0.388671630859375,-1.007129430770874,-0.14448820054531097,-0.740902841091156
1776223424704522500,0.4085224609375,-0.9532513618469238,0.22863690555095673,-0.7848008275032043
1776223424724372700,0.428372802734375,-0.7514857053756714,0.14137044548988342,-0.5580224990844727
1776223424744223500,0.448223388671875,-0.36073875427246094,0.19212523102760315,-0.26935476064682007
1776223424764073700,0.46807373046875,0.040290430188179016,0.5278171896934509,-0.42419788241386414
1776223424783923700,0.487923828125,0.2566789388656616,0.4396844208240509,-0.7817056775093079
1776223424803774700,0.507774658203125,0.1724223643541336,-0.08744622766971588,-0.9206880927085876
1776223424823624700,0.527624755859375,0.05362194776535034,-0.7646691799163818,-0.884580135345459
1776223424843475500,0.547475341796875,0.10507608205080032,-1.253987431526184,-0.7203975915908813
1776223424863325700,0.56732568359375,0.22080615162849426,-1.2485517263412476,-0.5785570740699768
1776223424883176400,0.587176513671875,0.3183803856372833,-0.8075119853019714,-0.46984419226646423
1776223424903026700,0.607026611328125,0.3778644800186157,-0.3544299900531769,-0.358460932970047
1776223424922877400,0.62687744140625,0.4381121098995209,0.048102013766765594,-0.2602960169315338
1776223424942727700,0.646727783203125,0.5272433161735535,-0.06434250622987747,-0.046897999942302704
1776223424962578400,0.666578369140625,0.6093397736549377,-0.3259735703468323,0.17570072412490845
1776223424982428700,0.6864287109375,0.6601161360740662,-0.46125921607017517,0.3492288291454315
1776223425002278700,0.706278564453125,0.677084743976593,-0.41977357864379883,0.38232606649398804
1776223425022129400,0.72612939453125,0.6445792317390442,-0.27735915780067444,0.3186379075050354
1776223425041979600,0.745979736328125,0.6174658536911011,-0.10798238962888718,0.2541811466217041
1776223425061830400,0.765830322265625,0.6318821310997009,0.06958121061325073,0.21369656920433044
1776223425081680600,0.7856806640625,0.6840246915817261,0.25414732098579407,0.1435537040233612
1776223425101531400,0.805531494140625,0.728355884552002,0.4418517053127289,0.055270180106163025
1776223425121381400,0.82538134765625,0.8116156458854675,0.6228758096694946,-0.04691877216100693
1776223425141232000,0.845232177734375,0.865598201751709,0.7080402374267578,-0.07772116363048553
1776223425161082400,0.865082275390625,0.8707056045532227,0.7918645739555359,-0.02936561219394207
1776223425180932400,0.884932373046875,0.9206947088241577,0.9344398379325867,-0.09227880090475082
1776223425200783400,0.904783447265625,1.0045994520187378,1.110584020614624,-0.3406659662723541
1776223425220633300,0.92463330078125,1.0564054250717163,1.2950958013534546,-0.7131154537200928
1776223425240484400,0.944484375,1.092378854751587,1.4680265188217163,-0.9883366227149963
1776223425260334300,0.964334228515625,1.1599498987197876,1.2964129447937012,-1.0528911352157593
1776223425280185300,0.984185302734375,1.2080063819885254,0.9460434913635254,-0.9771723747253418
1776223425300035300,1.004035400390625,0.922459065914154,0.9766360521316528,-0.8782814741134644
1776223425319886300,1.02388623046875,0.6752471327781677,1.0294603109359741,-0.7512993216514587
1776223425339736300,1.043736328125,0.7057179808616638,0.8886105418205261,-0.5440356135368347
1776223425359586300,1.06358642578125,0.595878541469574,0.921783447265625,-0.5061361789703369
1776223425379437600,1.0834375,0.47298166155815125,0.43038973212242126,-0.7064633965492249
1776223425399287300,1.103287353515625,0.12137516587972641,0.3679380714893341,-0.9256769418716431
1776223425419138300,1.12313818359375,-0.06621018052101135,0.20427510142326355,-0.9336299896240234
1776223425438988500,1.142988525390625,-0.1537935584783554,0.11112252622842789,-0.8775507211685181
1776223425458839300,1.16283935546875,-0.239768385887146,0.10223209857940674,-0.6829801797866821
1776223425478689500,1.182689453125,-0.3318687379360199,0.15527001023292542,-0.47993412613868713
1776223425498539500,1.20253955078125,-0.43820399045944214,0.036552153527736664,-0.12496670335531235
1776223425518390500,1.222390625,-0.633313000202179,-0.4554540812969208,0.33918285369873047
1776223425538240500,1.242240478515625,-0.8776178359985352,-0.8622492551803589,0.6457441449165344
1776223425558091500,1.262091552734375,-1.008368968963623,-0.995227575302124,0.7789631485939026
1776223425577941500,1.28194140625,-0.9981127977371216,-0.8533170223236084,0.8842642903327942
1776223425597792500,1.30179248046875,-0.969231367111206,-0.643543541431427,1.0645173788070679
1776223425617642500,1.321642578125,-0.9607974290847778,-0.6508973240852356,1.2654379606246948
1776223425637492500,1.341492431640625,-0.9866876006126404,-0.745976984500885,1.345517635345459
1776223425657343500,1.361343505859375,-0.9552944898605347,-0.9715776443481445,1.400421380996704
1776223425677193500,1.381193359375,-0.8591429591178894,-1.1817731857299805,1.459757685661316
1776223425697044500,1.40104443359375,-0.7740429639816284,-1.3686786890029907,1.5034780502319336
1776223425716894500,1.42089453125,-0.7038061022758484,-1.4633662700653076,1.4688392877578735
1776223425736745500,1.440745361328125,-0.6725112795829773,-1.3854999542236328,1.411864995956421
1776223425756595500,1.460595458984375,-0.6367546319961548,-1.1816221475601196,1.3879125118255615
1776223425776445400,1.480445556640625,-0.6030682921409607,-0.9602762460708618,1.4126272201538086
1776223425796296400,1.50029638671875,-0.5644695162773132,-0.6981292963027954,1.4804219007492065
1776223425816146400,1.520146484375,-0.5167051553726196,-0.3970400393009186,1.5948063135147095
1776223425835997400,1.53999755859375,-0.45757606625556946,-0.11800040304660797,1.7118674516677856
1776223425855847400,1.559847412109375,-0.511600136756897,0.20059515535831451,1.7632768154144287
1776223425875697400,1.579697509765625,-0.6263642907142639,0.5755501389503479,1.7059149742126465
1776223425895548400,1.59954833984375,-0.6700127124786377,0.9319071769714355,1.5239702463150024
1776223425915398400,1.6193984375,-0.8468764424324036,1.3628199100494385,1.2860798835754395
1776223425935249400,1.63924951171875,-1.0244344472885132,1.8516777753829956,1.07339608669281
1776223425955099400,1.659099365234375,-1.2803082466125488,2.2452030181884766,0.8096408843994141
1776223425974949400,1.678949462890625,-1.6250650882720947,2.5517425537109375,0.30419716238975525
1776223425994800400,1.69880029296875,-2.0027859210968018,2.8045740127563477,-0.23216558992862701
1776223426014650400,1.718650390625,-2.3155322074890137,3.0156681537628174,-0.6233200430870056
1776223426034501400,1.73850146484375,-2.6414191722869873,3.2480809688568115,-0.873073160648346
1776223426054351400,1.758351318359375,-3.1411948204040527,3.577514171600342,-1.140773057937622
1776223426074201300,1.778201416015625,-3.857410192489624,4.271203517913818,-1.0291026830673218
1776223426094053000,1.79805322265625,-4.494246006011963,4.745546340942383,-0.41005223989486694
1776223426113902800,1.81790283203125,-4.777493476867676,4.547096252441406,0.10374557226896286
1776223426133754000,1.837754150390625,-5.059272289276123,3.8665008544921875,0.2617594301700592
1776223426153604000,1.85760400390625,-5.396222114562988,3.1343326568603516,0.14808960258960724
1776223426173455000,1.877455078125,-5.560139179229736,2.508608818054199,-0.1452333629131317
1776223426193305000,1.89730517578125,-5.503690719604492,1.8507581949234009,-0.5849249958992004
1776223426213155000,1.917155029296875,-5.279547214508057,1.1278880834579468,-1.2125591039657593
1776223426233006000,1.937006103515625,-5.03976583480835,0.33332523703575134,-2.0242295265197754
1776223426252856000,1.95685595703125,-4.861633777618408,-0.37570837140083313,-2.7887372970581055
1776223426272707000,1.97670703125,-4.75739860534668,-0.8539705872535706,-3.242959499359131
1776223426292557000,1.99655712890625,-4.793587684631348,-1.0433098077774048,-3.3393714427948
1776223426312407000,2.016406982421875,-4.815566062927246,-1.0108251571655273,-3.1421241760253906
1776223426332258000,2.036258056640625,-4.5733113288879395,-0.8646743297576904,-2.8174333572387695
1776223426352108000,2.05610791015625,-4.121930122375488,-0.8526634573936462,-2.5362069606781006
1776223426371959000,2.075958984375,-3.4678144454956055,-1.126001000404358,-2.2850191593170166
1776223426391809000,2.09580908203125,-2.598522663116455,-1.5962319374084473,-1.9015058279037476
1776223426411659000,2.115658935546875,-1.7005162239074707,-2.1157352924346924,-1.4982144832611084
1776223426431510000,2.135510009765625,-1.1426454782485962,-2.501134157180786,-1.4285681247711182
1776223426451360000,2.155360107421875,-0.8595805168151855,-2.687199592590332,-1.6439319849014282
1776223426471210000,2.1752099609375,-0.6469686627388,-2.675845146179199,-1.8314851522445679
1776223426491061000,2.19506103515625,-0.3420124650001526,-2.4802324771881104,-1.7910429239273071
1776223426510911000,2.214910888671875,0.005553755909204483,-2.136136054992676,-1.6923747062683105
1776223426530762000,2.234761962890625,0.2653786838054657,-1.8003735542297363,-1.6088835000991821
1776223426550612000,2.254612060546875,0.387743204832077,-1.4615724086761475,-1.4060150384902954
1776223426570462000,2.2744619140625,0.5042911171913147,-1.0024305582046509,-1.007876992225647
1776223426590313000,2.29431298828125,0.7356841564178467,-0.3918958604335785,-0.5399495363235474
1776223426610163000,2.314162841796875,1.0414084196090698,0.1742202639579773,-0.013760819099843502
1776223426630014000,2.334013916015625,1.3616678714752197,0.48039618134498596,0.6672219634056091
1776223426649864000,2.353864013671875,1.6872068643569946,0.43129706382751465,1.4608596563339233
1776223426669714000,2.3737138671875,2.0084431171417236,0.22599558532238007,2.222926139831543
1776223426689565000,2.39356494140625,2.290316581726074,0.20296350121498108,2.7235593795776367
1776223426709415000,2.413414794921875,2.4368629455566406,0.4528593420982361,2.991860866546631
1776223426729265000,2.433264892578125,2.541949510574341,0.7515829205513,3.0736196041107178
1776223426749116000,2.453115966796875,2.8185763359069824,0.7938001751899719,3.0929601192474365
1776223426768966000,2.4729658203125,3.063979148864746,0.572412371635437,2.9990131855010986
1776223426788817000,2.49281689453125,3.123060703277588,-0.0863490030169487,2.5492496490478516
1776223426808667000,2.5126669921875,3.1567254066467285,-1.216334581375122,1.769307017326355
1776223426828516900,2.532516845703125,3.212557554244995,-2.280125856399536,1.3212599754333496
1776223426848367900,2.552367919921875,3.271561861038208,-2.9317593574523926,1.3603285551071167
1776223426868217900,2.5722177734375,3.29366397857666,-3.1612350940704346,1.5833903551101685
1776223426888068900,2.59206884765625,3.226292133331299,-3.02047061920166,1.8699920177459717
1776223426907918800,2.6119189453125,3.083059549331665,-2.653573513031006,2.1514718532562256
1776223426927768800,2.631768798828125,2.8556830883026123,-2.248847484588623,2.4014408588409424
1776223426947619800,2.651619873046875,2.573180675506592,-1.8664988279342651,2.548246383666992
1776223426967469800,2.6714697265625,2.287839889526367,-1.5815032720565796,2.555204391479492
1776223426987320000,2.691320068359375,2.03155517578125,-1.2899174690246582,2.5173256397247314
1776223427007170800,2.7111708984375,1.7790496349334717,-0.9777923822402954,2.4705970287323
1776223427027021000,2.73102099609375,1.5055125951766968,-0.6847221255302429,2.387299060821533
1776223427046871800,2.750871826171875,1.1891299486160278,-0.47964197397232056,2.1878552436828613
1776223427066721800,2.7707216796875,0.8433395028114319,-0.28312864899635315,1.872423768043518
1776223427086572000,2.790572021484375,0.4936105012893677,-0.1415475457906723,1.5456105470657349
1776223427106422800,2.8104228515625,0.10381854325532913,-0.09079408645629883,1.2439953088760376
1776223427126272800,2.830272705078125,-0.345564603805542,-0.10789823532104492,0.9682273864746094
1776223427146123800,2.850123779296875,-0.799926221370697,-0.1207362711429596,0.6826238632202148
1776223427165974000,2.86997412109375,-1.301558494567871,0.07025818526744843,0.337911456823349
1776223427185823700,2.88982373046875,-1.8811310529708862,0.49130529165267944,-0.20894256234169006
1776223427205675000,2.909675048828125,-2.3944284915924072,1.0271495580673218,-0.7840895056724548
1776223427225525000,2.92952490234375,-2.731449842453003,1.5868055820465088,-1.1153193712234497
1776223427245375700,2.949375732421875,-2.966947555541992,1.9301049709320068,-1.2750693559646606
1776223427265226000,2.96922607421875,-3.2705838680267334,2.1167047023773193,-1.2950643301010132
1776223427285076000,2.989075927734375,-3.637286424636841,2.2196407318115234,-1.1869285106658936
1776223427304927000,3.008927001953125,-3.9557650089263916,2.2959518432617188,-1.0044854879379272
1776223427324777000,3.02877685546875,-4.177443027496338,2.336031436920166,-0.8616905212402344
1776223427344627000,3.048626953125,-4.310175895690918,2.2306301593780518,-0.9173641800880432
1776223427364478000,3.06847802734375,-4.488273620605469,1.9601140022277832,-1.0954129695892334
1776223427384328000,3.088327880859375,-4.669579029083252,1.6302090883255005,-1.1319966316223145
1776223427404179000,3.108178955078125,-4.727805137634277,1.2941911220550537,-1.0078685283660889
1776223427424029000,3.12802880859375,-4.542222023010254,0.9915624856948853,-0.8792231678962708
1776223427443879000,3.14787890625,-4.193966865539551,0.7357035875320435,-0.9037051200866699
1776223427463730000,3.16772998046875,-3.8648948669433594,0.48590466380119324,-1.1027934551239014
1776223427483580000,3.187579833984375,-3.507225275039673,0.16432608664035797,-1.340271234512329
1776223427503431000,3.207430908203125,-3.137326717376709,-0.2552434802055359,-1.5206016302108765
1776223427523281000,3.227281005859375,-2.7339885234832764,-0.7881984710693359,-1.7217451333999634
1776223427543131000,3.247130859375,-2.3509864807128906,-1.4728317260742188,-1.8952736854553223
1776223427562982000,3.26698193359375,-2.0601413249969482,-2.193598985671997,-1.9255069494247437
1776223427582831900,3.286831787109375,-1.7625950574874878,-2.9838106632232666,-1.9735480546951294
1776223427602683000,3.306682861328125,-1.4766870737075806,-3.734368324279785,-2.287792205810547
1776223427622532900,3.326532958984375,-1.2213064432144165,-3.991515636444092,-2.8358042240142822
1776223427642382800,3.3463828125,-1.1486234664916992,-3.3061530590057373,-2.89864182472229
1776223427662233900,3.36623388671875,-1.0155240297317505,-1.9095360040664673,-2.2295172214508057
1776223427682083800,3.386083740234375,-0.47939297556877136,-0.34893348813056946,-1.2511861324310303
1776223427701934800,3.405934814453125,0.19869151711463928,0.8858339786529541,-0.34770551323890686
1776223427721784800,3.425784912109375,0.7162425518035889,1.5007288455963135,0.37439385056495667
1776223427741634800,3.445634765625,1.1102025508880615,1.4514515399932861,0.9953974485397339
1776223427761485800,3.46548583984375,1.4426442384719849,1.032138466835022,1.6284918785095215
1776223427781335800,3.485335693359375,1.7956904172897339,0.7976707816123962,2.164854049682617
1776223427801186800,3.505186767578125,2.212968349456787,0.9671109914779663,2.459360122680664
1776223427821036800,3.525036865234375,2.557666540145874,1.4470125436782837,2.5150277614593506
1776223427840886800,3.54488671875,2.7859671115875244,1.951013207435608,2.350006103515625
1776223427860737800,3.56473779296875,2.9030916690826416,2.1772565841674805,2.036406993865967
1776223427880587800,3.584587890625,2.9934914112091064,1.8885377645492554,1.6648977994918823
1776223427900438800,3.604438720703125,3.0993359088897705,1.258545160293579,1.3534557819366455
1776223427920288800,3.624288818359375,3.236171007156372,0.6528321504592896,1.211920142173767
1776223427940138800,3.644138671875,3.3926472663879395,0.22116833925247192,1.2321841716766357
1776223427959989800,3.66398974609375,3.556994676589966,-0.06578167527914047,1.3227359056472778
1776223427979839700,3.68383984375,3.6474289894104004,-0.2229665070772171,1.4169433116912842
1776223427999690800,3.703690673828125,3.671769618988037,-0.28569379448890686,1.4657518863677979
1776223428019540700,3.723540771484375,3.613184690475464,-0.3001611530780792,1.5031837224960327
1776223428039391700,3.743391845703125,3.516711711883545,-0.3726643919944763,1.5121220350265503
1776223428059241700,3.76324169921875,3.460761308670044,-0.5042865872383118,1.4525279998779297
1776223428079091700,3.783091796875,3.4218010902404785,-0.6703628897666931,1.4114340543746948
1776223428098942500,3.8029423828125,3.36979603767395,-0.8578534722328186,1.4077341556549072
1776223428118792400,3.82279248046875,3.2530009746551514,-1.0296424627304077,1.465734839439392
1776223428138643500,3.8426435546875,3.0873947143554688,-1.106634259223938,1.603734016418457
1776223428158493400,3.862493408203125,2.8852789402008057,-1.0749061107635498,1.820482611656189
1776223428178344400,3.882344482421875,2.633546829223633,-1.0566765069961548,2.099099636077881
1776223428198194400,3.9021943359375,2.399181842803955,-1.330285668373108,2.4409496784210205
1776223428218044400,3.92204443359375,1.973007082939148,-1.5992116928100586,2.654413938522339
1776223428237895400,3.9418955078125,1.1691935062408447,-1.6492913961410522,2.315497875213623
1776223428257745400,3.961745361328125,0.11038589477539062,-1.4943792819976807,1.4831058979034424
1776223428277596400,3.981596435546875,-0.7756595015525818,-1.149742603302002,0.5457541346549988
1776223428297446400,4.0014462890625,-1.3434704542160034,-0.662213921546936,-0.22665977478027344
1776223428317297400,4.02129736328125,-1.7438530921936035,-0.22041013836860657,-0.8037992715835571
1776223428337147400,4.0411474609375,-2.069894313812256,0.12600773572921753,-1.1741315126419067
1776223428356997400,4.060997314453125,-2.4166994094848633,0.41548243165016174,-1.3517577648162842
1776223428376848400,4.080848388671875,-2.8339972496032715,0.6806046366691589,-1.3713548183441162
1776223428396698400,4.100698486328125,-3.301729917526245,0.956527054309845,-1.1718758344650269
1776223428416549400,4.12054931640625,-3.6713473796844482,1.3026384115219116,-0.9036065340042114
1776223428436399400,4.1403994140625,-3.924499988555908,1.5772382020950317,-0.7754040956497192
1776223428456250400,4.16025048828125,-4.147892475128174,1.6353989839553833,-0.8370176553726196
1776223428476100400,4.180100341796875,-4.383194923400879,1.4972842931747437,-0.9515940546989441
1776223428495950300,4.199950439453125,-4.481543064117432,1.3200693130493164,-0.9125076532363892
1776223428515801300,4.21980126953125,-4.173928260803223,1.044331669807434,-0.5876981019973755
1776223428535651300,4.2396513671875,-3.806776285171509,0.6570726633071899,-0.2672934830188751
1776223428555502300,4.25950244140625,-3.49145245552063,0.23961524665355682,-0.3277648091316223
1776223428575352300,4.279352294921875,-3.142693519592285,-0.12637551128864288,-0.7103609442710876
1776223428595203300,4.299203369140625,-2.823639392852783,-0.46264541149139404,-1.0342473983764648
1776223428615053300,4.31905322265625,-2.476874589920044,-0.8344559669494629,-1.1103309392929077
1776223428634903600,4.338903564453125,-2.0625698566436768,-1.2065978050231934,-1.2367209196090698
1776223428654754300,4.35875439453125,-1.7810709476470947,-1.5428205728530884,-1.5856237411499023
1776223428674604300,4.378604248046875,-1.639014482498169,-1.7767242193222046,-1.9369114637374878
1776223428694455300,4.398455322265625,-1.4654126167297363,-1.793583631515503,-2.0691487789154053
1776223428714305300,4.41830517578125,-1.2170073986053467,-1.5859062671661377,-1.9974435567855835
1776223428734155500,4.438155517578125,-1.0126267671585083,-1.2975139617919922,-1.8929879665374756
1776223428754006300,4.45800634765625,-0.9298040866851807,-0.9771468043327332,-1.775048017501831
1776223428773856500,4.4778564453125,-0.8863196969032288,-0.6641071438789368,-1.4821079969406128
1776223428793707300,4.497707275390625,-0.6725972890853882,-0.24652189016342163,-1.0454339981079102
1776223428813557500,4.5175576171875,-0.34816837310791016,0.324386328458786,-0.5799403190612793
1776223428833408300,4.537408203125,-0.015473764389753342,0.8269605040550232,-0.12045504152774811
1776223428853258500,4.557258544921875,0.4342920482158661,1.0751762390136719,0.37426626682281494
1776223428873108500,4.5771083984375,1.0660593509674072,0.826824426651001,0.9497277140617371
1776223428892959200,4.596959228515625,1.6865631341934204,0.4628906846046448,1.4233118295669556
1776223428912809500,4.6168095703125,2.0557262897491455,0.31788501143455505,1.6832762956619263
1776223428932660200,4.63666015625,2.215421199798584,0.5217379927635193,1.8158183097839355
1776223428952510500,4.656510498046875,2.28113055229187,0.9522665143013,1.9355452060699463
1776223428972361200,4.676361328125,2.2803592681884766,1.4079970121383667,2.1138744354248047
1776223428992211500,4.69621142578125,2.4051027297973633,1.7266753911972046,2.237043857574463
1776223429012061400,4.7160615234375,2.633427381515503,1.909237265586853,2.10225772857666
1776223429031912400,4.735912353515625,2.8067638874053955,1.7818827629089355,1.8518987894058228
1776223429051762400,4.755762451171875,2.869734287261963,1.4394148588180542,1.683436632156372
1776223429071613200,4.77561328125,2.902397871017456,1.0892744064331055,1.7153675556182861
1776223429091463400,4.79546337890625,3.010118246078491,0.9352233409881592,1.8753061294555664
1776223429111315000,4.81531494140625,3.144564151763916,0.8949353098869324,1.8959722518920898
1776223429131165000,4.8351650390625,3.2155885696411133,0.8641089200973511,1.7532953023910522
1776223429151015000,4.855014892578125,3.1836721897125244,0.7520745396614075,1.5603034496307373
1776223429170866000,4.874865966796875,3.09568452835083,0.6322432160377502,1.468709945678711
1776223429190716000,4.8947158203125,3.0591325759887695,0.5450028777122498,1.4006080627441406
1776223429210567000,4.91456689453125,3.046537399291992,0.44948646426200867,1.2568756341934204
1776223429230417000,4.9344169921875,2.976942539215088,0.2649213969707489,1.1318445205688477
1776223429250267100,4.95426708984375,2.8829922676086426,0.08310180902481079,1.1103882789611816
1776223429270118000,4.974117919921875,2.716043472290039,0.01846848987042904,1.0809382200241089
1776223429289968000,4.993968017578125,2.417201519012451,0.012439358979463577,0.9798579216003418
1776223429309819000,5.01381884765625,2.0110411643981934,0.03737213835120201,0.8685340285301208
1776223429329669000,5.033669189453125,1.5196212530136108,0.10251066088676453,0.8290827870368958
1776223429349520000,5.053519775390625,1.0397473573684692,0.22573699057102203,0.8504331111907959
1776223429369369900,5.073369873046875,0.6228273510932922,0.26444578170776367,0.9254007935523987
1776223429389220000,5.09322021484375,0.06362611055374146,0.1847032755613327,0.9382401704788208
1776223429409070800,5.11307080078125,-0.7120030522346497,0.07395092397928238,0.7145479321479797
1776223429428921000,5.132921142578125,-1.5136408805847168,-0.008500543422996998,0.33268260955810547
1776223429448771800,5.152771728515625,-2.096494436264038,-0.05134361609816551,0.1440860629081726
1776223429468622000,5.1726220703125,-2.4826407432556152,-0.09768901020288467,0.22062984108924866
1776223429488472000,5.19247216796875,-2.675781011581421,-0.13887612521648407,0.4034164249897003
1776223429508323000,5.212322998046875,-2.7785890102386475,-0.12445617467164993,0.5345835089683533
1776223429528173000,5.232173095703125,-2.8841469287872314,-0.05296361446380615,0.4968017637729645
1776223429548024000,5.252024169921875,-3.0058860778808594,-0.018918829038739204,0.2942318916320801
1776223429567874000,5.2718740234375,-3.0961639881134033,-0.1572500765323639,0.2677752673625946
1776223429587724000,5.29172412109375,-3.0199508666992188,-0.26832494139671326,0.11217367649078369
1776223429607575000,5.311574951171875,-2.9022276401519775,-0.3947015106678009,-0.24364861845970154
1776223429627425000,5.331425048828125,-2.878373861312866,-0.5760526657104492,-0.6994374394416809
1776223429647276000,5.351276123046875,-2.9380013942718506,-0.843039333820343,-0.9426088333129883
1776223429667126000,5.3711259765625,-2.958735942840576,-1.2255665063858032,-1.1320868730545044
1776223429686977000,5.39097705078125,-2.7969305515289307,-1.694745421409607,-1.4684805870056152
1776223429706827000,5.410826904296875,-2.4579901695251465,-1.9847275018692017,-1.6149792671203613
1776223429726677000,5.430677001953125,-2.071739912033081,-2.0298023223876953,-1.5698047876358032
1776223429746528000,5.450528076171875,-1.6484743356704712,-1.855396032333374,-1.4472628831863403
1776223429766378000,5.4703779296875,-1.3500679731369019,-1.5244072675704956,-1.4177803993225098
1776223429786229000,5.49022900390625,-1.1067484617233276,-1.2384638786315918,-1.4774754047393799
1776223429806079000,5.510078857421875,-0.7835935950279236,-0.7804305553436279,-1.3149470090866089
1776223429825929000,5.529928955078125,-0.3529585897922516,-0.5808636546134949,-1.1123653650283813
1776223429845780000,5.549780029296875,-0.0764942392706871,-0.5519595742225647,-1.0980596542358398
1776223429865630000,5.5696298828125,0.019636817276477814,-0.542004406452179,-1.199869155883789
1776223429885481000,5.58948095703125,0.12666553258895874,-0.6326749324798584,-1.128764271736145
1776223429905331000,5.6093310546875,0.6131235957145691,-0.8772114515304565,-0.6321305632591248
1776223429925181000,5.629180908203125,0.7683547139167786,-0.591606855392456,-0.07436397671699524
1776223429945032000,5.649031982421875,0.5237340331077576,0.6605941653251648,0.049432262778282166
1776223429964882000,5.6688818359375,0.6913433074951172,0.41608136892318726,0.3871607780456543
1776223429984732000,5.68873193359375,0.9624765515327454,-0.3484775424003601,0.8607800006866455
1776223430004583000,5.7085830078125,1.2246812582015991,-0.16949981451034546,1.0816913843154907
1776223430024433000,5.728432861328125,1.456916093826294,0.2642284631729126,1.2246370315551758
1776223430044284000,5.748283935546875,1.5956827402114868,0.48721787333488464,1.3087161779403687
1776223430064134000,5.7681337890625,1.4765939712524414,0.7649320363998413,1.497183084487915
1776223430083984000,5.78798388671875,1.3158998489379883,0.6682065725326538,1.7733736038208008
1776223430103835100,5.807835205078125,1.191226840019226,0.6177747845649719,1.9385181665420532
1776223430123685000,5.82768505859375,1.1301385164260864,0.7354097962379456,2.0537679195404053
1776223430143536000,5.8475361328125,1.1471478939056396,0.955780565738678,2.21736741065979
1776223430163386000,5.86738623046875,1.264285922050476,1.1985734701156616,2.4572179317474365
1776223430183236000,5.887236083984375,1.5331631898880005,1.3442777395248413,2.713935136795044
1776223430203087000,5.907087158203125,1.776175856590271,1.4310834407806396,2.8422770500183105
1776223430222937000,5.92693701171875,1.9264955520629883,1.5446230173110962,2.721417188644409
1776223430242787000,5.946787109375,1.9919345378875732,1.6139533519744873,2.3756906986236572
1776223430262638000,5.96663818359375,2.027303695678711,1.6164586544036865,1.9605810642242432
1776223430282488000,5.986488037109375,2.0475664138793945,1.512641429901123,1.5930649042129517
1776223430302339000,6.006339111328125,2.0645577907562256,1.3761200904846191,1.276013731956482
1776223430322189000,6.02618896484375,2.1010515689849854,1.2703895568847656,1.0137567520141602
1776223430342039000,6.0460390625,2.099039316177368,1.241127848625183,0.8582092523574829
1776223430361890000,6.06589013671875,2.0704410076141357,1.2267038822174072,0.7583596110343933
1776223430381740000,6.085739990234375,2.1917874813079834,1.1455379724502563,0.6857820749282837
1776223430401590000,6.105590087890625,2.25073504447937,0.9298666715621948,0.7074798941612244
1776223430421441000,6.12544091796875,2.0545074939727783,0.6670616865158081,0.7749670743942261
1776223430441291000,6.145291015625,1.6323230266571045,0.42836812138557434,0.7774078845977783
1776223430461142000,6.16514208984375,1.1860827207565308,0.26340872049331665,0.6196089386940002
1776223430480992000,6.184991943359375,0.7404855489730835,0.12181218713521957,0.3234204053878784
1776223430500842000,6.204842041015625,0.1793692260980606,-0.17708902060985565,0.005930859595537186
1776223430520693000,6.22469287109375,-0.45842668414115906,-0.5656111836433411,-0.25556573271751404
1776223430540543000,6.24454296875,-1.0405510663986206,-0.9120266437530518,-0.42733827233314514
1776223430560393200,6.264393310546875,-1.4154855012893677,-1.1097147464752197,-0.5411186218261719
1776223430580244000,6.284243896484375,-1.6380072832107544,-1.0955618619918823,-0.6098912954330444
1776223430600094000,6.304093994140625,-1.8223345279693604,-0.9439105987548828,-0.60746169090271
1776223430619945000,6.323945068359375,-2.0336008071899414,-0.7994159460067749,-0.5090368986129761
1776223430639795000,6.343794921875,-2.234290599822998,-0.6661940217018127,-0.40128085017204285
1776223430659645200,6.363645263671875,-2.3384883403778076,-0.5012998580932617,-0.49681803584098816
1776223430679496000,6.383495849609375,-2.421373128890991,-0.3931201100349426,-0.8727618455886841
1776223430699346200,6.40334619140625,-2.593968629837036,-0.48255467414855957,-1.3264409303665161
1776223430719196200,6.423196044921875,-2.854109764099121,-0.7971330881118774,-1.6625627279281616
1776223430739047200,6.443047119140625,-3.08327054977417,-1.0832016468048096,-1.9040216207504272
1776223430758897200,6.462897216796875,-3.2223398685455322,-1.1633702516555786,-2.147122859954834
1776223430778748200,6.482748046875,-3.292773723602295,-1.0766382217407227,-2.400736093521118
1776223430798598100,6.50259814453125,-3.3961596488952637,-0.9017060995101929,-2.626830816268921
1776223430818448100,6.5224482421875,-3.498948574066162,-0.6884838342666626,-2.7597758769989014
1776223430838299100,6.542299072265625,-3.5180304050445557,-0.4131084680557251,-2.7493820190429688
1776223430858149000,6.562149169921875,-3.4875917434692383,-0.0369257926940918,-2.421738386154175
1776223430877999000,6.5819990234375,-3.4137704372406006,0.3633297383785248,-1.8145262002944946
1776223430897850000,6.60185009765625,-3.338918924331665,0.6655915975570679,-1.2499072551727295
1776223430917700000,6.6217001953125,-3.2277815341949463,0.7627860307693481,-0.862690806388855
1776223430937550000,6.641550048828125,-2.894895553588867,0.6052252054214478,-0.6188001036643982
1776223430957401000,6.661401123046875,-2.2532100677490234,0.1982656866312027,-0.5404142141342163
1776223430977251000,6.6812509765625,-1.6464465856552124,-0.3351721465587616,-0.6538353562355042
1776223430997101000,6.70110107421875,-1.338935136795044,-0.8174343705177307,-0.8301496505737305
1776223431016952000,6.7209521484375,-1.1670645475387573,-0.9025626182556152,-0.8588931560516357
1776223431036802000,6.740802001953125,-0.9494038820266724,-0.6587733626365662,-0.6760676503181458
1776223431056652000,6.760652099609375,-0.589669406414032,-0.28336113691329956,-0.358569860458374
1776223431076503000,6.7805029296875,-0.07998377829790115,0.058705125004053116,0.055205732583999634
1776223431096353000,6.80035302734375,0.4725065529346466,0.27447310090065,0.5531172752380371
1776223431116202200,6.8202021484375,0.9793609976768494,0.4606962502002716,1.016458511352539
1776223431136053000,6.840052978515625,1.3394043445587158,0.72767573595047,1.324659824371338
1776223431155903000,6.859903076171875,1.5615510940551758,1.0423921346664429,1.5284568071365356
1776223431175753200,6.879753173828125,1.7218431234359741,1.2848879098892212,1.6957459449768066
1776223431195604000,6.89960400390625,1.8991984128952026,1.4358350038528442,1.7641180753707886
1776223431215454200,6.9194541015625,2.1487538814544678,1.5127217769622803,1.7015535831451416
1776223431235304200,6.93930419921875,2.4908933639526367,1.5516670942306519,1.5909284353256226
1776223431255155200,6.9591552734375,2.760742664337158,1.5883334875106812,1.5720051527023315
1776223431275005200,6.979005126953125,2.905383348464966,1.596777319908142,1.641019344329834
1776223431294856200,6.998856201171875,2.977588176727295,1.556821346282959,1.7053853273391724
1776223431314706200,7.0187060546875,3.0594911575317383,1.4608306884765625,1.7330214977264404
1776223431334556200,7.03855615234375,3.1965107917785645,1.3365353345870972,1.6947760581970215
1776223431354407200,7.0584072265625,3.286526679992676,1.2221955060958862,1.5872106552124023
1776223431374257200,7.078257080078125,3.2913596630096436,1.104270100593567,1.4333500862121582
1776223431394107100,7.098107177734375,3.2003865242004395,0.9652597904205322,1.273634672164917
1776223431413958100,7.117958251953125,3.0705387592315674,0.8321440815925598,1.1258902549743652
1776223431433808100,7.13780810546875,2.983994483947754,0.719754159450531,0.9350464940071106
1776223431453658000,7.157658203125,2.9228644371032715,0.605054497718811,0.7465578317642212
1776223431473509000,7.177509033203125,2.8661391735076904,0.47161707282066345,0.664246141910553
1776223431493359000,7.197359130859375,2.802995204925537,0.3618364930152893,0.6825447678565979
1776223431513209000,7.217208984375,2.629894256591797,0.21793659031391144,0.7071901559829712
1776223431533060000,7.23706005859375,2.3054094314575195,0.10985645651817322,0.6840837597846985
1776223431552910000,7.25691015625,1.8947246074676514,-0.008558867499232292,0.6327502727508545
1776223431572760000,7.276760009765625,1.4644224643707275,-0.1464826464653015,0.6019532084465027
1776223431592611000,7.296611083984375,1.0301514863967896,-0.266181081533432,0.549328088760376
1776223431612461000,7.3164609375,0.5360743403434753,-0.3684065341949463,0.40517064929008484
1776223431632311000,7.33631103515625,-0.09378694742918015,-0.49703267216682434,0.1289380043745041
1776223431652161000,7.3561611328125,-0.8337723612785339,-0.6116700172424316,-0.2096666693687439
1776223431672012000,7.376011962890625,-1.5584344863891602,-0.6680638194084167,-0.4712223708629608
1776223431691862000,7.395862060546875,-2.044283866882324,-0.6353402137756348,-0.5485233068466187
1776223431711712000,7.4157119140625,-2.2622528076171875,-0.6099605560302734,-0.473967581987381
1776223431731563000,7.43556298828125,-2.3261945247650146,-0.5959986448287964,-0.3696472942829132
1776223431751413000,7.4554130859375,-2.398031711578369,-0.6116748452186584,-0.3231961727142334
1776223431771263200,7.47526318359375,-2.548344373703003,-0.5845417380332947,-0.4332182705402374
1776223431791114000,7.495114013671875,-2.7312371730804443,-0.5319759845733643,-0.665135383605957
1776223431810964200,7.514964111328125,-2.9204764366149902,-0.5328305959701538,-0.9041650295257568
1776223431830814200,7.534814208984375,-3.1082963943481445,-0.663203775882721,-1.0789294242858887
1776223431850665200,7.554665283203125,-3.2731854915618896,-0.8253932595252991,-1.2259904146194458
1776223431870515200,7.57451513671875,-3.3868207931518555,-0.9740394353866577,-1.3752036094665527
1776223431890365200,7.594365234375,-3.4625866413116455,-1.067484736442566,-1.5302236080169678
1776223431910216200,7.61421630859375,-3.533356189727783,-1.113122820854187,-1.6501729488372803
1776223431930066200,7.634066162109375,-3.5765113830566406,-1.0678637027740479,-1.7430490255355835
1776223431949916200,7.653916259765625,-3.6089210510253906,-0.9870878458023071,-1.8100041151046753
1776223431969767200,7.67376708984375,-3.5641324520111084,-0.7586237788200378,-1.8256973028182983
1776223431989617200,7.6936171875,-3.4771628379821777,-0.3248864710330963,-1.5908137559890747
1776223432009467100,7.713467041015625,-3.382906675338745,0.1459289789199829,-1.1046621799468994
1776223432029318100,7.733318115234375,-3.078566789627075,0.35075002908706665,-0.6246143579483032
1776223432049168100,7.753168212890625,-2.469858407974243,0.26097992062568665,-0.27668753266334534
1776223432069018000,7.77301806640625,-1.689751148223877,-0.1205061748623848,0.03807840868830681
1776223432088868000,7.7928681640625,-0.9996041655540466,-0.6344768404960632,0.2092522829771042
1776223432108719900,7.812719970703125,-0.5878725647926331,-1.0325181484222412,0.06937188655138016
1776223432128569900,7.83256982421875,-0.4480949640274048,-1.1359907388687134,-0.12467348575592041
1776223432148419800,7.852419921875,-0.3331718444824219,-0.9293119311332703,-0.22835886478424072
1776223432168270800,7.872270751953125,-0.03718997910618782,-0.4890194833278656,-0.23833587765693665
1776223432188120800,7.892120849609375,0.4058220684528351,-0.06126202642917633,-0.07199057191610336
1776223432207970800,7.911970703125,0.8629113435745239,0.21021981537342072,0.23748499155044556
1776223432227821800,7.93182177734375,1.2519235610961914,0.3947491943836212,0.5934305787086487
1776223432247671800,7.951671875,1.5929032564163208,0.6555173993110657,0.8353366851806641
1776223432267521800,7.971521728515625,1.8718775510787964,1.0306094884872437,0.9575797915458679
1776223432287371800,7.991371826171875,2.031958818435669,1.414615273475647,1.0244314670562744
1776223432307222800,8.011222900390624,2.087522268295288,1.7336441278457642,1.0303019285202026
1776223432327072800,8.03107275390625,2.14985990524292,1.8814932107925415,1.0029441118240356
1776223432346922800,8.0509228515625,2.283005952835083,1.8918925523757935,1.012571930885315
1776223432366773800,8.070773681640626,2.488619089126587,1.776405930519104,1.0643483400344849
1776223432386623700,8.090623779296875,2.7527661323547363,1.5726642608642578,1.0653102397918701
1776223432406474000,8.110473876953124,3.0210824012756348,1.3133525848388672,0.9229653477668762
1776223432426324000,8.130323974609375,3.235199451446533,1.0743072032928467,0.6533048152923584
1776223432446175000,8.150175048828125,3.3870036602020264,0.8874960541725159,0.4016590118408203
1776223432466025000,8.17002490234375,3.4605085849761963,0.6756104230880737,0.2509523332118988
1776223432485875000,8.189875,3.472064256668091,0.45035651326179504,0.2775924503803253
1776223432505726000,8.209725830078124,3.42610502243042,0.3061591386795044,0.40678641200065613
1776223432525576000,8.229575927734375,3.3046743869781494,0.15487799048423767,0.5536519885063171
1776223432545426000,8.249426025390624,3.1054322719573975,0.041200168430805206,0.6608203053474426
1776223432565277000,8.26927685546875,2.844834089279175,-0.049192581325769424,0.7438467144966125
1776223432585127000,8.289126953125,2.5707080364227295,-0.09910740703344345,0.8357974290847778
1776223432604977000,8.308976806640626,2.299924850463867,-0.09369666129350662,0.960935652256012
1776223432624827000,8.328826904296875,1.9938650131225586,-0.061525147408246994,1.0477118492126465
1776223432644678000,8.348677978515624,1.639154076576233,-0.0445094108581543,1.069961428642273
1776223432664528000,8.36852783203125,1.192717432975769,-0.01509985700249672,0.9947537779808044
1776223432684377900,8.3883779296875,0.6805074214935303,0.0368749275803566,0.8257362842559814
1776223432704228900,8.408228759765626,0.1453462690114975,-0.03230041638016701,0.6382790207862854
1776223432724078800,8.428078857421875,-0.3348134160041809,-0.13686570525169373,0.36826857924461365
1776223432743928800,8.4479287109375,-0.8575807213783264,-0.31926214694976807,0.11501633375883102
1776223432763778600,8.467778564453125,-1.4854342937469482,-0.49599483609199524,-0.023001989349722862
1776223432783629800,8.4876298828125,-2.0678484439849854,-0.546857476234436,-0.12508361041545868
1776223432803479800,8.507479736328126,-2.4458425045013428,-0.4807996451854706,-0.16216440498828888
1776223432823329800,8.527329833984375,-2.645277976989746,-0.3573741018772125,-0.1262921541929245
1776223432843179800,8.5471796875,-2.716948986053467,-0.24454475939273834,-0.0758521556854248
1776223432863030800,8.56703076171875,-2.7790186405181885,-0.1539168655872345,-0.09560588747262955
1776223432882880800,8.586880859375,-2.868844509124756,-0.12856942415237427,-0.2633139193058014
1776223432902730800,8.606730712890625,-2.932203769683838,-0.15360286831855774,-0.5358932614326477
1776223432922582000,8.62658203125,-2.9889488220214844,-0.2634574770927429,-0.8256744742393494
1776223432942431700,8.646431640625,-3.0094590187072754,-0.4401073455810547,-0.9957242608070374
1776223432962281700,8.66628173828125,-2.968698501586914,-0.6149030923843384,-1.0432344675064087
1776223432982131700,8.686131591796874,-2.8657586574554443,-0.7333061695098877,-1.0475714206695557
1776223433001982700,8.705982666015625,-2.7325804233551025,-0.7971847653388977,-1.1271778345108032
1776223433021832700,8.725832763671875,-2.66292405128479,-0.8250529170036316,-1.2657368183135986
1776223433041682700,8.7456826171875,-2.6506147384643555,-0.8176000118255615,-1.3558366298675537
1776223433061532700,8.76553271484375,-2.6486871242523193,-0.7238266468048096,-1.3499720096588135
1776223433081383700,8.7853837890625,-2.6270129680633545,-0.5645397901535034,-1.2683876752853394
1776223433101234200,8.805234130859375,-2.54937481880188,-0.38078010082244873,-1.1314213275909424
1776223433121084000,8.825083984375,-2.33388090133667,-0.21433785557746887,-0.9740442633628845
1776223433140934000,8.844933837890625,-1.9731818437576294,0.0099034970626235,-0.7589212656021118
1776223433160785200,8.86478515625,-1.5192439556121826,0.1464536190032959,-0.4279942214488983
1776223433180635000,8.884634765625,-1.0137455463409424,0.1608504056930542,-0.1362353414297104
1776223433200484900,8.90448486328125,-0.5979155898094177,0.06558220833539963,0.027093136683106422
1776223433220335000,8.924335205078124,-0.3712736964225769,-0.08540944010019302,0.03470525145530701
1776223433240185900,8.944185791015625,-0.17417313158512115,-0.18096472322940826,-0.039329830557107925
1776223433260036000,8.9640361328125,0.12513048946857452,-0.1283601075410843,-0.07618584483861923
1776223433279886000,8.983885986328126,0.4929697513580322,0.03726934269070625,-0.018563831225037575
1776223433299737000,9.003737060546875,0.7880194783210754,0.16590800881385803,0.15798351168632507
1776223433319587000,9.023587158203124,1.077256679534912,0.2765841782093048,0.39525437355041504
1776223433339437000,9.04343701171875,1.4106290340423584,0.40870919823646545,0.642570436000824
1776223433359287000,9.063287109375,1.7146706581115723,0.5843984484672546,0.8226954340934753
1776223433379138000,9.083137939453126,1.9303035736083984,0.7997464537620544,0.9470245838165283
1776223433398988000,9.102988037109375,2.0071308612823486,1.0138659477233887,1.0329346656799316
1776223433418838000,9.122838134765624,1.987260103225708,1.172461986541748,1.0742506980895996
1776223433438688000,9.14268798828125,2.01872181892395,1.255090594291687,1.0513262748718262
1776223433458539000,9.1625390625,2.1463069915771484,1.2086820602416992,0.9424506425857544
1776223433478389000,9.182388916015626,2.3511910438537598,0.9978417158126831,0.7931903004646301
1776223433498239000,9.202239013671875,2.6529734134674072,0.680154025554657,0.6539005637168884
1776223433518089000,9.2220888671875,2.998128652572632,0.32912677526474,0.5611469745635986
1776223433537940000,9.24193994140625,3.303144693374634,0.06574998795986176,0.5104419589042664
1776223433557790000,9.2617900390625,3.51505446434021,-0.14660435914993286,0.517937958240509
1776223433577640000,9.281639892578125,3.615903377532959,-0.3220424950122833,0.451406329870224
1776223433597490200,9.301490234375,3.669576644897461,-0.36813995242118835,0.2847004532814026
1776223433617341000,9.3213408203125,3.6199159622192383,-0.39638569951057434,0.1816859096288681
1776223433637191200,9.341191162109375,3.437513589859009,-0.42414674162864685,0.19360941648483276
1776223433657041200,9.361041259765624,3.1074061393737793,-0.41493433713912964,0.2967211604118347
1776223433676891100,9.38089111328125,2.654721975326538,-0.3595605790615082,0.45710763335227966
1776223433696742100,9.4007421875,2.1930997371673584,-0.26851800084114075,0.6053860187530518
1776223433716592000,9.420592041015626,1.7478477954864502,-0.13871634006500244,0.675373911857605
1776223433736442000,9.440442138671875,1.2826752662658691,0.00195156445261091,0.7067278623580933
1776223433756292000,9.4602919921875,0.7314459681510925,0.10911876708269119,0.7240695357322693
1776223433776143000,9.48014306640625,0.14242611825466156,0.18848149478435516,0.6996965408325195
1776223433795993000,9.4999931640625,-0.405490517616272,0.1728743016719818,0.6690483689308167
1776223433815843000,9.519843017578125,-0.9242897033691406,0.10836775600910187,0.6203932166099548
1776223433835693000,9.539693115234375,-1.4668419361114502,0.06464876979589462,0.4702223539352417
1776223433855544000,9.5595439453125,-1.9624661207199097,0.03990666940808296,0.25360244512557983
1776223433875394000,9.57939404296875,-2.320254325866699,0.04271204397082329,0.07876618206501007
1776223433895244000,9.599244140625,-2.520843505859375,-0.019470104947686195,0.012530705891549587
1776223433915094000,9.619093994140625,-2.59060001373291,-0.10436368733644485,-0.024921061471104622
1776223433934944300,9.6389443359375,-2.580291271209717,-0.170226588845253,-0.10221371799707413
1776223433954795000,9.658794921875,-2.567594051361084,-0.1965854912996292,-0.26726898550987244
1776223433974645200,9.678645263671875,-2.586097002029419,-0.1858108788728714,-0.540730357170105
1776223433994495200,9.6984951171875,-2.6079607009887695,-0.2372245341539383,-0.8746004700660706
1776223434014345200,9.71834521484375,-2.660381555557251,-0.3600409924983978,-1.1658406257629395
1776223434034196200,9.7381962890625,-2.7649776935577393,-0.5285400152206421,-1.3297597169876099
1776223434054046200,9.758046142578126,-2.9018008708953857,-0.705336332321167,-1.3170876502990723
1776223434073896200,9.777896240234375,-2.9600820541381836,-0.8221337795257568,-1.205553412437439
1776223434093746200,9.79774609375,-2.8953824043273926,-0.8354125618934631,-1.108566403388977
1776223434113596400,9.817596435546875,-2.7767629623413086,-0.7611239552497864,-1.092602252960205
1776223434133446400,9.8374462890625,-2.707627534866333,-0.6584966778755188,-1.1244126558303833
1776223434153296400,9.85729638671875,-2.742211103439331,-0.617087721824646,-1.0796793699264526
1776223434173146400,9.877146484375,-2.8103647232055664,-0.7036769390106201,-0.9403307437896729
1776223434192996600,9.89699658203125,-2.8402271270751953,-0.8559975028038025,-0.8907890319824219
1776223434212847400,9.916847412109375,-2.738269329071045,-1.043145775794983,-0.9485316872596741
1776223434232697600,9.936697509765626,-2.364178419113159,-1.2450544834136963,-0.9636869430541992
1776223434252547600,9.956547607421875,-1.707950472831726,-1.38578462600708,-0.8913062214851379
1776223434272397600,9.9763974609375,-1.0098539590835571,-1.3782225847244263,-0.7538844347000122
1776223434292248600,9.99624853515625,-0.4764014184474945,-1.1725802421569824,-0.5851132869720459
1776223434312098600,10.0160986328125,-0.14208923280239105,-0.8145810961723328,-0.3927563428878784
1776223434331948500,10.035948486328126,0.15576456487178802,-0.286471962928772,-0.2153591811656952
1776223434351798500,10.055798583984375,0.47792288661003113,0.3050757646560669,0.003768372815102339
1776223434371648500,10.0756484375,0.742992639541626,0.6419640183448792,0.3396044373512268
1776223434391499500,10.09549951171875,0.9566231966018677,0.6583957076072693,0.7525163888931274
1776223434411349500,10.115349609375,1.2434874773025513,0.6414652466773987,1.1379005908966064
1776223434431199500,10.135199462890625,1.6389862298965454,0.7077659368515015,1.366283655166626
1776223434451049500,10.155049560546875,2.032761812210083,0.8178141713142395,1.4613475799560547
1776223434470900500,10.174900390625,2.261174440383911,0.9796179533004761,1.4314520359039307
1776223434490750500,10.19475048828125,2.248924970626831,1.0631495714187622,1.3362929821014404
1776223434510600400,10.214600341796874,2.154757261276245,1.0343011617660522,1.1065438985824585
1776223434530450400,10.234450439453125,2.160196542739868,1.0520011186599731,0.7008675336837769
1776223434550300400,10.254300537109375,2.270117998123169,1.0024710893630981,0.3930540680885315
1776223434570151700,10.274151611328126,2.4449682235717773,0.879269003868103,0.3407227098941803
1776223434590001400,10.29400146484375,2.679039478302002,0.7567183375358582,0.47422510385513306
1776223434609851400,10.313851318359376,2.9336585998535156,0.6467276215553284,0.6750593781471252
1776223434629701400,10.333701416015625,3.1630523204803467,0.5260318517684937,0.8559231758117676
1776223434649552400,10.353552490234375,3.323700189590454,0.3909025192260742,0.9206494688987732
1776223434669402400,10.37340234375,3.3775691986083984,0.2328212708234787,0.9120418429374695
1776223434689252400,10.39325244140625,3.33471417427063,0.08115743845701218,0.860151469707489
1776223434709102300,10.413102294921876,3.2283623218536377,-0.056776728481054306,0.8053340315818787
1776223434728952300,10.432952392578125,3.0545814037323,-0.1637982577085495,0.7807410955429077
1776223434748803300,10.45280322265625,2.839198350906372,-0.2054777890443802,0.8181638121604919
1776223434768653300,10.4726533203125,2.6062161922454834,-0.2108086347579956,0.9501509070396423
1776223434788503300,10.49250341796875,2.343247413635254,-0.2207198590040207,1.1470192670822144
1776223434808353500,10.512353515625,2.0220227241516113,-0.21157988905906677,1.2924749851226807
1776223434828203500,10.53220361328125,1.6467502117156982,-0.20466339588165283,1.3990213871002197
1776223434848054500,10.552054443359374,1.2056790590286255,-0.2881159484386444,1.4852049350738525
1776223434867904500,10.571904541015625,0.7457892298698425,-0.38763853907585144,1.5093837976455688
1776223434887754500,10.59175439453125,0.32429391145706177,-0.41435590386390686,1.3493558168411255
1776223434907604500,10.6116044921875,-0.19581690430641174,-0.43911078572273254,0.8629384636878967
1776223434927454500,10.631454345703125,-0.9087496399879456,-0.4867504835128784,0.06948506832122803
1776223434947305500,10.651305419921876,-1.6729693412780762,-0.44095343351364136,-0.7736362814903259
1776223434967155500,10.671155517578125,-2.234428644180298,-0.24716505408287048,-1.297095775604248
1776223434987005400,10.69100537109375,-2.5790059566497803,-0.024984445422887802,-1.4175372123718262
1776223435006855400,10.71085546875,-2.776466131210327,0.13580310344696045,-1.2704108953475952
1776223435026706400,10.73070654296875,-2.9116790294647217,0.26361221075057983,-1.0237257480621338
1776223435046556400,10.750556396484376,-3.016266107559204,0.41137582063674927,-0.850504457950592
1776223435066406400,10.770406494140625,-3.1343743801116943,0.42697128653526306,-0.7777817845344543
1776223435086256400,10.79025634765625,-3.251786470413208,0.3156066834926605,-0.8081369996070862
1776223435106107000,10.81010693359375,-3.3293447494506836,0.12720562517642975,-0.9401935935020447
1776223435125958000,10.8299580078125,-3.390993595123291,-0.14386102557182312,-1.0943118333816528
1776223435145808000,10.849807861328125,-3.376667022705078,-0.41872960329055786,-1.241952657699585
1776223435165658000,10.869658203125,-3.262559175491333,-0.6525397300720215,-1.370932698249817
1776223435185508000,10.889508056640626,-3.0755674839019775,-0.7726970314979553,-1.4258185625076294
1776223435205358000,10.909358154296875,-2.924680233001709,-0.8350841999053955,-1.478590488433838
1776223435225207800,10.929207763671876,-2.8752777576446533,-0.8238856196403503,-1.5391502380371094
1776223435245059000,10.94905908203125,-2.949885606765747,-0.8050528168678284,-1.4790301322937012
1776223435264909000,10.968908935546875,-2.980098247528076,-0.6982693672180176,-1.246822714805603
1776223435284758800,10.9887587890625,-2.791682243347168,-0.5259159803390503,-0.9206050038337708
1776223435304608800,11.00860888671875,-2.3773272037506104,-0.42909544706344604,-0.5515872836112976
1776223435324458800,11.028458740234376,-1.8351837396621704,-0.4406684637069702,-0.2182987779378891
1776223435344309800,11.048309814453125,-1.257482647895813,-0.5169848203659058,-0.060811419039964676
1776223435364159700,11.06815966796875,-0.7997507452964783,-0.6310440301895142,-0.15469025075435638
1776223435384009700,11.088009765625,-0.5542150139808655,-0.7253713011741638,-0.35832831263542175
1776223435403860000,11.10785986328125,-0.3947491943836212,-0.596777617931366,-0.5470686554908752
1776223435423710000,11.1277099609375,-0.20813243091106415,-0.298572838306427,-0.5833595991134644
1776223435443561000,11.14756103515625,-0.02640364319086075,0.00373082235455513,-0.4399842917919159
1776223435463411000,11.167410888671874,0.1383671909570694,0.19338198006153107,-0.10812007635831833
1776223435483261000,11.187260986328125,0.45478081703186035,0.4576234817504883,0.3926359713077545
1776223435503111000,11.20711083984375,1.0168931484222412,0.8746896982192993,0.8532975912094116
1776223435522961000,11.2269609375,1.582279086112976,1.3216294050216675,1.143715500831604
1776223435542812000,11.24681201171875,1.9876127243041992,1.6863415241241455,1.1884976625442505
1776223435562662000,11.266661865234376,2.202974557876587,1.8558741807937622,1.0711963176727295
1776223435582511900,11.286511962890625,2.327347993850708,1.8672889471054077,0.9214816689491272
1776223435602361900,11.30636181640625,2.4907498359680176,1.77646005153656,0.9058049917221069
1776223435622211800,11.3262119140625,2.7503111362457275,1.595131516456604,1.069881796836853
1776223435642061800,11.346061767578124,3.1076102256774902,1.3171286582946777,1.285139799118042
1776223435661912800,11.365912841796876,3.4623687267303467,1.0352461338043213,1.3372021913528442
1776223435681762800,11.3857626953125,3.7373175621032715,0.7922698855400085,1.2487388849258423
1776223435701613000,11.405613037109376,3.916990041732788,0.575251579284668,1.1672009229660034
1776223435721463000,11.425463134765625,3.988037109375,0.38893523812294006,1.1204941272735596
1776223435741313000,11.44531298828125,3.905289649963379,0.2290576845407486,1.0566065311431885
1776223435761164000,11.4651640625,3.6834206581115723,0.12836489081382751,0.9443907141685486
1776223435781014000,11.485013916015625,3.3174662590026855,0.025906166061758995,0.8172852396965027
1776223435800864000,11.504864013671876,2.8881964683532715,-0.04477332904934883,0.753224790096283
1776223435820714000,11.5247138671875,2.4933290481567383,-0.05091032013297081,0.7469993829727173
1776223435840564000,11.54456396484375,2.1946287155151367,0.00018908442871179432,0.7714344263076782
1776223435860414000,11.5644140625,1.9458717107772827,0.04635045304894447,0.7770866751670837
1776223435880265000,11.584264892578124,1.647006630897522,0.08038831502199173,0.7149658203125
1776223435900115000,11.604114990234375,1.2955669164657593,0.03777054697275162,0.5794165134429932
1776223435919965000,11.62396484375,0.8851751089096069,-0.11818203330039978,0.41939541697502136
1776223435939815000,11.64381494140625,0.46396154165267944,-0.26265719532966614,0.21499033272266388
1776223435959665000,11.663664794921875,0.02142646163702011,-0.3890385627746582,-0.026272350922226906
1776223435979515000,11.683514892578126,-0.4848468601703644,-0.42406925559043884,-0.3014879524707794
1776223435999366000,11.703365966796875,-1.023936152458191,-0.3688105344772339,-0.5719375610351562
1776223436019216000,11.7232158203125,-1.4891685247421265,-0.30381155014038086,-0.6616232395172119
1776223436039065900,11.74306591796875,-1.8506298065185547,-0.27610641717910767,-0.5571026802062988
1776223436058915800,11.762915771484375,-2.0820834636688232,-0.26160523295402527,-0.38598737120628357
1776223436078765800,11.782765869140626,-2.2089288234710693,-0.2827233076095581,-0.2196793556213379
1776223436098616800,11.802616943359375,-2.2838165760040283,-0.30381181836128235,-0.14261174201965332
1776223436118467000,11.822467041015624,-2.354515552520752,-0.3107336461544037,-0.21819545328617096
1776223436138317000,11.842317138671875,-2.479623317718506,-0.367605984210968,-0.4071107804775238
1776223436158167000,11.8621669921875,-2.6582727432250977,-0.5192298293113708,-0.5815675258636475
1776223436178017000,11.88201708984375,-2.8383243083953857,-0.6690220236778259,-0.7781407833099365
1776223436197867300,11.9018671875,-2.979823589324951,-0.824354887008667,-1.0120712518692017
1776223436217718000,11.921718017578126,-3.0618066787719727,-0.9348821640014648,-1.2357426881790161
1776223436237568300,11.941568359375,-3.0764546394348145,-1.0058820247650146,-1.372699499130249
1776223436257418200,11.961418212890624,-3.0253753662109375,-1.042074203491211,-1.406266212463379
1776223436277268000,11.98126806640625,-2.9240341186523438,-1.0554126501083374,-1.425546407699585
1776223436297118000,12.001117919921874,-2.787257194519043,-0.980214536190033,-1.55447518825531
1776223436316968000,12.020968017578125,-2.717684030532837,-0.9433954954147339,-1.7087595462799072
1776223436336819000,12.04081884765625,-2.7261366844177246,-0.9782352447509766,-1.7500044107437134
1776223436356669000,12.0606689453125,-2.715916156768799,-0.985447108745575,-1.6457469463348389
1776223436376519000,12.080518798828125,-2.5536699295043945,-0.9091760516166687,-1.4518067836761475
1776223436396369000,12.100368896484374,-2.1837246417999268,-0.7671744227409363,-1.241202473640442
1776223436416219000,12.120218994140625,-1.7505072355270386,-0.5728794932365417,-1.0248323678970337
1776223436436069000,12.140069091796875,-1.3767309188842773,-0.46810728311538696,-0.8051721453666687
1776223436455919900,12.159919921875,-1.0172665119171143,-0.4051365852355957,-0.6710492372512817
1776223436475770000,12.17977001953125,-0.6215048432350159,-0.31092992424964905,-0.5720488429069519
1776223436495620000,12.1996201171875,-0.12428013980388641,-0.19225919246673584,-0.4078548550605774
1776223436515470000,12.219469970703125,0.42025506496429443,-0.11753462255001068,-0.1519264131784439
1776223436535320000,12.239320068359374,0.9006248712539673,-0.07312188297510147,0.15356425940990448
1776223436555170000,12.259170166015625,1.2784714698791504,0.03681048005819321,0.43202969431877136
1776223436575020000,12.27902001953125,1.6833760738372803,0.2787053883075714,0.6851911544799805
1776223436594871000,12.29887109375,2.060472249984741,0.6107608079910278,0.9428114891052246
1776223436614721000,12.318720947265625,2.3613955974578857,0.9456607699394226,1.1581240892410278
1776223436634571000,12.338571044921874,2.5396106243133545,1.228891134262085,1.3045254945755005
1776223436654421000,12.3584208984375,2.6712846755981445,1.4616801738739014,1.4276518821716309
1776223436674271200,12.378271240234374,2.8844528198242188,1.6523982286453247,1.5339136123657227
1776223436694121200,12.398121337890625,3.171238899230957,1.7570141553878784,1.581913948059082
1776223436713972000,12.417971923828125,3.4130654335021973,1.7495259046554565,1.609697699546814
1776223436733822200,12.437822265625,3.5513815879821777,1.6447246074676514,1.6042836904525757
1776223436753672200,12.457672119140625,3.5701723098754883,1.4402759075164795,1.5865068435668945
1776223436773522200,12.477522216796874,3.479325771331787,1.1762570142745972,1.6280934810638428
1776223436793372200,12.4973720703125,3.3427441120147705,0.9157193899154663,1.701177716255188
1776223436813222000,12.517221923828124,3.1826672554016113,0.699424684047699,1.7349863052368164
1776223436833071900,12.53707177734375,3.012148380279541,0.5627967715263367,1.6659952402114868
1776223436852923100,12.556923095703125,2.82454514503479,0.4601966440677643,1.4884167909622192
1776223436872772900,12.57677294921875,2.5967912673950195,0.35514718294143677,1.2418162822723389
1776223436892622800,12.596622802734375,2.333721160888672,0.28936150670051575,0.9605838060379028
1776223436912473000,12.61647314453125,2.059657096862793,0.25738734006881714,0.6797409653663635
1776223436932323000,12.636322998046875,1.7561779022216797,0.22947552800178528,0.4485229253768921
1776223436952173000,12.656173095703124,1.4369325637817383,0.19879725575447083,0.2818974554538727
1776223436972024000,12.676024169921876,1.1188949346542358,0.15563300251960754,0.1435646265745163
1776223436991874000,12.6958740234375,0.7732629179954529,0.06455768644809723,-0.00264824740588665
1776223437011724000,12.71572412109375,0.3405708968639374,-0.06197575107216835,-0.1591944545507431
1776223437031574000,12.735573974609375,-0.14965634047985077,-0.17812499403953552,-0.28989067673683167
1776223437051424000,12.755424072265624,-0.6498078107833862,-0.290988951921463,-0.43511444330215454
1776223437071274000,12.77527392578125,-1.1716723442077637,-0.3950333297252655,-0.6232747435569763
1776223437091124000,12.7951240234375,-1.7437057495117188,-0.4390338063240051,-0.81501704454422
1776223437110975000,12.81497509765625,-2.228304386138916,-0.38975921273231506,-0.9008041024208069
1776223437130824700,12.83482470703125,-2.528528928756714,-0.3122553825378418,-0.8505353331565857
1776223437150675000,12.854675048828126,-2.6153125762939453,-0.23945572972297668,-0.725132405757904
1776223437170525000,12.87452490234375,-2.520688056945801,-0.22680358588695526,-0.588478684425354
1776223437190375000,12.894375,-2.3667562007904053,-0.2609788775444031,-0.5515395998954773
1776223437210225000,12.914224853515625,-2.3533246517181396,-0.29887592792510986,-0.6957311034202576
1776223437230075000,12.934074951171874,-2.486755132675171,-0.36277100443840027,-0.9744040369987488
1776223437249926000,12.95392578125,-2.7453978061676025,-0.49486619234085083,-1.2395249605178833
1776223437269776000,12.97377587890625,-2.966919422149658,-0.6131049394607544,-1.3814634084701538
1776223437289625900,12.9936259765625,-3.0540361404418945,-0.6830688714981079,-1.397817611694336
1776223437309475800,13.013475830078125,-2.977510690689087,-0.713477373123169,-1.39443838596344
1776223437329325800,13.033325927734374,-2.81887149810791,-0.7306302785873413,-1.3925524950027466
1776223437349175800,13.05317578125,-2.6799049377441406,-0.7186140418052673,-1.3767125606536865
1776223437369026000,13.073026123046875,-2.572540521621704,-0.6731392741203308,-1.3473416566848755
1776223437388876000,13.0928759765625,-2.478992223739624,-0.6183407306671143,-1.351502537727356
1776223437408727000,13.11272705078125,-2.377521514892578,-0.5936119556427002,-1.3525105714797974
1776223437428577000,13.132576904296876,-2.2189557552337646,-0.6816794872283936,-1.2727670669555664
1776223437448427000,13.152427001953125,-1.9291387796401978,-0.8812064528465271,-1.1331641674041748
1776223437468277000,13.172277099609374,-1.4782253503799438,-1.0784214735031128,-1.0731502771377563
1776223437488127000,13.192126953125,-0.964081346988678,-1.2502872943878174,-1.0993268489837646
1776223437507977000,13.21197705078125,-0.5636751055717468,-1.3566858768463135,-1.0820391178131104
1776223437527827000,13.231826904296875,-0.3180575966835022,-1.3693816661834717,-0.9799308776855469
1776223437547678000,13.251677978515625,-0.12034691870212555,-1.1901483535766602,-0.8928801417350769
1776223437567528000,13.27152783203125,0.08340780436992645,-0.8929675221443176,-0.7827046513557434
1776223437587378000,13.2913779296875,0.30572235584259033,-0.5658594369888306,-0.5805131793022156
1776223437607228200,13.311228271484374,0.5707511305809021,-0.2685827314853668,-0.2793392241001129
1776223437627078000,13.331077880859375,0.8168538212776184,-0.06549298763275146,0.16001710295677185
1776223437646928000,13.350927978515625,1.0166369676589966,0.06279654055833817,0.6643494963645935
1776223437666777900,13.37077783203125,1.235587477684021,0.2228759527206421,1.1213064193725586
1776223437686628900,13.39062890625,1.5747151374816895,0.5282180309295654,1.42649507522583
1776223437706478800,13.410478759765626,1.9530222415924072,0.8578577041625977,1.6259537935256958
1776223437726328800,13.430328857421875,2.2477803230285645,1.1153278350830078,1.7001516819000244
1776223437746178800,13.4501787109375,2.430652379989624,1.314065933227539,1.6300010681152344
1776223437766028800,13.47002880859375,2.506556749343872,1.3599772453308105,1.5680636167526245
1776223437785878800,13.489878662109374,2.628715991973877,1.3222941160202026,1.578762412071228
1776223437805729000,13.50972900390625,2.8268845081329346,1.1723570823669434,1.6363118886947632
1776223437825579000,13.5295791015625,2.9876351356506348,0.9528835415840149,1.7337762117385864
1776223437845430000,13.549429931640624,3.0971639156341553,0.6996105313301086,1.880191683769226
1776223437865280000,13.569280029296875,3.171464681625366,0.4612610936164856,1.9417825937271118
1776223437885130000,13.5891298828125,3.18369722366333,0.2819371521472931,1.9251255989074707
1776223437904980000,13.60897998046875,3.095616340637207,0.14174142479896545,1.912628173828125
1776223437924830000,13.628829833984375,2.8985304832458496,0.02605130709707737,1.9666306972503662
1776223437944680000,13.648679931640626,2.6487419605255127,-0.019569439813494682,1.972622275352478
1776223437964530000,13.668530029296875,2.3658223152160645,0.029455360025167465,1.8382700681686401
1776223437984380000,13.6883798828125,2.0699410438537598,0.09426471590995789,1.5952118635177612
1776223438004231000,13.70823095703125,1.781944990158081,0.14772340655326843,1.3263216018676758
1776223438024081000,13.728080810546874,1.517511248588562,0.17357179522514343,1.0471807718276978
1776223438043931000,13.747930908203125,1.200726866722107,0.14796869456768036,0.7567036747932434
1776223438063781000,13.767781005859375,0.7788377404212952,0.06215152144432068,0.5062397718429565
1776223438083631000,13.787631103515626,0.2619815468788147,-0.04483804479241371,0.31396645307540894
1776223438103480800,13.807480712890625,-0.30847981572151184,-0.1332978755235672,0.19021441042423248
1776223438123330000,13.827330078125,-0.8189084529876709,-0.14426663517951965,0.07218071818351746
1776223438143180000,13.847179931640625,-1.1867722272872925,-0.06392092257738113,-0.02743055857717991
1776223438163031000,13.867031005859374,-1.4489407539367676,0.019102055579423904,-0.1045631617307663
1776223438182881000,13.886881103515625,-1.7011356353759766,0.06824962794780731,-0.23454858362674713
1776223438202731000,13.90673095703125,-2.043670654296875,0.06709328293800354,-0.4585987329483032
1776223438222581200,13.926581298828125,-2.4385406970977783,0.05582704767584801,-0.6542177796363831
1776223438242431200,13.94643115234375,-2.780390501022339,0.07845859229564667,-0.7161767482757568
1776223438262281200,13.96628125,-2.930091381072998,0.10821142792701721,-0.6999455690383911
1776223438282131200,13.986131103515625,-2.8405210971832275,0.08954133093357086,-0.6256210207939148
1776223438301981200,14.005981201171876,-2.554347038269043,0.017043698579072952,-0.5453214049339294
1776223438321832200,14.025832275390625,-2.19107985496521,-0.054177217185497284,-0.530121386051178
1776223438341682200,14.04568212890625,-1.9442501068115234,-0.17693616449832916,-0.6143038868904114
1776223438361532200,14.0655322265625,-1.880627989768982,-0.3866582214832306,-0.7852761745452881
1776223438381382100,14.085382080078125,-1.9640111923217773,-0.6491846442222595,-0.9158051609992981
1776223438401232100,14.105232177734376,-2.0444588661193848,-0.82427978515625,-0.9389131665229797
1776223438421082400,14.125082275390625,-2.0018954277038574,-0.8982986211776733,-0.8512983322143555
1776223438440932400,14.144932373046874,-1.8463083505630493,-0.8833694458007812,-0.7600144743919373
1776223438460782300,14.1647822265625,-1.6659339666366577,-0.8367846608161926,-0.7264091372489929
1776223438480633300,14.18463330078125,-1.5517504215240479,-0.7369038462638855,-0.7742009162902832
1776223438500483300,14.2044833984375,-1.5111404657363892,-0.6041674017906189,-0.8959861993789673
1776223438520333300,14.224333251953125,-1.5033611059188843,-0.47469034790992737,-0.9922512173652649
1776223438540183000,14.24418310546875,-1.4361186027526855,-0.35752564668655396,-1.0201563835144043
1776223438560033000,14.264032958984375,-1.3310953378677368,-0.2919463813304901,-1.0030466318130493
1776223438579883000,14.283883056640626,-1.2253634929656982,-0.28695693612098694,-0.9615806341171265
1776223438599733000,14.30373291015625,-1.0997390747070312,-0.2980455458164215,-0.901770830154419
1776223438619583200,14.323583251953124,-0.9209815263748169,-0.32572245597839355,-0.836534857749939
1776223438639434000,14.34343408203125,-0.6501620411872864,-0.3554252088069916,-0.785065770149231
1776223438659284200,14.3632841796875,-0.3048382103443146,-0.39325833320617676,-0.7268642783164978
1776223438679134200,14.38313427734375,0.04725193604826927,-0.46695172786712646,-0.6442093253135681
1776223438698984200,14.402984130859375,0.285125732421875,-0.5442004799842834,-0.5362370610237122
1776223438718834200,14.422834228515624,0.43116897344589233,-0.601698100566864,-0.4184316098690033
1776223438738684200,14.44268408203125,0.5615118145942688,-0.5959776043891907,-0.2536628842353821
1776223438758534100,14.4625341796875,0.7131231427192688,-0.5332590937614441,0.007399060297757387
1776223438778384100,14.482384033203125,0.8744702339172363,-0.4322004020214081,0.3631308078765869
1776223438798235100,14.502235107421875,1.0385973453521729,-0.2208588719367981,0.7870282530784607
1776223438818085000,14.522085205078126,1.3008034229278564,0.3524017333984375,1.3652106523513794
1776223438837935000,14.54193505859375,1.6400715112686157,1.1357511281967163,2.0976202487945557
1776223438857785300,14.561785400390624,1.921811819076538,1.7537951469421387,2.625406265258789
1776223438877635300,14.58163525390625,2.148709535598755,2.037468910217285,2.7265446186065674
1776223438897485300,14.6014853515625,2.244231700897217,1.8860437870025635,2.399604558944702
1776223438917335300,14.621335205078125,2.1480062007904053,1.4026869535446167,1.8736847639083862
1776223438937185300,14.641185302734375,1.9968842267990112,1.0226572751998901,1.3608084917068481
1776223438957036300,14.661036376953126,1.8945791721343994,0.8966274857521057,0.9824206829071045
1776223438976886300,14.68088623046875,1.8526780605316162,0.9225797057151794,0.8295341730117798
1776223438996736300,14.700736328125,1.8228328227996826,0.9346017837524414,0.9461777210235596
1776223439016586000,14.7205859375,1.8228826522827148,0.9560737609863281,1.2078471183776855
1776223439036436000,14.74043603515625,1.8086045980453491,1.008914589881897,1.430691123008728
1776223439056286200,14.7602861328125,1.722160816192627,1.0529084205627441,1.4176043272018433
1776223439076136200,14.78013623046875,1.578311800956726,1.0129002332687378,1.2245206832885742
1776223439095986200,14.799986083984376,1.3906981945037842,0.9174454212188721,0.9149218201637268
1776223439115837700,14.819837646484375,1.1890699863433838,0.7855907082557678,0.5320822596549988
1776223439135688000,14.83968798828125,1.014807105064392,0.6090308427810669,0.10622470825910568
1776223439155538000,14.859537841796875,0.8747168779373169,0.43150267004966736,-0.36489275097846985
1776223439175388000,14.879387939453125,0.7827048897743225,0.2730560302734375,-0.8515593409538269
1776223439195238000,14.89923779296875,0.715718150138855,0.06446580588817596,-1.265336036682129
1776223439215087900,14.919087890625,0.6469995379447937,-0.1912437230348587,-1.5553805828094482
1776223439234937900,14.938937744140626,0.5861042141914368,-0.47007882595062256,-1.758980393409729
1776223439254788900,14.958788818359375,0.5171952247619629,-0.7481375932693481,-1.9799835681915283
1776223439274638800,14.978638916015624,0.44827526807785034,-0.9832928776741028,-2.317871570587158
1776223439294488800,14.99848876953125,0.3819505572319031,-1.2196478843688965,-2.7203269004821777
1776223439314338800,15.0183388671875,0.2751873731613159,-1.4672605991363525,-3.1126651763916016
1776223439334189000,15.03818896484375,0.05332553759217262,-1.7623649835586548,-3.37052845954895
1776223439354039000,15.0580390625,-0.28614678978919983,-1.9189751148223877,-3.578859329223633
1776223439373888800,15.077888671875,-0.7008342742919922,-1.9060115814208984,-3.8062903881073
1776223439393740000,15.097739990234375,-1.1639374494552612,-1.8021328449249268,-3.9759199619293213
1776223439413590000,15.117590087890624,-1.5842477083206177,-1.700345516204834,-3.9060890674591064
1776223439433439700,15.137439697265625,-1.8885140419006348,-1.595872163772583,-3.4537723064422607
1776223439453289700,15.157289794921875,-2.008979082107544,-1.4590327739715576,-2.64957594871521
1776223439473139700,15.1771396484375,-2.0082056522369385,-1.2743281126022339,-1.6822870969772339
1776223439492989700,15.19698974609375,-1.9581719636917114,-0.9594303965568542,-0.8584467768669128
1776223439512840700,15.2168408203125,-1.84542977809906,-0.5408523082733154,-0.35664600133895874
1776223439532690700,15.236690673828125,-1.732712745666504,-0.15010002255439758,-0.1812659204006195
1776223439552540700,15.256540771484374,-1.6432702541351318,0.06967708468437195,-0.25952479243278503
1776223439572391000,15.276390869140625,-1.605819821357727,0.0935579165816307,-0.46891263127326965
1776223439592241000,15.296240966796875,-1.5881513357162476,-0.05546485632658005,-0.6710329651832581
1776223439612091000,15.3160908203125,-1.5328893661499023,-0.2962074279785156,-0.8544038534164429
1776223439631940900,15.33594091796875,-1.4257746934890747,-0.5411314368247986,-1.0926063060760498
1776223439651792000,15.3557919921875,-1.3142592906951904,-0.7396959066390991,-1.411727786064148
1776223439671641900,15.375641845703125,-1.2404251098632812,-0.8914292454719543,-1.7303481101989746
1776223439691491800,15.395491943359374,-1.2196249961853027,-0.9736090898513794,-1.915002465248108
1776223439711341800,15.415341796875,-1.2572437524795532,-1.0161464214324951,-1.9056419134140015
1776223439731191800,15.43519189453125,-1.3190690279006958,-1.0108944177627563,-1.7567944526672363
1776223439751041800,15.455041748046876,-1.341930627822876,-0.9607321619987488,-1.5677927732467651
1776223439770892800,15.474892822265625,-1.326175332069397,-0.8950276970863342,-1.3790737390518188
1776223439790742800,15.49474267578125,-1.2497296333312988,-0.7967211008071899,-1.14570152759552
1776223439810592800,15.5145927734375,-1.09005606174469,-0.6926929950714111,-0.8760350942611694
1776223439830443000,15.534443115234374,-0.8431082963943481,-0.6141446232795715,-0.587052583694458
1776223439850293000,15.55429296875,-0.5690259337425232,-0.5528996586799622,-0.3286322057247162
1776223439870143000,15.57414306640625,-0.36597904562950134,-0.5019278526306152,-0.12198023498058319
1776223439889994000,15.593993896484376,-0.1634909212589264,-0.41084372997283936,0.03339524194598198
1776223439909844000,15.613843994140625,0.09885893762111664,-0.3217191696166992,0.12222391366958618
1776223439929694000,15.63369384765625,0.37617602944374084,-0.2891250252723694,0.15932200849056244
1776223439949544000,15.6535439453125,0.631885290145874,-0.3143715262413025,0.19976212084293365
1776223439969393700,15.6733935546875,0.8483257293701172,-0.3976576328277588,0.28173795342445374
1776223439989243600,15.69324365234375,1.147070288658142,-0.4703110456466675,0.356100857257843
1776223440009095000,15.713094970703125,1.5468467473983765,-0.417222797870636,0.37577176094055176
1776223440028944600,15.732944580078126,1.9146431684494019,-0.35141289234161377,0.41519638895988464
1776223440048794600,15.752794677734375,2.242976188659668,-0.28310468792915344,0.5325528383255005
1776223440068644900,15.772644775390624,2.481898069381714,-0.20523491501808167,0.6843125820159912
1776223440088494800,15.792494873046875,2.7039148807525635,-0.14849945902824402,0.8402470350265503
1776223440108344600,15.812344482421874,2.9290525913238525,-0.12356241792440414,0.8966674208641052
1776223440128195800,15.83219580078125,3.1468095779418945,-0.11344693601131439,0.7801405191421509
1776223440148045800,15.8520458984375,3.2339060306549072,-0.16584037244319916,0.5694459080696106
1776223440167895600,15.8718955078125,3.1831023693084717,-0.24610377848148346,0.4085635244846344
1776223440187745500,15.89174560546875,3.121948719024658,-0.3424321711063385,0.3080582320690155
1776223440207595500,15.911595458984374,3.098820447921753,-0.37470436096191406,0.22402112185955048
1776223440227446500,15.931446533203125,3.081674814224243,-0.3930026888847351,0.19412340223789215
1776223440247296500,15.951296630859375,3.003950357437134,-0.395518034696579,0.20831085741519928
1776223440267146500,15.971146484375,2.8219797611236572,-0.39754682779312134,0.20455047488212585
1776223440286996500,15.99099658203125,2.553544282913208,-0.39857134222984314,0.15011173486709595
1776223440306846700,16.0108466796875,2.219134569168091,-0.42085376381874084,0.05204322561621666
1776223440326696700,16.03069677734375,1.8563593626022339,-0.4355384111404419,-0.06704188138246536
1776223440346547700,16.050547607421876,1.4856854677200317,-0.48408013582229614,-0.2250341773033142
1776223440366397700,16.070397705078125,1.1133522987365723,-0.5161701440811157,-0.39952290058135986
1776223440386247700,16.09024755859375,0.7250552177429199,-0.5067095160484314,-0.5462220311164856
1776223440406097700,16.11009765625,0.33565735816955566,-0.4647620916366577,-0.6800994277000427
1776223440425947600,16.12994775390625,-0.10005602985620499,-0.3815252482891083,-0.8336423635482788
1776223440445797600,16.149797607421874,-0.6175702810287476,-0.24316205084323883,-1.083167552947998
1776223440465648600,16.169648681640624,-1.188152551651001,-0.06994526088237762,-1.4024126529693604
1776223440485498600,16.18949853515625,-1.7551523447036743,0.09476272761821747,-1.7195889949798584
1776223440505348600,16.2093486328125,-2.2211618423461914,0.21392853558063507,-1.9702928066253662
1776223440525198600,16.229198486328126,-2.648010730743408,0.2886301875114441,-2.232943296432495
1776223440545048800,16.249048828125,-3.1039328575134277,0.3715125620365143,-2.556170701980591
1776223440564899600,16.268899658203125,-3.6055421829223633,0.458615779876709,-2.891221761703491
1776223440584749800,16.288749755859374,-4.027099132537842,0.5575820207595825,-3.1210439205169678
1776223440604599800,16.308599853515624,-4.164273738861084,0.6039718985557556,-3.1648151874542236
1776223440624449800,16.32844970703125,-3.875821113586426,0.4560130834579468,-3.0245304107666016
1776223440644299800,16.3482998046875,-3.184053421020508,0.04472219571471214,-2.6733016967773438
1776223440664149800,16.368149658203127,-2.2065701484680176,-0.4766443073749542,-2.2385125160217285
1776223440684000800,16.388000732421876,-1.2347517013549805,-1.0619549751281738,-1.9420183897018433
1776223440703850800,16.407850830078125,-0.5731140971183777,-1.648947834968567,-1.8241058588027954
1776223440723700700,16.42770068359375,-0.2708091139793396,-2.1386325359344482,-1.7890026569366455
1776223440743550700,16.44755078125,-0.22976049780845642,-2.4821696281433105,-1.8107564449310303
1776223440763400400,16.467400390625,-0.28682804107666016,-2.6757099628448486,-1.9278095960617065
1776223440783250700,16.487250732421874,-0.31199437379837036,-2.6217334270477295,-2.2289817333221436
1776223440803101700,16.507101806640627,-0.3212403357028961,-2.406099796295166,-2.7298948764801025
1776223440822951700,16.52695166015625,-0.4394950866699219,-2.165170907974243,-3.1654536724090576
1776223440842801700,16.5468017578125,-0.6081139445304871,-1.9540976285934448,-3.393911123275757
1776223440862651600,16.566651611328126,-0.7620494365692139,-1.7187306880950928,-3.497605562210083
1776223440882501600,16.586501708984375,-0.8950780630111694,-1.4910738468170166,-3.4516866207122803
1776223440902352600,16.6063525390625,-1.0410927534103394,-1.2912299633026123,-3.094128131866455
1776223440922202600,16.62620263671875,-1.1665958166122437,-1.0971739292144775,-2.353893518447876
1776223440942052600,16.646052490234375,-1.1533045768737793,-0.8988043665885925,-1.3927693367004395
1776223440961902600,16.665902587890624,-0.9635846614837646,-0.6830850839614868,-0.4517373740673065
1776223440981752600,16.685752685546873,-0.6873890161514282,-0.44159871339797974,0.27354100346565247
1776223441001602600,16.7056025390625,-0.4760163426399231,-0.22314760088920593,0.7712903022766113
1776223441021453600,16.72545361328125,-0.3458269238471985,0.0020125508308410645,1.1133067607879639
1776223441041303600,16.745303466796877,-0.24071966111660004,0.171082004904747,1.3088054656982422
1776223441061153500,16.765153564453126,-0.025831596925854683,0.2625733017921448,1.3237873315811157
1776223441081003800,16.785003662109375,0.2180769443511963,0.23302899301052094,1.232021689414978
1776223441100853800,16.804853759765624,0.38321956992149353,0.14341628551483154,1.1643809080123901
1776223441120703500,16.824703369140625,0.41822442412376404,0.05318412557244301,1.1704059839248657
1776223441140554500,16.844554443359375,0.41708457469940186,0.016875386238098145,1.2251806259155273
1776223441160404500,16.864404541015624,0.5486111640930176,0.08621930330991745,1.3478971719741821
1776223441180254500,16.88425439453125,0.8620988130569458,0.28664588928222656,1.5261547565460205
1776223441200104400,16.9041044921875,1.2025737762451172,0.5877370238304138,1.762824296951294
1776223441219954400,16.923954345703127,1.5110317468643188,0.9478999972343445,1.9919911623001099
1776223441239804400,16.943804443359376,1.7308377027511597,1.258923053741455,2.1105265617370605
1776223441259655400,16.963655517578125,1.861588716506958,1.4463326930999756,2.0819687843322754
1776223441279505400,16.98350537109375,1.978134036064148,1.4700044393539429,1.9986437559127808
1776223441299355400,17.00335546875,2.0811846256256104,1.3581147193908691,1.9242414236068726
1776223441319205600,17.02320556640625,2.149010181427002,1.1755645275115967,1.8442654609680176
1776223441339055600,17.0430556640625,2.1700944900512695,1.0180391073226929,1.6958909034729004
1776223441358905600,17.062905517578123,2.1274707317352295,0.8734768629074097,1.5269100666046143
1776223441378756600,17.082756591796876,2.1359200477600098,0.7409899234771729,1.3893638849258423
1776223441398606600,17.102606689453125,2.2671234607696533,0.6004514694213867,1.255181908607483
1776223441418456600,17.12245654296875,2.3798439502716064,0.4303132891654968,1.1487958431243896
1776223441438306600,17.142306640625,2.4118571281433105,0.2614081799983978,1.0877468585968018
1776223441458156500,17.162156494140625,2.3312621116638184,0.11215583235025406,1.0288456678390503
1776223441478007600,17.182007568359374,2.1622021198272705,-0.010448379442095757,0.9184733629226685
1776223441497857500,17.201857421875,1.929954171180725,-0.11360832303762436,0.7403630614280701
1776223441517707500,17.22170751953125,1.6395759582519531,-0.20098157227039337,0.5448167324066162
1776223441537557500,17.2415576171875,1.3247612714767456,-0.25433987379074097,0.37945491075515747
1776223441557407700,17.26140771484375,1.0446864366531372,-0.3076220154762268,0.2550019323825836
1776223441577257700,17.2812578125,0.777066171169281,-0.33849576115608215,0.14800970256328583
1776223441597107700,17.301107666015625,0.5056375861167908,-0.35003045201301575,0.015837285667657852
1776223441616958700,17.320958740234374,0.17122554779052734,-0.3666040897369385,-0.17028944194316864
1776223441636808700,17.34080859375,-0.24325792491436005,-0.37907248735427856,-0.42817798256874084
1776223441656658700,17.36065869140625,-0.6828680634498596,-0.3780152201652527,-0.7550077438354492
1776223441676508700,17.3805087890625,-1.0759708881378174,-0.3295118510723114,-1.103266954421997
1776223441696358400,17.4003583984375,-1.4376400709152222,-0.24081739783287048,-1.4884004592895508
1776223441716208400,17.42020849609375,-1.7627745866775513,-0.1368720978498459,-1.8837555646896362
1776223441736059600,17.4400595703125,-2.1051950454711914,-0.06780701130628586,-2.1681442260742188
1776223441755909400,17.459909423828126,-2.368969440460205,-0.0325012169778347,-2.3234000205993652
1776223441775759400,17.47975927734375,-2.4208362102508545,-0.044922467321157455,-2.312302827835083
1776223441795609600,17.499609619140625,-2.23153018951416,-0.12807407975196838,-2.1974380016326904
1776223441815459600,17.51945947265625,-1.9173246622085571,-0.2926633059978485,-2.0636961460113525
1776223441835309600,17.5393095703125,-1.6027352809906006,-0.47354331612586975,-2.0437631607055664
1776223441855160600,17.55916064453125,-1.3812698125839233,-0.7161083221435547,-2.2053210735321045
1776223441875010600,17.579010498046873,-1.303952932357788,-0.9678388237953186,-2.478294610977173
1776223441894860500,17.598860595703126,-1.3741085529327393,-1.2037816047668457,-2.6876919269561768
1776223441914710500,17.61871044921875,-1.5053328275680542,-1.3997139930725098,-2.795299768447876
1776223441934560500,17.638560546875,-1.5820125341415405,-1.5126773118972778,-2.7838382720947266
1776223441954410500,17.658410400390625,-1.5332244634628296,-1.502879023551941,-2.7474288940429688
1776223441974260500,17.678260498046875,-1.343328833580017,-1.4434583187103271,-2.751594305038452
1776223441994111500,17.698111572265624,-1.1355476379394531,-1.3692866563796997,-2.7460670471191406
1776223442013961500,17.71796142578125,-0.9833123087882996,-1.3078075647354126,-2.66709041595459
1776223442033811500,17.7378115234375,-0.885931670665741,-1.2593708038330078,-2.492504358291626
1776223442053661700,17.75766162109375,-0.833469033241272,-1.2734307050704956,-2.1702005863189697
1776223442073511700,17.77751171875,-0.8269243240356445,-1.3102941513061523,-1.7264822721481323
1776223442093361700,17.797361572265626,-0.822189211845398,-1.3354144096374512,-1.3541854619979858
1776223442113213000,17.817212890625,-0.7898991703987122,-1.4404441118240356,-1.1309704780578613
1776223442133063000,17.83706298828125,-0.7113242149353027,-1.5694046020507812,-1.0110310316085815
1776223442152913000,17.856912841796873,-0.5678322911262512,-1.5875710248947144,-1.0356764793395996
1776223442172763000,17.876762939453126,-0.4498473107814789,-1.4569802284240723,-1.2192749977111816
1776223442192612900,17.89661279296875,-0.41157209873199463,-1.17462158203125,-1.4028270244598389
1776223442212462800,17.916462890625,-0.36780065298080444,-0.7824548482894897,-1.3885998725891113
1776223442232312800,17.936312744140626,-0.24844017624855042,-0.40101054310798645,-1.1871349811553955
1776223442252163800,17.956163818359375,-0.05163097009062767,-0.07768547534942627,-0.8868914842605591
1776223442272013800,17.976013916015624,0.1723475307226181,0.06042978912591934,-0.5175771117210388
1776223442291863800,17.99586376953125,0.41170766949653625,-0.015204519033432007,-0.01703091524541378
1776223442311714000,18.015714111328126,0.7082405090332031,-0.22044529020786285,0.6104897260665894
1776223442331564000,18.03556396484375,1.0982370376586914,-0.31117331981658936,1.2105361223220825
1776223442351414000,18.0554140625,1.5032892227172852,-0.1716521829366684,1.566023349761963
1776223442371264000,18.075263916015626,1.809059977531433,0.1490163803100586,1.7598711252212524
1776223442391115000,18.095114990234375,1.9619337320327759,0.5738645792007446,1.8187507390975952
1776223442410965000,18.114965087890624,1.9325898885726929,0.9615111351013184,1.82744562625885
1776223442430815000,18.13481494140625,1.8283159732818604,1.2145318984985352,1.8475158214569092
1776223442450665000,18.1546650390625,1.7602800130844116,1.3273032903671265,1.953242540359497
1776223442470515000,18.174514892578124,1.784769058227539,1.328620433807373,2.0803139209747314
1776223442490365000,18.194364990234376,1.854487657546997,1.2338100671768188,2.1542978286743164
1776223442510215000,18.21421484375,1.937574028968811,1.0554189682006836,2.160696268081665
1776223442530066000,18.23406591796875,2.026207685470581,0.8479321002960205,2.1047675609588623
1776223442549916000,18.253916015625,2.113204002380371,0.6356624364852905,2.019552707672119
1776223442569766000,18.273765869140625,2.180281162261963,0.4550098478794098,1.92825186252594
1776223442589615900,18.293615966796875,2.2177255153656006,0.30576685070991516,1.8634518384933472
1776223442609465900,18.3134658203125,2.202282190322876,0.19569812715053558,1.8015462160110474
1776223442629315800,18.33331591796875,2.117993116378784,0.14041410386562347,1.6825742721557617
1776223442649165800,18.353165771484374,1.9616122245788574,0.10415197163820267,1.516451358795166
1776223442669016800,18.373016845703123,1.7320592403411865,0.05486883968114853,1.356716275215149
1776223442688866800,18.39286669921875,1.4756280183792114,0.014658571220934391,1.231433391571045
1776223442708716800,18.412716796875,1.2616688013076782,-0.010691792704164982,1.1235135793685913
1776223442728566800,18.43256689453125,1.0648574829101562,-0.04489610344171524,0.9966065287590027
1776223442748417000,18.4524169921875,0.8322029709815979,-0.08767233043909073,0.8250294327735901
1776223442768267000,18.47226708984375,0.5235865116119385,-0.20254378020763397,0.6146285533905029
1776223442788117000,18.492116943359374,0.11667708307504654,-0.35344940423965454,0.4231150448322296
1776223442807968000,18.511968017578123,-0.33594951033592224,-0.5427024364471436,0.20569351315498352
1776223442827818000,18.53181787109375,-0.7887292504310608,-0.6374015212059021,-0.04429689049720764
1776223442847668000,18.55166796875,-1.2174750566482544,-0.609244167804718,-0.29001691937446594
1776223442867518000,18.57151806640625,-1.6935467720031738,-0.49131619930267334,-0.5538488030433655
1776223442887368000,18.591367919921876,-2.1486194133758545,-0.28439098596572876,-0.8088374137878418
1776223442907218000,18.611218017578125,-2.420576572418213,-0.025347700342535973,-0.957129716873169
1776223442927068000,18.63106787109375,-2.4311251640319824,0.2063816636800766,-1.0653477907180786
1776223442946919000,18.6509189453125,-2.2287518978118896,0.3479315936565399,-1.2194955348968506
1776223442966769000,18.670768798828124,-1.9390488862991333,0.3333713114261627,-1.4695039987564087
1776223442986619000,18.690618896484374,-1.6814833879470825,0.1216859519481659,-1.8683604001998901
1776223443006469000,18.71046923828125,-1.5520601272583008,-0.2950492203235626,-2.403961181640625
1776223443026319000,18.730319091796876,-1.5391532182693481,-0.8661001920700073,-2.95192289352417
1776223443046168800,18.7501689453125,-1.5991395711898804,-1.4585888385772705,-3.3079464435577393
1776223443066018800,18.770018798828126,-1.6925920248031616,-1.9773763418197632,-3.4158856868743896
1776223443085868800,18.789868896484375,-1.7494323253631592,-2.335869073867798,-3.321763038635254
1776223443105719800,18.8097197265625,-1.686066746711731,-2.504856586456299,-3.115640163421631
1776223443125570000,18.829570068359374,-1.5833451747894287,-2.4823803901672363,-2.9022703170776367
1776223443145420000,18.849419921875,-1.528505563735962,-2.274686336517334,-2.695594549179077
1776223443165270000,18.86927001953125,-1.53828763961792,-1.9129611253738403,-2.509836196899414
1776223443185120000,18.8891201171875,-1.6019158363342285,-1.4417805671691895,-2.316230058670044
1776223443204970200,18.90897021484375,-1.6737093925476074,-0.9385613203048706,-2.087888479232788
1776223443224820200,18.9288203125,-1.7087664604187012,-0.5023059844970703,-1.8263710737228394
1776223443244670200,18.948670166015624,-1.6730936765670776,-0.24214845895767212,-1.6693729162216187
1776223443264521200,18.968521240234374,-1.5741939544677734,-0.1864718794822693,-1.5938795804977417
1776223443284371200,18.98837109375,-1.3830649852752686,-0.3007603585720062,-1.494120478630066
1776223443304221200,19.00822119140625,-1.0438870191574097,-0.5734840631484985,-1.2935620546340942
1776223443324071000,19.02807080078125,-0.5679785013198853,-0.9353882074356079,-1.071975827217102
1776223443343921000,19.0479208984375,-0.12535099685192108,-1.2187488079071045,-0.9468829035758972
1776223443363771000,19.06777099609375,0.10167708992958069,-1.327430009841919,-0.8579977750778198
1776223443383620900,19.087620849609376,0.1567552536725998,-1.2767125368118286,-0.7383654117584229
1776223443403471000,19.10747119140625,0.1776600033044815,-1.0332441329956055,-0.5890941619873047
1776223443423321900,19.12732177734375,0.24686092138290405,-0.6829397082328796,-0.3358190059661865
1776223443443172000,19.147172119140624,0.3222222626209259,-0.3112145960330963,0.07424440234899521
1776223443463022000,19.16702197265625,0.39485490322113037,-0.014676947146654129,0.5819619297981262
1776223443482872000,19.1868720703125,0.5595583915710449,0.21616771817207336,1.1259336471557617
1776223443502722000,19.20672216796875,0.9021524786949158,0.49017903208732605,1.517506718635559
1776223443522572000,19.226572021484376,1.2520532608032227,0.7538330554962158,1.7203210592269897
1776223443542422000,19.246422119140625,1.5328785181045532,1.0213019847869873,1.817299246788025
1776223443562272000,19.26627197265625,1.6876875162124634,1.266402006149292,1.8835397958755493
1776223443582123000,19.286123046875,1.7334318161010742,1.4889882802963257,2.0030107498168945
1776223443601973000,19.305972900390625,1.7590570449829102,1.6776399612426758,2.232389211654663
1776223443621823000,19.325822998046874,1.8113466501235962,1.8188122510910034,2.545703411102295
1776223443641673200,19.345673095703123,1.9565067291259766,1.9054718017578125,2.887503147125244
1776223443661523200,19.365523193359376,2.2126944065093994,1.9545583724975586,3.1453781127929688
1776223443681373200,19.385373291015625,2.5207324028015137,1.952950119972229,3.2727248668670654
1776223443701223200,19.40522314453125,2.815333127975464,1.911649465560913,3.365013360977173
1776223443721073200,19.4250732421875,3.0907392501831055,1.8594731092453003,3.3879318237304688
1776223443740924200,19.444924072265625,3.301361083984375,1.7771995067596436,3.1211228370666504
1776223443760774100,19.464774169921874,3.370445728302002,1.5702368021011353,2.550828695297241
1776223443780624100,19.4846240234375,3.263505458831787,1.221993327140808,1.8224557638168335
1776223443800473900,19.504473876953124,3.0094239711761475,0.7752078175544739,1.1148253679275513
1776223443820323800,19.52432373046875,2.6825151443481445,0.29899150133132935,0.5790181159973145
1776223443840174000,19.544174072265626,2.3531577587127686,-0.10275673866271973,0.27220648527145386
1776223443860024000,19.564024169921876,2.0837440490722656,-0.3664270043373108,0.18044966459274292
1776223443879874000,19.5838740234375,1.860541582107544,-0.526084303855896,0.143904447555542
1776223443899725000,19.60372509765625,1.6023368835449219,-0.6575435400009155,0.0499555766582489
1776223443919575000,19.623574951171875,1.2462890148162842,-0.7507333755493164,-0.08502567559480667
1776223443939425000,19.643425048828124,0.789983332157135,-0.8378927707672119,-0.285722017288208
1776223443959275000,19.66327490234375,0.2651192843914032,-0.897871196269989,-0.4918259382247925
1776223443979125000,19.683125,-0.2737165093421936,-0.9031559228897095,-0.7233073711395264
1776223443998975000,19.70297509765625,-0.8682214021682739,-0.8768876194953918,-0.990982711315155
1776223444018825000,19.722824951171877,-1.540459394454956,-0.7665011882781982,-1.2683792114257812
1776223444038675000,19.742675048828126,-2.215651750564575,-0.5516985654830933,-1.4594953060150146
1776223444058525200,19.762525146484375,-2.710540533065796,-0.2409878522157669,-1.457011103630066
1776223444078376000,19.7823759765625,-2.9494259357452393,0.1084069013595581,-1.3183448314666748
1776223444098226200,19.80222607421875,-2.9531030654907227,0.3557194769382477,-1.1752713918685913
1776223444118076200,19.822076171875,-2.838620185852051,0.4512486755847931,-1.1442428827285767
1776223444137926100,19.841926025390624,-2.710503339767456,0.41780415177345276,-1.2898131608963013
1776223444157776100,19.861776123046877,-2.6514415740966797,0.22075527906417847,-1.6249045133590698
1776223444177626000,19.881626220703126,-2.634317636489868,-0.13208720088005066,-2.1039159297943115
1776223444197476000,19.90147607421875,-2.6334006786346436,-0.6153971552848816,-2.631479263305664
1776223444217326000,19.921326171875,-2.6379122734069824,-1.0954599380493164,-3.0496938228607178
1776223444237176000,19.941176025390625,-2.622338056564331,-1.5403451919555664,-3.2793080806732178
1776223444257027000,19.961027099609375,-2.55202054977417,-1.8900874853134155,-3.399998426437378
1776223444276877000,19.980876953125,-2.4665956497192383,-2.1104843616485596,-3.4492764472961426
1776223444296727300,20.000727294921877,-2.4042038917541504,-2.1600308418273926,-3.4642179012298584
1776223444316577300,20.020577392578126,-2.3606832027435303,-2.038553237915039,-3.4641640186309814
1776223444336427300,20.04042724609375,-2.302569627761841,-1.7917009592056274,-3.4356632232666016
1776223444356277200,20.06027734375,-2.1897411346435547,-1.4854187965393066,-3.3032405376434326
1776223444376127200,20.080127197265625,-1.9771147966384888,-1.2833623886108398,-2.942456007003784
1776223444395977200,20.099977294921874,-1.5670950412750244,-1.2780201435089111,-2.4728620052337646
1776223444415827200,20.1198271484375,-1.050511360168457,-1.4682071208953857,-2.152416467666626
1776223444435678200,20.13967822265625,-0.6177391409873962,-1.7814265489578247,-1.9770804643630981
1776223444455528200,20.159528076171874,-0.3968653380870819,-2.1197407245635986,-1.855376958847046
1776223444475378200,20.179378173828123,-0.3050704300403595,-2.329249620437622,-1.790598750114441
1776223444495228400,20.199228515625,-0.3004210889339447,-2.3459346294403076,-1.7440738677978516
1776223444515078100,20.219078125,-0.30697086453437805,-2.0944840908050537,-1.5809285640716553
1776223444534928100,20.23892822265625,-0.24388669431209564,-1.5673211812973022,-1.2581676244735718
1776223444554778000,20.258778076171875,-0.12242098897695541,-0.8774210214614868,-0.7957139015197754
1776223444574628000,20.278628173828125,-0.0022892532870173454,-0.16702920198440552,-0.20066332817077637
1776223444594479000,20.29847900390625,0.18326303362846375,0.3433901071548462,0.46601402759552
1776223444614329000,20.3183291015625,0.45831456780433655,0.5097649693489075,1.1703615188598633
1776223444634179000,20.338178955078124,0.8619973063468933,0.5305948853492737,1.8489469289779663
1776223444654029000,20.358029052734373,1.2825815677642822,0.5866922736167908,2.4334802627563477
1776223444673879000,20.377879150390626,1.670142650604248,0.7756698727607727,2.9243998527526855
1776223444693729300,20.397729248046875,1.9772013425827026,1.0544633865356445,3.275747299194336
1776223444713579300,20.417579345703125,2.1619787216186523,1.3610053062438965,3.4358983039855957
1776223444733429200,20.43742919921875,2.23901104927063,1.635278582572937,3.4243879318237305
1776223444753279200,20.457279296875,2.1989495754241943,1.8140391111373901,3.306013345718384
1776223444773129200,20.477129150390624,2.1038246154785156,1.9101696014404297,3.2097325325012207
1776223444792980200,20.496980224609374,2.1211726665496826,1.9260902404785156,3.182598352432251
1776223444812830200,20.516830322265626,2.343122959136963,1.8714815378189087,3.1705117225646973
1776223444832680200,20.53668017578125,2.635769844055176,1.7619521617889404,3.061145782470703
1776223444852530200,20.5565302734375,2.8734142780303955,1.5852346420288086,2.8260440826416016
1776223444872380200,20.576380126953126,3.003690004348755,1.3492660522460938,2.5540690422058105
1776223444892230400,20.59623046875,2.9780123233795166,1.0597679615020752,2.2952303886413574
1776223444912080400,20.616080322265624,2.7937538623809814,0.7548322677612305,2.003781795501709
1776223444931930000,20.63593017578125,2.5154385566711426,0.46282249689102173,1.6754883527755737
1776223444951780000,20.655780029296874,2.206770181655884,0.19607576727867126,1.3085253238677979
1776223444971631400,20.67563134765625,1.9101946353912354,-0.006970824208110571,0.9474485516548157
1776223444991481000,20.695481201171877,1.6705458164215088,-0.14484426379203796,0.6792021989822388
1776223445011331000,20.7153310546875,1.4834004640579224,-0.23963841795921326,0.5390613675117493
1776223445031181000,20.73518115234375,1.2974103689193726,-0.3158564865589142,0.44558411836624146
1776223445051031000,20.755031005859376,1.0535051822662354,-0.3869067132472992,0.32579779624938965
1776223445070881000,20.774881103515625,0.7351149916648865,-0.4682854413986206,0.1443614363670349
1776223445090731300,20.794731201171874,0.37181857228279114,-0.5982972383499146,-0.10934247076511383
1776223445110580500,20.81458056640625,-0.05227439105510712,-0.7183527946472168,-0.35561883449554443
1776223445130430500,20.834430419921876,-0.5071159601211548,-0.8060805201530457,-0.6136290431022644
1776223445150280400,20.854280517578125,-1.0235809087753296,-0.8217364549636841,-0.9237709641456604
1776223445170131500,20.87413134765625,-1.6101701259613037,-0.7176417708396912,-1.2692838907241821
1776223445189981400,20.8939814453125,-2.1299030780792236,-0.5255540609359741,-1.5204367637634277
1776223445209831400,20.91383154296875,-2.4778971672058105,-0.38128024339675903,-1.5882322788238525
1776223445229681400,20.933681396484374,-2.590952157974243,-0.28730714321136475,-1.5691288709640503
1776223445249531400,20.953531494140623,-2.5150952339172363,-0.32472217082977295,-1.4567275047302246
1776223445269381600,20.973381591796876,-2.2894177436828613,-0.39102500677108765,-1.3248521089553833
1776223445289231600,20.993231689453125,-2.001004695892334,-0.4792829751968384,-1.325054407119751
1776223445309081600,21.01308154296875,-1.834696888923645,-0.6108369827270508,-1.5720632076263428
1776223445328931600,21.032931640625,-1.8631889820098877,-0.7870903015136719,-1.9976770877838135
1776223445348781600,21.052781494140625,-2.116813898086548,-0.9935870170593262,-2.418394088745117
1776223445368632600,21.072632568359374,-2.4196970462799072,-1.138993263244629,-2.7092015743255615
1776223445388482600,21.092482666015623,-2.6065773963928223,-1.1816834211349487,-2.8297295570373535
1776223445408332500,21.11233251953125,-2.6390397548675537,-1.1414809226989746,-2.819995403289795
1776223445428182500,21.1321826171875,-2.599151372909546,-1.0416656732559204,-2.666991710662842
1776223445448032500,21.152032470703126,-2.523714303970337,-0.9084774851799011,-2.4249632358551025
1776223445467882800,21.1718828125,-2.4178476333618164,-0.709358274936676,-2.313326358795166
1776223445487732700,21.191732666015625,-2.3604421615600586,-0.49863722920417786,-2.285223960876465
1776223445507582700,21.211582763671874,-2.322446823120117,-0.315379798412323,-2.1423897743225098
1776223445527432400,21.231432373046875,-2.203547477722168,-0.298157662153244,-1.8858511447906494
1776223445547282400,21.251282470703124,-1.9338709115982056,-0.4155268967151642,-1.6214020252227783
1776223445567133700,21.2711337890625,-1.5309168100357056,-0.6073349714279175,-1.3275463581085205
1776223445586983400,21.2909833984375,-1.077073097229004,-0.8427485227584839,-0.9480224847793579
1776223445606833400,21.31083349609375,-0.6668307781219482,-1.0165495872497559,-0.5857689380645752
1776223445626683400,21.330683349609377,-0.3959350883960724,-1.0108333826065063,-0.3894473612308502
1776223445646533400,21.350533447265626,-0.23626206815242767,-0.8364503979682922,-0.29137566685676575
1776223445666383600,21.370383544921875,-0.08671092987060547,-0.4424373507499695,-0.15018630027770996
1776223445686233600,21.390233642578124,0.12527403235435486,0.06922807544469833,0.07354585826396942
1776223445706083600,21.41008349609375,0.3924311697483063,0.5800783038139343,0.362867146730423
1776223445725933600,21.42993359375,0.6819183826446533,0.9290655851364136,0.6743981242179871
1776223445745783600,21.449783447265624,0.9494994878768921,1.0545446872711182,1.0005125999450684
1776223445765634600,21.469634521484377,1.2380313873291016,1.1362797021865845,1.386975646018982
1776223445785484500,21.489484619140626,1.5636379718780518,1.2714074850082397,1.7399179935455322
1776223445805334500,21.50933447265625,1.8881555795669556,1.4899073839187622,1.9689652919769287
1776223445825184500,21.5291845703125,2.1599483489990234,1.7665879726409912,2.076610565185547
1776223445845034500,21.549034423828125,2.3736588954925537,2.021634817123413,2.1006572246551514
1776223445864884700,21.568884765625,2.513169527053833,2.169412612915039,2.1159350872039795
1776223445884734700,21.588734619140624,2.6103250980377197,2.238544464111328,2.188608407974243
1776223445904584700,21.608584716796877,2.7107648849487305,2.2329602241516113,2.311070442199707
1776223445924434700,21.6284345703125,2.865424394607544,2.1610476970672607,2.43015456199646
1776223445944284400,21.648284423828127,3.094881057739258,1.9927175045013428,2.4668421745300293
1776223445964135700,21.6681357421875,3.340770959854126,1.7499700784683228,2.399409532546997
1776223445983985700,21.687985595703125,3.5537705421447754,1.4713011980056763,2.223759651184082
1776223446003835400,21.70783544921875,3.699279308319092,1.159678339958191,1.9853016138076782
1776223446023685400,21.727685302734375,3.7192323207855225,0.8453221917152405,1.7080109119415283
1776223446043535400,21.747535400390625,3.638488531112671,0.5354985594749451,1.421594262123108
1776223446063385600,21.767385498046874,3.4889585971832275,0.2233358770608902,1.1456093788146973
1776223446083235600,21.787235595703127,3.3058645725250244,-0.04834303259849548,0.9155479073524475
1776223446103085600,21.80708544921875,3.0753159523010254,-0.2611921727657318,0.7645703554153442
1776223446122935800,21.826935791015625,2.831921100616455,-0.3754045069217682,0.7148009538650513
1776223446142785800,21.846785888671874,2.595228672027588,-0.4489375948905945,0.7398306727409363
1776223446162635500,21.866635498046875,2.3581252098083496,-0.532586932182312,0.7472217679023743
1776223446182486800,21.88648681640625,2.0375001430511475,-0.6488760113716125,0.6805362105369568
1776223446202336800,21.906336669921874,1.5717062950134277,-0.7724133729934692,0.4959527552127838
1776223446222186500,21.9261865234375,0.9537405371665955,-0.8953113555908203,0.2130693942308426
1776223446242036500,21.946036376953124,0.26332858204841614,-0.9897374510765076,-0.08422193676233292
1776223446261886700,21.96588671875,-0.35243234038352966,-1.042609453201294,-0.38048288226127625
1776223446281736700,21.98573681640625,-0.9213802218437195,-0.9831541180610657,-0.7017077803611755
1776223446301586700,22.005586669921875,-1.5131841897964478,-0.8226904273033142,-1.0237334966659546
1776223446321436700,22.025436767578125,-2.1137614250183105,-0.6059442162513733,-1.231134295463562
1776223446341286700,22.04528662109375,-2.5376458168029785,-0.35212528705596924,-1.1905525922775269
1776223446361136600,22.06513671875,-2.679483652114868,-0.07546573132276535,-1.012873649597168
1776223446380987600,22.084987548828124,-2.5991311073303223,0.12064492702484131,-0.9203242659568787
1776223446400837600,22.104837646484373,-2.5635433197021484,0.20912818610668182,-1.1130682229995728
1776223446420687600,22.1246875,-2.6836698055267334,0.14676547050476074,-1.6158088445663452
1776223446440537600,22.14453759765625,-2.989108085632324,-0.04079989343881607,-2.3040642738342285
1776223446460387600,22.1643876953125,-3.337461471557617,-0.21944260597229004,-2.9885096549987793
1776223446480237800,22.18423779296875,-3.6216940879821777,-0.32453545928001404,-3.4176900386810303
1776223446500087800,22.204087890625,-3.817936658859253,-0.3982253968715668,-3.5476274490356445
1776223446519937800,22.223937744140624,-3.8397469520568848,-0.4698745608329773,-3.444532632827759
1776223446539787800,22.243787841796873,-3.6789324283599854,-0.526303768157959,-3.2668142318725586
1776223446559637800,22.2636376953125,-3.470693588256836,-0.6030712127685547,-3.1140284538269043
1776223446579487500,22.283487548828123,-3.2611258029937744,-0.6443986892700195,-2.984013557434082
1776223446599338800,22.3033388671875,-3.0027875900268555,-0.7121729254722595,-2.8209307193756104
1776223446619188700,22.323188720703126,-2.6024374961853027,-0.8795446157455444,-2.5288541316986084
1776223446639038500,22.34303857421875,-2.0284924507141113,-1.2095081806182861,-2.1041758060455322
1776223446658888700,22.362888671875,-1.4103784561157227,-1.6271543502807617,-1.6756314039230347
1776223446678738700,22.38273876953125,-0.9518494606018066,-1.977465271949768,-1.4185659885406494
1776223446698588700,22.402588623046874,-0.693606436252594,-2.1663832664489746,-1.3283884525299072
1776223446718438700,22.422438720703123,-0.5633251667022705,-2.151766777038574,-1.304840326309204
1776223446738288600,22.44228857421875,-0.4996553659439087,-1.8742024898529053,-1.3045403957366943
1776223446758138600,22.462138671875,-0.4629617929458618,-1.3495630025863647,-1.2882969379425049
1776223446777988600,22.481988525390626,-0.4157197177410126,-0.6915952563285828,-1.206016182899475
1776223446797838600,22.501838623046876,-0.3179177939891815,-0.03526637703180313,-0.982613205909729
1776223446817689600,22.521689697265625,-0.19586804509162903,0.5524250864982605,-0.6539613008499146
1776223446837539600,22.54153955078125,0.015731824561953545,0.8750026226043701,-0.24883165955543518
1776223446857389600,22.5613896484375,0.356216162443161,0.8334175944328308,0.22066739201545715
1776223446877239800,22.58123974609375,0.7853363752365112,0.47274038195610046,0.7913252711296082
1776223446897089800,22.60108984375,1.173804759979248,0.06475529074668884,1.3868099451065063
1776223446916939800,22.620939697265626,1.5535049438476562,-0.10966497659683228,1.8571093082427979
1776223446936789800,22.640789794921876,1.955433964729309,-0.026867566630244255,2.1918063163757324
1776223446956639700,22.6606396484375,2.263098955154419,0.2672615349292755,2.434959888458252
1776223446976489700,22.68048974609375,2.388883590698242,0.6273589730262756,2.536109209060669
1776223446996339500,22.70033935546875,2.3238773345947266,0.9470709562301636,2.505721092224121
1776223447016189700,22.720189697265624,2.1715948581695557,1.1567250490188599,2.4640231132507324
1776223447036040700,22.740040771484374,2.079871654510498,1.238148808479309,2.4515793323516846
1776223447055890700,22.759890625,2.0953409671783447,1.2171999216079712,2.5041472911834717
1776223447075740700,22.77974072265625,2.2066361904144287,1.1487345695495605,2.584888458251953
1776223447095590700,22.799590576171877,2.347095251083374,1.0411473512649536,2.596057415008545
1776223447115440600,22.819440673828126,2.4580352306365967,0.9124927520751953,2.5257411003112793
1776223447135290600,22.83929052734375,2.5244405269622803,0.7942262887954712,2.435511589050293
1776223447155140600,22.859140625,2.576383352279663,0.7063344717025757,2.3945891857147217
1776223447174990600,22.878990478515625,2.6274256706237793,0.6351279616355896,2.37813401222229
1776223447194840600,22.898840576171875,2.694270133972168,0.547757089138031,2.4009923934936523
1776223447214690600,22.918690673828124,2.7526330947875977,0.4683789312839508,2.345919132232666
1776223447234540800,22.938540771484377,2.753481149673462,0.38535594940185547,2.175119400024414
1776223447254390800,22.958390869140626,2.635376214981079,0.2619194984436035,2.0147767066955566
1776223447274241800,22.97824169921875,2.3387107849121094,0.14297446608543396,2.028491973876953
1776223447294091800,22.998091796875,1.9607288837432861,0.17523466050624847,1.8640905618667603
1776223447313941800,23.017941650390625,1.6323353052139282,0.27707502245903015,1.3399738073349
1776223447333791700,23.037791748046875,1.3164135217666626,0.2940225601196289,0.7035349607467651
1776223447353641700,23.057641845703124,0.9822438359260559,0.2283751219511032,0.19128499925136566
1776223447373491700,23.07749169921875,0.6226188540458679,0.07303585857152939,-0.1179165169596672
1776223447393341700,23.097341796875,0.23136956989765167,-0.14527437090873718,-0.32481351494789124
1776223447413191700,23.117191650390627,-0.08959300071001053,-0.3451102674007416,-0.5180522203445435
1776223447433042000,23.1370419921875,-0.424805611371994,-0.47762489318847656,-0.807835042476654
1776223447452892000,23.156891845703125,-0.9051413536071777,-0.5575705766677856,-1.133245825767517
1776223447472741600,23.17674169921875,-1.3971036672592163,-0.6454024314880371,-1.3161062002182007
1776223447492593000,23.196593017578124,-1.798828125,-0.641747236251831,-1.2750080823898315
1776223447512443000,23.21644287109375,-2.018803834915161,-0.5844530463218689,-1.079982876777649
1776223447532292600,23.236292724609374,-2.1446807384490967,-0.47201865911483765,-0.9026203751564026
1776223447552142600,23.256142578125,-2.288038969039917,-0.27804628014564514,-0.896762490272522
1776223447571992600,23.27599267578125,-2.466923475265503,-0.04662928730249405,-1.0506740808486938
1776223447591842600,23.295842529296873,-2.671506881713867,0.0756702572107315,-1.3557151556015015
1776223447611692500,23.315692626953126,-2.8570470809936523,0.03523921221494675,-1.7527706623077393
1776223447631542800,23.335542724609375,-3.0328617095947266,-0.10426914691925049,-2.0951743125915527
1776223447651392800,23.355392822265625,-3.2234888076782227,-0.3265858292579651,-2.317967653274536
1776223447671242800,23.37524267578125,-3.3504300117492676,-0.5370823740959167,-2.34981107711792
1776223447691092700,23.3950927734375,-3.3626961708068848,-0.711911141872406,-2.2071034908294678
1776223447710942700,23.414942626953124,-3.291203737258911,-0.8441551923751831,-2.04117751121521
1776223447730793700,23.434793701171873,-3.1939868927001953,-0.9141068458557129,-1.945736050605774
1776223447750643700,23.454643798828126,-3.113740921020508,-0.8976043462753296,-1.9539694786071777
1776223447770493700,23.47449365234375,-3.047372579574585,-0.8075833320617676,-1.9893728494644165
1776223447790343700,23.49434375,-2.975003719329834,-0.7200348377227783,-1.9483071565628052
1776223447810193700,23.514193603515626,-2.8054099082946777,-0.6798467040061951,-1.80585515499115
1776223447830044000,23.5340439453125,-2.4947822093963623,-0.7593361735343933,-1.5222448110580444
1776223447849894000,23.553893798828124,-2.071446418762207,-1.0970399379730225,-1.128997564315796
1776223447869743900,23.573743896484373,-1.6322612762451172,-1.573979377746582,-0.9013098478317261
1776223447889593600,23.593593505859374,-1.2960113286972046,-1.9468567371368408,-0.9531400203704834
1776223447909443600,23.613443603515623,-1.1319200992584229,-2.1910667419433594,-1.1757563352584839
1776223447929293600,23.63329345703125,-1.0714951753616333,-2.24436616897583,-1.4478445053100586
1776223447949143600,23.6531435546875,-0.9936770796775818,-2.0621719360351562,-1.6397626399993896
1776223447968994600,23.67299462890625,-0.8174876570701599,-1.6136990785598755,-1.6338818073272705
1776223447988844500,23.692844482421876,-0.5577594041824341,-0.9835682511329651,-1.4184645414352417
1776223448008694500,23.712694580078125,-0.23601652681827545,-0.2655307352542877,-0.9740623235702515
1776223448028544800,23.732544677734374,0.17116136848926544,0.377324640750885,-0.31033870577812195
1776223448048394800,23.752394775390623,0.6109240651130676,0.7915194034576416,0.5317232608795166
1776223448068244700,23.77224462890625,1.090883493423462,1.0624619722366333,1.3616838455200195
1776223448088094700,23.7920947265625,1.5793554782867432,1.315337061882019,1.9115486145019531
1776223448107944700,23.81194482421875,2.0214991569519043,1.5738155841827393,2.2043278217315674
1776223448127794400,23.83179443359375,2.3644163608551025,1.8314476013183594,2.3410964012145996
1776223448147644400,23.85164453125,2.554497241973877,2.0182712078094482,2.3768904209136963
1776223448167494700,23.87149462890625,2.628810167312622,2.133246421813965,2.3640027046203613
1776223448187344400,23.891344482421875,2.7112112045288086,2.1665725708007812,2.360161066055298
1776223448207194400,23.9111943359375,2.906196355819702,2.151364326477051,2.3636577129364014
1776223448227045600,23.931045654296874,3.2061643600463867,2.0930047035217285,2.3579533100128174
1776223448246895400,23.950895263671875,3.53775691986084,1.9145177602767944,2.3380093574523926
1776223448266745300,23.970745361328124,3.8385932445526123,1.665367841720581,2.2391459941864014
1776223448286595300,23.99059521484375,4.057005405426025,1.3401553630828857,2.0514118671417236
1776223448306445300,24.0104453125,4.19883918762207,0.9886953234672546,1.7866111993789673
1776223448326295300,24.03029541015625,4.231787204742432,0.6320802569389343,1.5236998796463013
1776223448346145300,24.050145263671876,4.129003047943115,0.28458911180496216,1.32921302318573
1776223448365995500,24.06999560546875,3.9377763271331787,0.02364221215248108,1.1215556859970093
1776223448385845500,24.089845458984374,3.7185094356536865,-0.17051634192466736,0.9041080474853516
1776223448405695500,24.109695556640624,3.466395139694214,-0.2672223746776581,0.6987754106521606
1776223448425545500,24.12954541015625,3.1390151977539062,-0.33972907066345215,0.593932569026947
1776223448445395500,24.1493955078125,2.7953217029571533,-0.3548145592212677,0.5834607481956482
1776223448465245400,24.169245361328127,2.443997859954834,-0.3396819233894348,0.5791088938713074
1776223448485096400,24.189096435546876,2.036381483078003,-0.30587124824523926,0.502468466758728
1776223448504946400,24.208946533203125,1.5449572801589966,-0.28670525550842285,0.36372387409210205
1776223448524796400,24.22879638671875,0.9430477023124695,-0.3259759843349457,0.2031155675649643
1776223448544646400,24.248646484375,0.28694576025009155,-0.37268543243408203,0.04358129948377609
1776223448564496600,24.26849658203125,-0.31165429949760437,-0.44219979643821716,-0.09678113460540771
1776223448584346600,24.2883466796875,-0.8468053340911865,-0.4092538058757782,-0.2632257640361786
1776223448604196400,24.3081962890625,-1.3179640769958496,-0.2718150019645691,-0.498700350522995
1776223448624046300,24.32804638671875,-1.875763177871704,-0.13209305703639984,-0.7182601094245911
1776223448643896300,24.347896240234373,-2.4651172161102295,-0.008342884480953217,-0.7464528679847717
1776223448663746300,24.367746337890626,-2.883495330810547,0.07949215918779373,-0.5600409507751465
1776223448683596300,24.38759619140625,-3.090932607650757,0.136230006814003,-0.2978718876838684
1776223448703446300,24.4074462890625,-3.1472673416137695,0.18255649507045746,-0.10658103972673416
1776223448723296500,24.427296630859374,-3.203303098678589,0.20546580851078033,-0.09098955988883972
1776223448743147300,24.447147216796875,-3.328446626663208,0.1904439777135849,-0.2667326331138611
1776223448762997500,24.46699755859375,-3.4612603187561035,0.024378577247262,-0.7033738493919373
1776223448782847500,24.486847412109373,-3.4647977352142334,-0.3360757529735565,-1.4211429357528687
1776223448802697500,24.506697509765626,-3.365938425064087,-0.83519047498703,-2.3005211353302
1776223448822547500,24.52654736328125,-3.1970527172088623,-1.3715037107467651,-3.0622498989105225
1776223448842397400,24.5463974609375,-2.9679181575775146,-1.8855236768722534,-3.590815782546997
1776223448862247400,24.566247314453125,-2.7834632396698,-2.2862982749938965,-3.8539280891418457
1776223448882097400,24.586097412109375,-2.723217487335205,-2.5298025608062744,-3.923330068588257
1776223448901947400,24.605947509765624,-2.7291078567504883,-2.540475606918335,-3.946666955947876
1776223448921797600,24.625797607421877,-2.658036947250366,-2.334864854812622,-4.03616189956665
1776223448941647600,24.645647705078126,-2.508145570755005,-2.0045061111450195,-4.038139820098877
1776223448961497300,24.665497314453123,-2.392037868499756,-1.6496906280517578,-3.7537014484405518
1776223448981347300,24.685347412109376,-2.2586276531219482,-1.3465259075164795,-3.2356462478637695
1776223449001198600,24.705198486328126,-2.0249667167663574,-1.0643954277038574,-2.741529703140259
1776223449021048300,24.72504833984375,-1.7493000030517578,-0.8496224284172058,-2.380139112472534
1776223449040898300,24.744898193359376,-1.5236631631851196,-0.6060214638710022,-2.118229627609253
1776223449060748300,24.764748291015625,-1.3822972774505615,-0.3103080689907074,-1.8656327724456787
1776223449080598300,24.784598388671874,-1.2510210275650024,0.0890132263302803,-1.677777647972107
1776223449100448300,24.8044482421875,-1.071799874305725,0.4994896948337555,-1.5387585163116455
1776223449120298800,24.824298828125,-0.8032608032226562,0.7173078060150146,-1.2407909631729126
1776223449140148700,24.844148681640625,-0.3535410165786743,0.5964604616165161,-0.7433500289916992
